Subject,Round,Phase,afterbreak,Schema,Schema_RT,Schema_OB,Schema_AS,Cho_1,Cho_2,Cho_3,Cho_4,RT_1,RT_2,RT_3,RT_4,OB_1,OB_2,OB_3,OB_4,AS_1,AS_2,AS_3,AS_4,schema_payoff,AC,performance,breakR,type,dwellmean_1,dwellmean_2,dwellmean_3,dwellmean_4
1,1,1,0,5,0.20000000000000004,2,3,1,11,87,72,0.7000000000000003,0.25000000000000006,0.15,0.07,3,2,1,1,4,2,1,1,5,0,19,7,LH,0.17500000000000007,0.12499999999999999,0.15,0.07
1,1,2,0,4,0.11999999999999998,1,2,108,18,59,106,0.6800000000000003,0.15,0.13999999999999999,0.37000000000000016,3,1,1,2,6,1,1,2,2,0,14,7,LH,0.11333333333333337,0.15,0.13999999999999999,0.18500000000000008
1,2,3,0,1,0.12999999999999998,3,4,80,81,79,83,0.5200000000000001,0.13999999999999999,0.15,0.07,4,1,2,1,5,1,2,1,3,1,36,7,LH,0.10400000000000004,0.13999999999999999,0.075,0.07
1,2,4,0,10,0.20000000000000004,2,3,93,23,57,54,0.5400000000000001,0.2700000000000001,0.3300000000000001,0.3200000000000001,4,2,3,2,5,3,3,2,3,0,17,7,LH,0.10800000000000001,0.09,0.11,0.16000000000000006
1,3,5,0,3,0.4100000000000002,4,5,16,53,30,91,1.0200000000000005,0.16,0.05,0.03,6,2,1,1,7,2,1,1,5,0,18,7,LH,0.14571428571428577,0.08,0.05,0.03
1,3,6,0,4,0.17,2,3,40,106,99,66,0.8500000000000004,0.09999999999999999,0.04,0.05,4,2,1,1,5,2,1,1,2,0,13,7,LH,0.17000000000000007,0.05,0.04,0.05
1,4,7,0,2,0.19000000000000003,2,4,6,41,42,118,0.7600000000000003,0.19000000000000003,0.10999999999999999,0.060000000000000005,4,2,2,1,6,2,2,1,4,0,18,7,LH,0.1266666666666667,0.095,0.05499999999999999,0.060000000000000005
1,4,8,0,7,0.26000000000000006,2,4,17,16,65,61,0.8200000000000003,1.2100000000000009,0.01,0.02,4,6,1,1,6,6,1,1,6,0,20,7,LH,0.13666666666666671,0.20166666666666674,0.01,0.02
1,5,9,0,1,0.16,2,3,62,11,3,10,0.9900000000000005,0.16,0.02,0.02,5,2,1,1,7,2,1,1,3,0.5,40,7,LH,0.14142857142857146,0.07999999999999999,0.02,0.02
1,5,10,0,2,0.13999999999999999,2,2,15,86,106,60,17.969999999999988,0.01,0.01,0.01,20,1,1,1,49,1,1,1,4,0,15,7,LH,0.3667346938775512,0.01,0.01,0.01
1,6,11,0,7,0.22000000000000006,2,3,110,28,112,114,1.580000000000001,1.470000000000001,0.8200000000000005,0.6800000000000004,4,2,4,4,5,2,4,4,6,0.5,17,7,LH,0.31600000000000017,0.7350000000000005,0.20500000000000004,0.17000000000000004
1,6,12,0,9,0.18000000000000002,2,3,65,94,62,93,0.6500000000000002,0.36000000000000015,0.04,0.04,3,2,1,1,4,2,1,1,4,0,14,7,LH,0.16250000000000006,0.18000000000000002,0.04,0.04
1,7,13,1,5,0.16,2,3,37,46,88,89,0.5800000000000002,0.23000000000000007,0.17,0.09999999999999999,3,2,2,2,4,3,2,2,5,0,16,7,LH,0.14500000000000005,0.07666666666666666,0.08499999999999999,0.05
1,7,14,1,8,0.18000000000000002,2,4,117,21,68,110,0.6200000000000002,0.34000000000000014,0.12999999999999998,0.09999999999999999,4,2,2,2,8,4,2,3,2,0,14,7,LH,0.07750000000000001,0.08499999999999999,0.065,0.03333333333333333
1,8,15,1,1,0.10999999999999999,1,2,63,64,115,43,0.7100000000000003,0.12999999999999998,0.17,0.09,3,1,1,1,4,1,1,1,3,0,15,7,LH,0.17750000000000005,0.12999999999999998,0.17,0.09
1,8,16,1,4,0.20000000000000004,3,4,60,103,16,27,0.9800000000000005,0.03,0.5400000000000003,0.7200000000000004,7,1,2,2,12,1,2,2,2,0,17,7,LH,0.08166666666666667,0.03,0.27000000000000013,0.3600000000000002
1,9,17,1,5,0.11999999999999998,2,2,2,92,71,96,2.4999999999999933,0.01,0.01,0.01,8,1,1,1,11,1,1,1,5,0,16,7,LH,0.22727272727272735,0.01,0.01,0.01
1,9,18,1,8,0.20000000000000004,2,3,114,23,74,24,0.6100000000000002,0.46000000000000024,0.36000000000000015,0.02,4,2,1,1,5,3,1,1,2,0,17,7,LH,0.12200000000000003,0.15333333333333335,0.36000000000000015,0.02
1,10,19,1,6,0.34000000000000014,2,3,28,10,67,120,1.0400000000000005,0.07,0.7500000000000004,0.01,4,1,2,1,5,1,2,1,6,0,17,7,LH,0.20800000000000007,0.07,0.3750000000000002,0.01
1,10,20,1,4,0.19000000000000003,2,3,107,17,21,55,9.159999999999853,3.6699999999999657,0.18000000000000002,0.01,12,10,1,1,23,11,1,1,2,0,18,7,LH,0.39826086956521645,0.3336363636363638,0.18000000000000002,0.01
1,11,21,1,4,0.08,2,2,18,46,50,19,8.129999999999873,0.02,0.05,0.03,13,1,1,1,16,1,1,1,2,0,21,7,LH,0.5081249999999988,0.02,0.05,0.03
1,11,22,1,1,0.17,3,4,73,26,119,110,0.5900000000000002,0.7900000000000005,0.09999999999999999,0.09999999999999999,4,2,1,1,5,2,1,1,3,0,12,7,LH,0.11800000000000004,0.39500000000000024,0.09999999999999999,0.09999999999999999
1,12,23,1,8,0.2800000000000001,2,3,109,110,15,58,0.8600000000000003,0.15,0.13999999999999999,0.05,3,2,1,1,4,2,1,1,2,0,14,7,LH,0.21500000000000008,0.07499999999999998,0.13999999999999999,0.05
1,12,24,1,6,0.38000000000000017,8,8,8,73,11,9,0.9200000000000004,0.09,0.07,0.5900000000000003,9,1,1,3,9,1,1,4,6,0.5,21,7,LH,0.10222222222222226,0.09,0.07,0.14750000000000008
1,13,25,1,6,0.2700000000000001,3,4,8,11,110,4,0.8800000000000003,0.060000000000000005,0.8900000000000006,5.889999999999919,5,1,3,11,7,1,3,15,6,0.5,20,7,LH,0.12571428571428575,0.060000000000000005,0.2966666666666668,0.3926666666666669
1,13,26,1,9,0.19000000000000003,2,3,94,68,61,36,0.9700000000000005,0.18000000000000002,0.01,0.05,3,1,1,1,4,1,1,1,4,0,16,7,LH,0.2425000000000001,0.18000000000000002,0.01,0.05
1,14,27,1,2,0.19000000000000003,2,3,4,89,86,25,1.0200000000000005,0.05,0.03,0.060000000000000005,5,1,1,1,8,1,1,1,4,0,17,7,LH,0.12750000000000003,0.05,0.03,0.060000000000000005
1,14,28,1,8,0.17,2,3,76,17,80,79,0.9700000000000005,0.7500000000000004,2.7899999999999845,0.11999999999999998,5,3,5,2,6,3,6,2,2,0.5,15,7,LH,0.16166666666666674,0.2500000000000001,0.4650000000000003,0.06
1,15,29,1,4,0.12999999999999998,2,3,108,41,9,10,0.7200000000000003,0.17,0.08,0.04,4,1,1,1,6,1,1,1,2,0,19,7,LH,0.12000000000000002,0.17,0.08,0.04
1,15,30,1,1,0.21000000000000005,2,4,75,33,22,111,0.8100000000000004,0.12999999999999998,0.3000000000000001,0.03,5,1,1,1,8,1,1,1,3,0,16,7,LH,0.10125000000000002,0.12999999999999998,0.3000000000000001,0.03
1,16,31,1,7,0.19000000000000003,2,3,87,118,35,32,0.7600000000000003,0.25000000000000006,0.07,0.01,4,1,1,1,6,1,1,1,6,0,15,7,LH,0.1266666666666667,0.25000000000000006,0.07,0.01
1,16,32,1,5,0.23000000000000007,2,3,75,106,45,52,0.9700000000000005,0.05,0.07,1.5600000000000012,5,1,1,3,7,1,1,4,5,0,14,7,LH,0.1385714285714286,0.05,0.07,0.3900000000000002
1,17,33,1,8,0.21000000000000005,3,5,39,17,45,116,1.1000000000000005,0.060000000000000005,0.13999999999999999,0.01,7,1,1,1,9,1,1,1,2,0,18,7,LH,0.12222222222222226,0.060000000000000005,0.13999999999999999,0.01
1,17,34,1,4,0.19000000000000003,2,3,83,98,6,75,0.7300000000000003,0.10999999999999999,0.21000000000000005,0.05,3,1,1,1,4,1,1,1,2,0,14,7,LH,0.18250000000000008,0.10999999999999999,0.21000000000000005,0.05
1,18,35,1,8,0.18000000000000002,1,2,27,31,13,69,0.8400000000000004,0.17,0.05,0.09999999999999999,4,1,1,1,5,1,1,1,2,0,20,7,LH,0.16800000000000004,0.17,0.05,0.09999999999999999
1,18,36,1,5,0.17,2,3,99,43,56,55,0.7600000000000003,0.09999999999999999,0.20000000000000004,0.12999999999999998,4,1,1,1,5,1,1,1,5,0,15,7,LH,0.15200000000000005,0.09999999999999999,0.20000000000000004,0.12999999999999998
1,19,37,1,5,0.16,3,4,5,40,61,39,0.8600000000000004,0.09,0.05,0.03,5,1,1,1,8,1,1,1,5,0,20,7,LH,0.10750000000000004,0.09,0.05,0.03
1,19,38,1,7,0.3900000000000002,8,9,115,14,109,120,0.8000000000000004,0.22000000000000006,0.10999999999999999,0.04,9,2,1,1,10,2,1,1,6,0.5,12,7,LH,0.08000000000000002,0.11000000000000003,0.10999999999999999,0.04
1,20,39,1,3,0.10999999999999999,2,2,14,33,49,75,2.869999999999985,0.01,0.01,0.11999999999999998,9,1,1,1,11,1,1,1,5,0,18,7,LH,0.26090909090909103,0.01,0.01,0.11999999999999998
1,20,40,1,9,0.3000000000000001,2,3,10,114,118,72,1.1000000000000005,0.060000000000000005,0.04,0.05,3,1,1,1,4,1,1,1,4,0,14,7,LH,0.27500000000000013,0.060000000000000005,0.04,0.05
1,21,41,1,4,0.16,3,5,51,81,59,56,1.4600000000000009,0.01,0.18000000000000002,0.01,7,1,1,1,9,1,1,1,2,0.5,15,7,LH,0.1622222222222223,0.01,0.18000000000000002,0.01
1,21,42,1,5,0.23000000000000007,2,3,86,23,119,61,0.9000000000000005,0.20000000000000004,0.03,0.04,4,1,1,1,5,1,1,1,5,0,15,7,LH,0.18000000000000005,0.20000000000000004,0.03,0.04
1,22,43,1,2,0.23000000000000007,3,4,36,103,50,94,1.0400000000000005,0.16,0.02,0.03,5,1,1,1,6,1,1,1,4,0,14,7,LH,0.1733333333333334,0.16,0.02,0.03
1,22,44,1,7,0.19000000000000003,2,3,63,65,37,43,0.7600000000000003,0.15,0.060000000000000005,1.0800000000000007,4,1,1,2,5,1,1,4,6,0,18,7,LH,0.15200000000000005,0.15,0.060000000000000005,0.27000000000000013
2,1,1,0,10,0.16,2,3,90,68,62,5,0.45000000000000007,0.20000000000000004,0.12999999999999998,0.060000000000000005,4,1,1,2,5,1,1,3,3,0,17,7,LH,0.09,0.20000000000000004,0.12999999999999998,0.02
2,1,2,0,3,0.13999999999999999,2,3,32,35,82,13,0.44000000000000006,0.09999999999999999,0.49000000000000027,0.01,4,1,2,1,5,1,2,1,5,0,19,7,LH,0.088,0.09999999999999999,0.2450000000000001,0.01
2,2,3,0,2,0.15,2,3,82,50,21,57,0.5700000000000002,0.05,0.09,0.04,3,1,1,1,4,1,1,1,4,0,17,7,LH,0.14250000000000004,0.05,0.09,0.04
2,2,4,0,8,0.16,2,3,27,116,94,89,0.6300000000000002,0.04,0.08,0.09,3,1,1,2,4,1,1,2,2,0,13,7,LH,0.15750000000000006,0.04,0.08,0.045
2,3,5,0,6,0.3000000000000001,14,14,5,3,8,67,0.4800000000000001,4.239999999999954,0.01,0.03,15,4,1,1,15,4,1,1,6,0.5,40,7,LH,0.032,1.0600000000000003,0.01,0.03
2,3,6,0,8,0.17,2,4,112,120,16,80,0.5100000000000001,0.09999999999999999,0.34000000000000014,0.01,3,1,2,1,5,1,3,1,2,0,13,7,LH,0.10200000000000004,0.09999999999999999,0.11333333333333334,0.01
2,4,7,0,9,0.13999999999999999,2,3,67,71,85,114,0.43000000000000005,0.04,0.7900000000000005,0.01,4,1,3,1,5,1,3,1,4,0,13,7,LH,0.08600000000000001,0.04,0.2633333333333335,0.01
2,4,8,0,7,0.35000000000000014,9,9,23,16,54,32,0.6300000000000002,0.23000000000000007,1.6300000000000012,0.9400000000000006,10,2,2,4,10,2,2,4,6,0,21,7,LH,0.06300000000000001,0.11499999999999999,0.8150000000000006,0.2350000000000001
2,5,9,0,2,0.09999999999999999,2,2,3,60,54,96,11.489999999999801,0.6400000000000003,0.01,0.10999999999999999,15,2,1,1,19,2,1,1,4,0,17,7,LH,0.6047368421052635,0.3200000000000002,0.01,0.10999999999999999
2,5,10,0,3,0.13999999999999999,2,3,32,27,34,103,0.4900000000000001,0.08,0.07,0.17,4,1,1,2,5,1,1,2,5,0.5,32,7,LH,0.098,0.08,0.07,0.085
2,6,11,0,9,0.21000000000000005,2,3,23,69,35,66,0.5900000000000002,0.05,0.09999999999999999,0.05,3,1,1,1,4,1,1,1,4,0,19,7,LH,0.14750000000000005,0.05,0.09999999999999999,0.05
2,6,12,0,5,0.26000000000000006,4,5,42,43,115,4,0.5300000000000001,0.15,0.08,0.21000000000000005,5,1,1,1,6,1,1,1,5,0,18,7,LH,0.08833333333333335,0.15,0.08,0.21000000000000005
2,7,13,1,6,0.3200000000000001,2,3,101,53,47,12,0.8600000000000003,0.07,0.07,0.5700000000000003,4,1,1,2,6,1,1,2,6,0,17,7,LH,0.14333333333333337,0.07,0.07,0.28500000000000014
2,7,14,1,9,0.16,2,3,120,91,63,23,0.5300000000000001,0.16,0.02,0.38000000000000017,4,2,1,1,5,2,1,1,4,0,15,7,LH,0.10600000000000001,0.08,0.02,0.38000000000000017
2,8,15,1,5,0.18000000000000002,2,3,45,97,101,84,0.6500000000000002,0.05,0.08,0.23000000000000007,4,1,1,2,5,1,1,2,5,0,12,7,LH,0.13000000000000003,0.05,0.08,0.11500000000000003
2,8,16,1,8,0.18000000000000002,2,3,113,20,32,88,0.5100000000000001,0.12999999999999998,0.05,0.23000000000000007,4,1,1,1,5,1,1,1,2,0,16,7,LH,0.10200000000000001,0.12999999999999998,0.05,0.23000000000000007
2,9,17,1,5,0.19000000000000003,2,3,40,103,7,44,0.5300000000000001,0.36000000000000015,0.22000000000000006,0.01,4,2,1,1,5,2,1,1,5,0,18,7,LH,0.10600000000000001,0.18000000000000005,0.22000000000000006,0.01
2,9,18,1,7,0.11999999999999998,2,3,15,16,17,76,0.4200000000000001,0.07,0.08,0.19000000000000003,3,1,1,2,4,1,1,2,6,0.5,21,7,LH,0.10500000000000002,0.07,0.08,0.095
2,10,19,1,6,0.8400000000000005,2,4,31,8,6,36,1.8300000000000012,0.4300000000000002,0.01,0.01,4,2,1,1,6,3,1,1,6,0,22,7,LH,0.30500000000000016,0.14333333333333337,0.01,0.01
2,10,20,1,7,0.16,2,3,41,18,17,46,0.44000000000000006,0.09,1.6300000000000012,1.0200000000000007,3,1,5,2,4,1,6,2,6,0,22,7,LH,0.11000000000000003,0.09,0.2716666666666668,0.5100000000000003
2,11,21,1,5,0.13999999999999999,2,3,46,38,64,71,0.4900000000000001,0.05,0.25000000000000006,0.02,4,1,3,1,5,1,3,1,5,0,18,7,LH,0.098,0.05,0.08333333333333333,0.02
2,11,22,1,1,0.17,2,3,73,97,107,108,0.5500000000000002,0.16,0.3900000000000002,0.37000000000000016,4,1,2,2,5,1,3,2,3,0.5,9,7,LH,0.11000000000000001,0.16,0.13000000000000003,0.18500000000000008
2,12,23,1,3,0.19000000000000003,2,4,33,30,21,80,0.5000000000000001,0.10999999999999999,0.23000000000000007,0.04,4,1,1,1,6,1,2,1,5,0,19,7,LH,0.08333333333333333,0.10999999999999999,0.11499999999999999,0.04
2,12,24,1,5,0.17,2,3,39,114,42,90,0.5100000000000001,0.07,0.10999999999999999,0.3300000000000001,4,1,1,2,5,1,1,3,5,0,15,7,LH,0.10200000000000001,0.07,0.10999999999999999,0.11000000000000001
2,13,25,1,9,0.16,2,3,68,64,29,93,0.43000000000000005,0.12999999999999998,0.15,0.060000000000000005,4,1,1,2,5,1,1,2,4,0,16,7,LH,0.08600000000000002,0.12999999999999998,0.15,0.030000000000000002
2,13,26,1,6,0.24000000000000007,3,5,11,9,6,76,0.4900000000000001,0.08,0.10999999999999999,0.09,4,1,1,1,6,1,1,1,6,0.5,21,7,LH,0.08166666666666668,0.08,0.10999999999999999,0.09
2,14,27,1,1,0.09,2,2,18,23,77,26,4.559999999999949,0.01,0.01,0.01,14,1,1,1,20,1,1,1,3,0,20,7,LH,0.2280000000000001,0.01,0.01,0.01
2,14,28,1,2,0.18000000000000002,2,3,49,59,57,116,0.4600000000000001,0.08,0.7100000000000004,1.6300000000000012,4,1,3,3,5,1,4,3,4,0.5,14,7,LH,0.092,0.08,0.17750000000000005,0.5433333333333337
2,15,29,1,9,0.15,2,3,69,11,88,9,0.37000000000000005,0.3100000000000001,0.08,0.01,3,2,1,1,4,2,1,1,4,0,19,7,LH,0.09250000000000001,0.15500000000000003,0.08,0.01
2,15,30,1,2,0.17,2,3,19,59,27,49,0.5900000000000002,0.03,0.13999999999999999,0.03,4,1,1,1,6,1,1,1,4,0,19,7,LH,0.09833333333333334,0.03,0.13999999999999999,0.03
2,16,31,1,5,0.17,2,3,3,43,41,9,0.42000000000000004,0.09999999999999999,0.16,0.01,4,1,2,1,6,1,2,1,5,0,22,7,LH,0.07,0.09999999999999999,0.08,0.01
2,16,32,1,8,0.18000000000000002,2,2,15,18,111,32,27.260000000001433,0.01,0.01,0.8100000000000005,20,1,1,2,63,1,1,2,2,0,19,7,LH,0.43269841269841275,0.01,0.01,0.40500000000000025
2,17,33,1,10,0.2900000000000001,3,4,91,114,109,87,0.5700000000000002,0.15,0.05,0.2900000000000001,5,2,1,2,6,3,1,2,3,0,10,7,LH,0.095,0.05,0.05,0.14500000000000005
2,17,34,1,1,0.26000000000000006,3,4,98,75,65,34,0.6500000000000002,0.07,0.3300000000000001,0.08,5,1,2,2,7,1,2,2,3,0,14,7,LH,0.09285714285714286,0.07,0.16500000000000006,0.04
2,18,35,1,8,0.6500000000000004,2,3,13,30,109,57,1.2800000000000007,0.01,0.6300000000000003,0.01,4,1,2,1,5,1,2,1,2,0,17,7,LH,0.2560000000000001,0.01,0.31500000000000017,0.01
2,18,36,1,4,1.6100000000000012,7,8,1,77,2,45,3.1600000000000024,0.26000000000000006,0.01,0.01,12,2,1,1,16,2,1,1,2,0,20,7,LH,0.19750000000000006,0.13000000000000003,0.01,0.01
2,19,37,1,7,0.3100000000000001,2,3,20,17,52,97,0.5400000000000001,1.490000000000001,0.01,0.9100000000000006,4,6,1,2,7,7,1,2,6,0,18,7,LH,0.07714285714285714,0.21285714285714294,0.01,0.4550000000000003
2,19,38,1,9,0.17,2,3,82,67,84,32,0.5300000000000001,0.07,0.09,0.05,3,1,1,1,4,1,1,1,4,0,15,7,LH,0.13250000000000003,0.07,0.09,0.05
2,20,39,1,2,0.19000000000000003,2,3,96,93,99,59,0.8100000000000004,0.04,0.04,0.11999999999999998,4,1,1,1,5,1,1,1,4,0,12,7,LH,0.16200000000000006,0.04,0.04,0.11999999999999998
2,20,40,1,5,0.15,2,3,45,38,77,66,0.42000000000000004,0.09,0.16,0.05,3,1,1,1,4,1,1,1,5,0,17,7,LH,0.10500000000000002,0.09,0.16,0.05
2,21,41,1,3,0.12999999999999998,2,3,27,14,22,75,0.37000000000000005,0.2900000000000001,0.09999999999999999,0.11999999999999998,4,2,1,1,5,3,1,1,5,0,20,7,LH,0.07400000000000001,0.09666666666666668,0.09999999999999999,0.11999999999999998
2,21,42,1,10,0.20000000000000004,2,3,90,55,44,104,0.9700000000000005,0.01,0.02,0.17,4,1,1,2,5,1,1,2,3,0,14,7,LH,0.19400000000000006,0.01,0.02,0.085
2,22,43,1,7,0.2900000000000001,3,4,27,115,28,56,1.3600000000000008,0.01,0.03,1.7500000000000013,5,1,1,3,6,1,1,3,6,0,16,7,LH,0.2266666666666668,0.01,0.03,0.5833333333333337
2,22,44,1,5,0.15,2,3,77,41,76,106,0.5400000000000001,0.02,0.9000000000000006,0.01,3,1,2,1,4,1,2,1,5,0,13,7,LH,0.13500000000000004,0.02,0.4500000000000003,0.01
3,1,1,0,1,0.5400000000000003,2,4,15,83,51,103,18.530000000000012,0.01,0.02,0.07,15,1,1,1,29,1,1,1,3,0,15,7,LH,0.6389655172413793,0.01,0.02,0.07
3,1,2,0,3,0.17,2,2,1,114,28,96,21.98000000000061,0.01,0.01,0.02,17,1,1,1,38,1,1,1,5,0,16,7,LH,0.5784210526315791,0.01,0.01,0.02
3,2,3,0,9,0.48000000000000026,2,3,67,114,75,109,4.339999999999962,1.0900000000000007,1.8700000000000014,0.7200000000000004,5,1,2,2,9,1,3,2,4,0,11,7,LH,0.4822222222222225,1.0900000000000007,0.6233333333333337,0.36000000000000015
3,2,4,0,10,0.4300000000000002,2,2,14,27,93,25,20.58000000000035,0.04,0.01,0.5100000000000002,12,1,1,1,29,1,1,1,3,0,19,7,LH,0.7096551724137924,0.04,0.01,0.5100000000000002
3,3,5,0,4,0.6600000000000004,2,5,8,99,108,96,7.259999999999904,1.500000000000001,0.48000000000000026,1.6900000000000013,7,3,2,2,12,3,2,3,2,0,13,7,LH,0.6050000000000004,0.5000000000000002,0.24000000000000005,0.5633333333333337
3,3,6,0,7,1.380000000000001,4,7,19,68,23,84,7.749999999999909,0.9600000000000006,3.319999999999973,1.6800000000000013,9,2,3,2,16,3,4,4,6,0,19,7,LH,0.4843750000000003,0.3200000000000001,0.8300000000000005,0.42000000000000015
3,4,7,0,10,0.3900000000000002,2,4,93,91,61,87,2.7999999999999927,2.4599999999999915,0.8600000000000005,0.36000000000000015,5,3,2,1,8,3,2,1,3,0.5,22,7,LH,0.3500000000000002,0.8200000000000005,0.43000000000000027,0.36000000000000015
3,4,8,0,5,1.0500000000000007,4,4,97,104,98,101,14.149999999999766,6.239999999999911,4.87999999999994,1.360000000000001,14,4,4,2,28,7,5,2,5,1,24,7,LH,0.5053571428571432,0.8914285714285677,0.9759999999999988,0.6800000000000005
3,5,9,0,1,0.46000000000000024,2,3,84,74,52,60,4.859999999999951,2.209999999999997,2.1199999999999988,3.799999999999963,7,6,1,9,9,6,1,9,3,0,14,7,LH,0.5400000000000003,0.3683333333333335,2.1199999999999988,0.42222222222222244
3,5,10,0,10,0.4000000000000002,2,3,87,11,108,92,2.759999999999994,5.039999999999937,2.3299999999999943,1.0900000000000007,4,4,3,2,7,14,3,2,3,0,14,7,LH,0.3942857142857145,0.36000000000000015,0.7766666666666672,0.5450000000000004
3,6,11,0,9,0.5800000000000003,2,4,62,26,113,117,7.109999999999905,0.6500000000000004,1.350000000000001,0.26000000000000006,7,1,2,1,15,1,4,1,4,0,13,7,LH,0.47400000000000025,0.6500000000000004,0.33750000000000013,0.26000000000000006
3,6,12,0,7,0.22000000000000006,3,3,14,15,75,50,5.229999999999937,0.5200000000000002,0.7500000000000004,3.0799999999999783,7,2,1,3,11,2,1,7,6,0,19,7,LH,0.47545454545454574,0.26000000000000006,0.7500000000000004,0.4400000000000002
3,7,13,1,7,0.48000000000000026,5,6,14,21,17,19,2.1700000000000017,2.7999999999999843,2.1699999999999977,0.38000000000000017,6,5,2,2,7,5,2,2,6,1,72,7,LH,0.3100000000000002,0.5600000000000003,1.0850000000000009,0.19000000000000003
3,7,14,1,8,0.3900000000000002,2,3,81,68,64,3,7.089999999999902,1.490000000000001,1.440000000000001,0.7700000000000005,6,2,2,2,12,3,3,2,2,0,17,7,LH,0.5908333333333332,0.496666666666667,0.48000000000000026,0.3850000000000002
3,8,15,1,2,0.37000000000000016,2,3,83,53,50,75,3.36999999999998,3.8599999999999617,3.2999999999999736,0.07,4,2,3,1,7,2,3,1,4,0,14,7,LH,0.48142857142856993,1.929999999999984,1.0999999999999932,0.07
3,8,16,1,6,1.1000000000000008,16,16,6,104,65,37,6.669999999999926,1.6900000000000013,1.8300000000000014,0.9400000000000006,19,2,3,2,29,3,3,2,6,0,17,7,LH,0.2300000000000001,0.5633333333333337,0.6100000000000003,0.47000000000000025
3,9,17,1,5,0.5000000000000002,2,4,103,39,97,79,7.619999999999893,0.7400000000000004,0.48000000000000026,1.1400000000000008,7,2,1,2,15,2,1,4,5,0,12,7,LH,0.5080000000000002,0.37000000000000016,0.48000000000000026,0.2850000000000001
3,9,18,1,9,0.5900000000000003,2,3,65,66,67,14,4.899999999999952,1.5800000000000012,0.7800000000000005,0.5400000000000003,5,3,2,2,7,3,3,2,4,0.5,18,7,LH,0.7000000000000004,0.526666666666667,0.26000000000000006,0.2700000000000001
3,10,19,1,2,0.3000000000000001,2,3,110,26,120,30,8.06999999999988,1.380000000000001,0.8200000000000005,2.3599999999999937,8,3,1,3,16,3,1,3,4,0,14,7,LH,0.5043750000000002,0.46000000000000024,0.8200000000000005,0.7866666666666672
3,10,20,1,4,0.2900000000000001,2,3,103,68,47,99,1.4200000000000008,4.769999999999943,2.289999999999995,0.05,4,4,2,1,5,4,3,1,2,0,13,7,LH,0.28400000000000014,1.1925000000000008,0.7633333333333339,0.05
3,11,21,1,1,0.5100000000000002,2,3,78,74,21,33,3.1199999999999886,4.059999999999958,1.0200000000000007,0.8900000000000006,4,5,1,2,6,5,1,2,3,0,17,7,LH,0.5200000000000004,0.8120000000000005,1.0200000000000007,0.44500000000000023
3,11,22,1,6,0.7400000000000004,2,4,62,119,85,71,8.159999999999886,0.9500000000000006,7.319999999999888,0.10999999999999999,6,2,5,1,12,2,7,1,6,0,13,7,LH,0.6799999999999994,0.4750000000000002,1.0457142857142798,0.10999999999999999
3,12,23,1,2,0.25000000000000006,4,4,2,38,7,46,22.940000000000747,0.03,0.4100000000000002,0.11999999999999998,16,1,2,1,32,1,2,1,4,0,22,7,LH,0.7168749999999998,0.03,0.2050000000000001,0.11999999999999998
3,12,24,1,1,0.6300000000000003,2,4,63,81,74,65,7.88999999999989,1.0200000000000007,1.340000000000001,1.2500000000000009,8,4,3,2,18,4,4,3,3,0,14,7,LH,0.4383333333333336,0.25500000000000006,0.3350000000000002,0.4166666666666669
3,13,25,1,6,0.7200000000000004,2,4,85,97,105,103,18.30999999999995,1.7500000000000013,0.48000000000000026,5.279999999999932,14,3,3,4,32,3,3,4,6,0.5,9,7,LH,0.5721875000000003,0.5833333333333337,0.16000000000000003,1.3199999999999887
3,13,26,1,3,0.37000000000000016,3,4,77,55,35,20,2.6499999999999955,6.529999999999905,0.07,0.25000000000000006,5,7,1,1,7,12,1,1,5,0,18,7,LH,0.3785714285714288,0.5441666666666667,0.07,0.25000000000000006
3,14,27,1,2,0.3200000000000001,2,3,55,54,14,80,3.5399999999999756,2.759999999999985,0.45000000000000023,0.6900000000000004,6,3,1,1,9,5,1,1,4,0,17,7,LH,0.39333333333333353,0.5520000000000003,0.45000000000000023,0.6900000000000004
3,14,28,1,6,0.25000000000000006,1,2,3,35,11,5,60.21999999999664,0.01,0.01,0.01,20,1,1,1,83,1,1,1,6,0.5,23,7,LH,0.725542168674698,0.01,0.01,0.01
3,15,29,1,2,2.4199999999999924,3,5,77,79,53,51,6.199999999999956,0.9600000000000006,1.1600000000000008,3.1999999999999758,7,3,2,3,9,4,2,5,4,0,14,7,LH,0.6888888888888893,0.2400000000000001,0.5800000000000003,0.6399999999999982
3,15,30,1,4,0.3300000000000001,2,3,101,24,13,20,2.6499999999999946,3.9499999999999598,1.450000000000001,1.5100000000000011,4,5,2,3,9,5,2,4,2,0.5,20,7,LH,0.29444444444444456,0.7900000000000005,0.7250000000000004,0.37750000000000017
3,16,31,1,2,0.3900000000000002,2,3,56,58,19,53,5.049999999999946,1.5900000000000012,1.1800000000000008,0.17,7,2,1,1,10,3,1,1,4,0.5,18,7,LH,0.5050000000000002,0.5300000000000002,1.1800000000000008,0.17
3,16,32,1,5,0.34000000000000014,2,3,43,11,44,82,3.769999999999971,2.3299999999999943,2.5999999999999885,4.209999999999955,5,3,4,5,8,3,5,6,5,0,19,7,LH,0.4712500000000003,0.7766666666666672,0.5200000000000002,0.7016666666666656
3,17,33,1,9,0.3100000000000001,2,3,14,70,64,20,4.799999999999949,0.8300000000000005,0.36000000000000015,5.179999999999934,5,2,1,6,10,2,1,8,4,0,20,7,LH,0.48000000000000026,0.41500000000000015,0.36000000000000015,0.6474999999999996
3,17,34,1,8,0.3300000000000001,2,3,113,115,2,11,3.429999999999978,0.6300000000000003,2.3599999999999937,0.4100000000000002,4,1,4,1,9,1,4,1,2,0,16,7,LH,0.3811111111111113,0.6300000000000003,0.5900000000000003,0.4100000000000002
3,18,35,1,1,0.2900000000000001,2,3,74,83,5,79,2.4599999999999977,1.360000000000001,1.9500000000000015,0.9000000000000006,5,2,2,2,6,3,4,3,3,0.5,15,7,LH,0.4100000000000002,0.45333333333333353,0.48750000000000027,0.3000000000000001
3,18,36,1,5,0.37000000000000016,2,4,40,90,45,64,18.9200000000001,1.330000000000001,0.01,3.0299999999999794,11,2,1,4,28,2,1,4,5,0,17,7,LH,0.6757142857142848,0.6650000000000004,0.01,0.7575000000000005
3,19,37,1,5,3.7199999999999647,6,12,23,48,117,22,5.559999999999966,1.5400000000000011,1.410000000000001,0.5900000000000003,7,2,3,2,13,4,3,3,5,0,19,7,LH,0.4276923076923079,0.3850000000000002,0.4700000000000002,0.1966666666666667
3,19,38,1,4,2.020000000000001,5,7,99,35,103,33,3.9100000000000024,1.490000000000001,12.329999999999782,1.290000000000001,8,1,7,4,11,1,17,4,2,0,14,7,LH,0.35545454545454563,1.490000000000001,0.7252941176470589,0.3225000000000002
3,20,39,1,8,2.99999999999998,3,4,74,48,45,37,4.919999999999981,3.759999999999964,0.37000000000000016,0.6500000000000004,6,2,1,1,10,4,1,1,2,0.5,18,7,LH,0.49199999999999916,0.9400000000000005,0.37000000000000016,0.6500000000000004
3,20,40,1,9,0.3100000000000001,2,3,61,7,64,3,3.8399999999999688,1.300000000000001,0.8600000000000005,0.7500000000000004,6,1,2,2,11,2,2,2,4,0,20,7,LH,0.34909090909090923,0.6500000000000004,0.4300000000000002,0.3750000000000002
4,1,1,0,5,0.21000000000000005,2,3,48,40,78,58,0.37000000000000005,0.07,0.48000000000000026,0.02,3,1,2,1,4,1,4,1,5,0,17,7,LH,0.0925,0.07,0.12000000000000001,0.02
4,1,2,0,9,0.20000000000000004,2,3,67,68,114,24,0.4400000000000001,0.060000000000000005,0.13999999999999999,0.05,4,1,1,1,5,1,1,1,4,0,16,7,LH,0.08800000000000001,0.060000000000000005,0.13999999999999999,0.05
4,2,3,0,8,0.2900000000000001,2,6,113,116,53,117,0.4600000000000001,0.20000000000000004,0.04,0.05,5,2,1,2,10,2,1,2,2,0.5,16,7,LH,0.046,0.09999999999999999,0.04,0.025
4,2,4,0,4,0.18000000000000002,2,3,102,103,69,46,0.37000000000000005,0.09999999999999999,0.12999999999999998,0.05,4,1,1,1,5,1,1,1,2,0,13,7,LH,0.074,0.09999999999999999,0.12999999999999998,0.05
4,3,5,0,8,0.2700000000000001,3,7,110,65,39,95,0.41000000000000003,0.2800000000000001,0.07,0.07,5,2,1,1,9,2,1,1,2,0,14,7,LH,0.04555555555555556,0.13999999999999999,0.07,0.07
4,3,6,0,1,0.19000000000000003,2,3,80,104,50,99,0.37000000000000005,0.2700000000000001,0.05,0.060000000000000005,4,2,1,2,5,2,1,2,3,0,11,7,LH,0.074,0.13500000000000004,0.05,0.03
4,4,7,0,7,0.22000000000000006,2,3,18,14,102,24,0.37000000000000005,1.8800000000000014,0.03,0.01,4,7,1,1,5,9,1,1,6,0.5,38,7,LH,0.074,0.20888888888888896,0.03,0.01
4,4,8,0,5,0.3100000000000001,3,5,40,110,78,59,0.5200000000000001,0.07,0.2900000000000001,0.03,5,1,1,1,7,1,1,1,5,0,14,7,LH,0.07428571428571429,0.07,0.2900000000000001,0.03
4,5,9,0,8,0.22000000000000006,2,3,112,14,111,20,0.6600000000000003,0.02,0.05,0.060000000000000005,5,1,1,1,7,1,1,1,2,0,16,7,LH,0.09428571428571429,0.02,0.05,0.060000000000000005
4,5,10,0,2,0.3100000000000001,2,5,49,98,32,29,0.6200000000000002,0.09,0.26000000000000006,0.09999999999999999,5,1,1,1,9,1,1,1,4,0,16,7,LH,0.06888888888888889,0.09,0.26000000000000006,0.09999999999999999
4,6,11,0,5,0.21000000000000005,2,3,48,67,99,37,0.4700000000000001,0.09999999999999999,0.10999999999999999,0.02,4,1,1,1,5,1,1,1,5,0,16,7,LH,0.094,0.09999999999999999,0.10999999999999999,0.02
4,6,12,0,2,0.23000000000000007,2,6,110,57,76,82,1.7600000000000011,0.01,0.01,0.04,4,1,1,1,8,1,1,1,4,0,12,7,LH,0.22000000000000014,0.01,0.01,0.04
4,7,13,1,9,0.19000000000000003,2,3,47,68,13,21,0.5300000000000001,0.060000000000000005,1.2100000000000009,0.8700000000000006,3,2,5,4,4,2,5,4,4,0,21,7,LH,0.13250000000000003,0.03,0.24200000000000013,0.21750000000000008
4,7,14,1,3,0.19000000000000003,2,3,29,101,1,11,0.33,0.37000000000000016,0.03,0.10999999999999999,4,2,1,2,5,3,1,3,5,0,19,7,LH,0.066,0.12333333333333334,0.03,0.03666666666666667
4,8,15,1,7,0.13999999999999999,1,2,17,19,13,35,0.34,0.060000000000000005,5.869999999999919,0.01,2,1,15,1,3,1,30,1,6,0.5,23,7,LH,0.11333333333333334,0.060000000000000005,0.1956666666666667,0.01
4,8,16,1,5,0.25000000000000006,2,3,43,109,48,39,0.4600000000000001,0.18000000000000002,0.05,0.16,4,2,1,2,5,2,1,2,5,0.5,17,7,LH,0.092,0.09,0.05,0.07999999999999999
4,9,17,1,7,0.20000000000000004,3,4,22,81,61,48,0.39000000000000007,0.20000000000000004,0.11999999999999998,0.03,5,2,1,1,6,3,1,1,6,0,18,7,LH,0.065,0.06666666666666668,0.11999999999999998,0.03
4,9,18,1,2,0.17,2,3,49,58,7,4,0.3,0.060000000000000005,0.18000000000000002,0.09999999999999999,3,1,1,1,4,1,1,1,4,0,20,7,LH,0.075,0.060000000000000005,0.18000000000000002,0.09999999999999999
4,10,19,1,6,0.09999999999999999,2,2,1,2,39,6,0.48000000000000015,0.01,0.04,0.07,4,1,1,2,5,1,1,2,6,0.5,23,7,LH,0.096,0.01,0.04,0.035
4,10,20,1,3,0.48000000000000026,4,5,32,16,49,21,0.7400000000000003,0.16,0.03,0.03,6,2,1,1,7,2,1,1,5,0,21,7,LH,0.10571428571428573,0.08,0.03,0.03
4,11,21,1,7,0.3200000000000001,2,3,16,15,70,17,0.5200000000000001,3.849999999999962,0.01,0.01,4,8,1,1,5,13,1,1,6,0.5,22,7,LH,0.104,0.29615384615384627,0.01,0.01
4,11,22,1,6,0.20000000000000004,2,3,11,56,6,35,0.4200000000000001,0.3000000000000001,0.03,0.02,4,2,1,1,5,3,1,1,6,0,21,7,LH,0.08399999999999999,0.10000000000000002,0.03,0.02
4,12,23,1,1,0.22000000000000006,2,4,77,75,99,71,0.30000000000000004,0.15,0.24000000000000007,0.18000000000000002,3,2,1,1,5,2,1,1,3,0,12,7,LH,0.06,0.075,0.24000000000000007,0.18000000000000002
4,12,24,1,10,0.19000000000000003,2,3,117,95,89,6,0.44000000000000006,0.04,0.07,0.21000000000000005,3,1,1,2,4,1,1,2,3,0,14,7,LH,0.11000000000000001,0.04,0.07,0.10500000000000001
4,13,25,1,8,0.2700000000000001,2,3,109,35,110,117,0.4800000000000001,0.25000000000000006,0.04,0.02,4,2,1,1,7,2,1,1,2,0.5,11,7,LH,0.06857142857142857,0.12499999999999999,0.04,0.02
4,13,26,1,2,0.13999999999999999,2,4,56,57,82,99,0.21999999999999997,0.13999999999999999,0.21000000000000005,0.07,3,1,1,1,5,1,1,1,4,0,13,7,LH,0.044000000000000004,0.13999999999999999,0.21000000000000005,0.07
4,14,27,1,10,0.21000000000000005,2,3,92,91,54,17,0.34,0.13999999999999999,0.15,0.08,4,1,1,1,5,1,1,1,3,0,16,7,LH,0.068,0.13999999999999999,0.15,0.08
4,14,28,1,8,0.2700000000000001,4,5,119,72,28,110,0.6700000000000003,0.5300000000000002,0.47000000000000025,0.25000000000000006,6,2,3,2,7,2,3,2,2,0,13,7,LH,0.09571428571428574,0.2650000000000001,0.1566666666666667,0.12500000000000003
4,15,29,1,5,0.36000000000000015,2,3,61,63,78,43,0.7000000000000003,0.10999999999999999,0.01,0.17,3,1,1,1,4,1,1,2,5,0,16,7,LH,0.17500000000000004,0.10999999999999999,0.01,0.08499999999999999
4,15,30,1,10,0.24000000000000007,2,3,109,85,113,51,0.5200000000000001,0.05,0.07,0.2700000000000001,3,1,1,2,4,1,1,2,3,0,11,7,LH,0.13,0.05,0.07,0.13500000000000004
4,16,31,1,3,0.20000000000000004,2,4,88,60,36,53,0.4400000000000001,0.10999999999999999,0.02,0.02,3,2,1,1,5,2,1,1,5,0,16,7,LH,0.08800000000000001,0.055,0.02,0.02
4,16,32,1,9,0.18000000000000002,2,3,71,68,3,40,0.39000000000000007,0.12999999999999998,0.2700000000000001,0.03,4,1,2,1,5,2,2,1,4,0,19,7,LH,0.078,0.06499999999999999,0.135,0.03
4,17,33,1,7,0.18000000000000002,2,3,18,84,25,108,0.35000000000000003,0.22000000000000006,0.13999999999999999,0.3900000000000002,4,2,2,2,5,2,2,2,6,0,16,7,LH,0.07,0.11000000000000001,0.06999999999999999,0.1950000000000001
4,17,34,1,6,0.46000000000000024,4,6,43,5,38,39,0.7400000000000003,0.15,0.07,0.03,6,1,2,1,9,1,2,1,6,0.5,21,7,LH,0.08222222222222222,0.15,0.035,0.03
4,18,35,1,9,0.26000000000000006,2,3,68,12,103,86,0.3400000000000001,0.3100000000000001,0.07,0.03,4,2,1,1,5,3,1,1,4,0,15,7,LH,0.068,0.10333333333333335,0.07,0.03
4,18,36,1,8,1.350000000000001,5,9,14,55,17,15,2.5000000000000018,0.23000000000000007,0.02,1.8200000000000014,12,2,1,8,18,2,1,11,2,0.5,22,7,LH,0.13888888888888892,0.11500000000000003,0.02,0.1654545454545455
4,19,37,1,9,0.25000000000000006,2,3,42,91,63,44,1.2800000000000007,0.01,0.01,0.01,4,1,1,1,6,1,1,1,4,0,17,7,LH,0.21333333333333343,0.01,0.01,0.01
4,19,38,1,4,0.19000000000000003,2,3,106,54,25,32,0.5000000000000001,0.01,0.11999999999999998,0.060000000000000005,4,1,1,1,7,1,1,1,2,0,16,7,LH,0.07142857142857142,0.01,0.11999999999999998,0.060000000000000005
4,20,39,1,10,0.21000000000000005,3,7,96,91,95,105,0.33,0.07,0.22000000000000006,0.060000000000000005,5,1,2,1,9,1,2,1,3,0.5,11,7,LH,0.03666666666666667,0.07,0.11,0.060000000000000005
4,20,40,1,7,0.24000000000000007,2,5,15,14,73,66,0.39000000000000007,0.6800000000000004,0.4000000000000002,0.01,4,4,1,1,7,4,1,1,6,0,19,7,LH,0.055714285714285716,0.17000000000000004,0.4000000000000002,0.01
4,21,41,1,7,0.2900000000000001,4,5,14,20,51,114,0.4600000000000001,0.09999999999999999,0.11999999999999998,0.9400000000000006,5,1,4,2,6,1,5,2,6,0,18,7,LH,0.07666666666666666,0.09999999999999999,0.024,0.4700000000000003
4,21,42,1,1,0.24000000000000007,4,6,81,83,48,104,0.48000000000000015,0.15,0.11999999999999998,0.08,7,2,1,1,11,2,1,1,3,0,13,7,LH,0.04363636363636364,0.07500000000000001,0.11999999999999998,0.08
4,22,43,1,8,0.19000000000000003,2,3,116,109,115,74,0.32,0.02,0.07,0.4100000000000002,3,1,1,2,4,1,1,2,2,0.5,9,7,LH,0.07999999999999999,0.02,0.07,0.2050000000000001
4,22,44,1,6,0.19000000000000003,2,3,7,108,38,39,1.680000000000001,0.01,0.02,0.24000000000000007,6,1,1,2,8,1,1,2,6,0,18,7,LH,0.2100000000000001,0.01,0.02,0.12000000000000002
5,1,1,0,4,0.20000000000000004,2,4,39,103,3,95,0.6100000000000002,0.08,0.08,0.08,3,1,1,1,5,1,1,1,2,0,16,7,LH,0.12200000000000004,0.08,0.08,0.08
5,1,2,0,3,0.20000000000000004,2,4,36,19,84,82,0.4700000000000001,0.11999999999999998,0.48000000000000026,2.52999999999999,4,1,2,4,6,1,2,5,5,0,17,7,LH,0.07833333333333332,0.11999999999999998,0.2400000000000001,0.5060000000000003
5,2,3,0,6,0.20000000000000004,2,3,56,53,91,87,0.7600000000000003,1.7900000000000014,0.15,0.15,4,2,1,1,5,2,1,1,6,0,14,7,LH,0.15200000000000002,0.8950000000000007,0.15,0.15
5,2,4,0,9,0.22000000000000006,2,3,45,18,76,100,0.6000000000000002,1.5200000000000011,0.09999999999999999,0.10999999999999999,3,3,1,1,4,3,1,1,4,0,16,7,LH,0.15000000000000005,0.5066666666666669,0.09999999999999999,0.10999999999999999
5,3,5,0,8,0.24000000000000007,2,4,63,116,32,30,0.7300000000000003,0.03,0.10999999999999999,0.02,4,1,2,1,7,1,2,1,2,0,16,7,LH,0.10428571428571429,0.03,0.05500000000000001,0.02
5,3,6,0,6,0.4100000000000002,19,20,47,3,78,106,0.8500000000000004,0.3000000000000001,1.400000000000001,5.319999999999931,20,2,6,5,22,2,7,5,6,0,16,7,LH,0.03863636363636364,0.15000000000000005,0.20000000000000007,1.0640000000000003
5,4,7,0,1,0.22000000000000006,2,3,76,54,17,73,0.39000000000000007,0.3900000000000002,0.060000000000000005,0.5600000000000003,3,1,1,2,4,1,1,2,3,0,16,7,LH,0.0975,0.3900000000000002,0.060000000000000005,0.28000000000000014
5,4,8,0,9,0.20000000000000004,2,3,87,4,105,108,0.6000000000000002,0.13999999999999999,0.060000000000000005,0.05,3,1,1,1,4,1,1,1,4,0,13,7,LH,0.15000000000000005,0.13999999999999999,0.060000000000000005,0.05
5,5,9,0,3,0.21000000000000005,3,5,31,49,112,7,0.4600000000000001,0.13999999999999999,0.19000000000000003,0.060000000000000005,5,1,1,1,7,1,1,1,5,0,17,7,LH,0.06571428571428571,0.13999999999999999,0.19000000000000003,0.060000000000000005
5,5,10,0,4,0.21000000000000005,2,3,97,45,63,87,0.6000000000000002,0.13999999999999999,0.05,0.05,4,1,1,1,6,1,1,1,2,0,14,7,LH,0.1,0.13999999999999999,0.05,0.05
5,6,11,0,3,0.19000000000000003,2,4,32,8,109,60,0.5700000000000002,0.060000000000000005,0.08,0.09,4,1,1,1,6,1,1,1,5,0,17,7,LH,0.09500000000000001,0.060000000000000005,0.08,0.09
5,6,12,0,4,0.3000000000000001,8,9,94,107,88,106,0.6800000000000003,0.04,0.09,0.01,10,1,1,1,11,1,1,1,2,0,10,7,LH,0.06181818181818183,0.04,0.09,0.01
5,7,13,1,9,0.23000000000000007,2,3,64,73,21,83,0.5400000000000001,0.11999999999999998,0.17,0.04,4,2,1,1,5,2,1,1,4,0,16,7,LH,0.10800000000000001,0.06,0.17,0.04
5,7,14,1,4,0.36000000000000015,12,14,88,4,108,86,0.6400000000000002,0.12999999999999998,0.060000000000000005,0.01,14,2,1,1,16,2,1,1,2,0,14,7,LH,0.04,0.065,0.060000000000000005,0.01
5,8,15,1,2,0.21000000000000005,3,4,60,11,49,56,0.4400000000000001,0.25000000000000006,0.03,0.04,4,2,1,1,5,2,1,1,4,0.5,18,7,LH,0.08800000000000001,0.12500000000000003,0.03,0.04
5,8,16,1,3,0.18000000000000002,2,3,70,33,80,63,0.6300000000000002,0.03,0.07,0.10999999999999999,4,1,1,1,6,1,1,1,5,0,16,7,LH,0.10500000000000001,0.03,0.07,0.10999999999999999
5,9,17,1,8,0.19000000000000003,2,3,118,120,22,52,0.44000000000000006,0.13999999999999999,0.08,0.09999999999999999,4,1,1,1,5,1,1,1,2,0,14,7,LH,0.088,0.13999999999999999,0.08,0.09999999999999999
5,9,18,1,5,0.19000000000000003,2,3,2,46,89,106,8.629999999999864,0.01,0.01,0.01,14,1,1,1,20,1,1,1,5,0,16,7,LH,0.4315000000000002,0.01,0.01,0.01
5,10,19,1,2,0.23000000000000007,3,4,52,2,7,98,0.5200000000000001,1.9500000000000015,15.969999999999704,1.7100000000000013,5,8,15,2,6,10,30,2,4,0,18,7,LH,0.08666666666666667,0.1950000000000001,0.5323333333333333,0.8550000000000006
5,10,20,1,5,0.24000000000000007,2,3,45,67,61,43,0.5600000000000002,0.46000000000000024,0.01,0.01,3,2,1,1,4,2,1,1,5,0,18,7,LH,0.14000000000000004,0.23000000000000012,0.01,0.01
5,11,21,1,2,0.25000000000000006,2,4,25,29,60,74,0.8800000000000003,0.07,0.01,0.24000000000000007,4,1,1,2,6,1,1,2,4,0,17,7,LH,0.14666666666666672,0.07,0.01,0.12000000000000004
5,11,22,1,5,0.21000000000000005,1,2,89,90,120,40,0.6200000000000002,0.3900000000000002,0.02,0.01,2,2,1,1,3,2,1,1,5,0,13,7,LH,0.20666666666666672,0.1950000000000001,0.02,0.01
5,12,23,1,6,0.2700000000000001,4,5,11,4,76,117,0.6000000000000002,0.09,0.9300000000000006,0.01,6,1,3,1,7,1,3,1,6,0,17,7,LH,0.08571428571428572,0.09,0.31000000000000016,0.01
5,12,24,1,3,0.25000000000000006,2,4,29,34,56,102,0.4900000000000001,0.15,0.12999999999999998,0.08,4,1,1,1,6,1,1,1,5,0,16,7,LH,0.08166666666666668,0.15,0.12999999999999998,0.08
5,13,25,1,4,0.19000000000000003,5,6,85,99,87,89,0.5600000000000002,0.09999999999999999,0.24000000000000007,2.7299999999999858,6,1,2,3,7,1,2,4,2,0.5,11,7,LH,0.08000000000000003,0.09999999999999999,0.12000000000000002,0.6825000000000004
5,13,26,1,8,0.45000000000000023,8,8,80,7,55,81,1.1000000000000005,3.419999999999971,0.6200000000000003,0.01,11,8,3,1,11,9,3,1,2,0,16,7,LH,0.10000000000000002,0.38000000000000017,0.20666666666666675,0.01
5,14,27,1,10,0.17,2,3,95,94,48,42,0.4700000000000001,0.060000000000000005,0.10999999999999999,0.09,4,1,1,1,6,1,1,1,3,0,16,7,LH,0.07833333333333334,0.060000000000000005,0.10999999999999999,0.09
5,14,28,1,9,0.4200000000000002,14,14,10,36,1,106,1.9100000000000013,0.8600000000000005,0.01,1.9200000000000015,18,3,1,4,22,4,1,4,4,0,19,7,LH,0.08681818181818185,0.21500000000000008,0.01,0.48000000000000026
5,15,29,1,2,0.23000000000000007,6,6,54,60,96,88,0.4500000000000001,3.5399999999999685,1.5300000000000011,0.02,7,5,2,1,7,5,2,1,4,0,14,7,LH,0.0642857142857143,0.7080000000000005,0.7650000000000006,0.02
5,15,30,1,6,0.2900000000000001,2,3,5,2,30,103,0.6000000000000002,8.21999999999987,0.01,0.01,4,11,1,1,5,18,1,1,6,0,19,7,LH,0.12000000000000001,0.4566666666666669,0.01,0.01
5,16,31,1,5,0.21000000000000005,2,3,86,42,45,120,0.6000000000000002,0.05,0.8800000000000006,0.03,4,1,2,1,6,1,2,1,5,0,15,7,LH,0.1,0.05,0.4400000000000003,0.03
5,16,32,1,2,0.10999999999999999,2,2,16,101,75,98,2.909999999999984,0.01,0.01,0.01,6,1,1,1,7,1,1,1,4,0,13,7,LH,0.4157142857142859,0.01,0.01,0.01
5,17,33,1,4,0.17,1,2,75,101,74,17,0.8300000000000004,0.02,0.17,0.01,3,1,1,1,5,1,1,1,2,0,14,7,LH,0.16600000000000004,0.02,0.17,0.01
5,17,34,1,2,0.4300000000000002,16,18,54,34,26,9,0.7400000000000003,2.479999999999991,0.6600000000000004,2.949999999999981,17,2,2,4,19,2,2,5,4,0,20,7,LH,0.03894736842105264,1.2399999999999958,0.3300000000000002,0.5900000000000004
5,18,35,1,7,0.2700000000000001,2,3,99,54,93,17,0.6100000000000002,0.15,0.21000000000000005,0.02,3,1,2,1,4,1,2,1,6,0,15,7,LH,0.15250000000000002,0.15,0.10500000000000001,0.02
5,18,36,1,9,0.17,2,3,12,9,46,69,0.9200000000000005,0.02,0.01,0.02,5,1,1,2,6,1,1,2,4,0,21,7,LH,0.15333333333333338,0.02,0.01,0.01
5,19,37,1,2,0.3200000000000001,2,4,60,12,94,52,0.6100000000000002,0.5300000000000002,1.5100000000000011,0.01,3,1,2,1,5,1,2,1,4,0,17,7,LH,0.12200000000000003,0.5300000000000002,0.7550000000000006,0.01
5,19,38,1,8,0.38000000000000017,2,3,18,83,112,71,0.7400000000000003,0.11999999999999998,0.08,0.05,3,1,1,1,4,1,1,1,2,0,15,7,LH,0.18500000000000005,0.11999999999999998,0.08,0.05
5,20,39,1,5,0.19000000000000003,2,3,40,38,99,62,0.5200000000000001,0.08,0.7600000000000005,0.01,4,1,2,1,5,1,2,1,5,0,16,7,LH,0.10400000000000001,0.08,0.3800000000000002,0.01
5,20,40,1,8,0.18000000000000002,2,4,3,115,87,89,0.5900000000000002,0.07,0.03,0.13999999999999999,4,1,1,2,6,1,1,2,2,0,14,7,LH,0.09833333333333334,0.07,0.03,0.06999999999999999
5,21,41,1,7,0.23000000000000007,9,9,13,20,15,36,0.5700000000000002,0.11999999999999998,3.749999999999964,0.9000000000000006,10,1,4,4,10,1,4,4,6,0.5,23,7,LH,0.057000000000000016,0.11999999999999998,0.9374999999999922,0.22500000000000006
5,21,42,1,6,0.17,2,3,1,113,38,56,0.4000000000000001,0.3200000000000001,0.03,0.03,3,2,1,1,4,3,1,1,6,0,17,7,LH,0.10000000000000002,0.10666666666666667,0.03,0.03
5,22,43,1,8,0.11999999999999998,3,3,14,50,92,35,11.379999999999804,0.01,0.01,0.12999999999999998,18,1,1,1,26,1,1,1,2,0,18,7,LH,0.43769230769230777,0.01,0.01,0.12999999999999998
5,22,44,1,5,0.25000000000000006,4,5,48,38,71,74,0.5200000000000001,0.09999999999999999,1.270000000000001,0.02,6,1,3,1,8,1,3,1,5,0,17,7,LH,0.065,0.09999999999999999,0.42333333333333356,0.02
6,1,1,0,9,0.2800000000000001,2,6,62,22,109,41,0.8300000000000003,0.16,0.07,0.24000000000000007,4,1,1,2,10,1,1,2,4,0,17,7,LH,0.083,0.16,0.07,0.12
6,1,2,0,10,0.3000000000000001,2,4,95,93,50,86,0.6800000000000003,0.3900000000000002,0.18000000000000002,0.01,4,3,2,1,8,4,2,1,3,0.5,22,7,LH,0.08499999999999999,0.0975,0.09,0.01
6,2,3,0,5,0.25000000000000006,2,3,46,70,72,17,0.6600000000000003,0.3100000000000001,0.12999999999999998,0.34000000000000014,4,1,1,4,9,1,2,7,5,0,19,7,LH,0.07333333333333333,0.3100000000000001,0.065,0.04857142857142858
6,2,4,0,3,0.22000000000000006,2,6,26,31,32,115,0.6900000000000003,0.07,0.16,0.24000000000000007,4,1,2,3,11,1,3,4,5,0.5,32,7,LH,0.06272727272727273,0.07,0.05333333333333333,0.06
6,3,5,0,4,0.23000000000000007,3,5,104,20,87,35,0.7200000000000003,0.24000000000000007,0.48000000000000026,0.04,6,2,3,1,9,2,4,1,2,0,16,7,LH,0.08,0.12000000000000001,0.12000000000000001,0.04
6,3,6,0,8,0.25000000000000006,2,5,119,38,114,117,0.6200000000000002,0.35000000000000014,0.48000000000000026,0.04,4,2,5,2,9,3,5,2,2,0.5,17,7,LH,0.06888888888888889,0.1166666666666667,0.09600000000000002,0.02
6,4,7,0,3,0.07,2,2,13,118,25,112,3.819999999999964,0.02,0.01,0.01,16,1,1,1,28,1,1,1,5,0,15,7,LH,0.13642857142857145,0.02,0.01,0.01
6,4,8,0,2,0.26000000000000006,2,4,95,56,59,88,0.7800000000000002,0.05,0.11999999999999998,0.22000000000000006,4,1,1,2,9,1,1,3,4,0,14,7,LH,0.08666666666666667,0.05,0.11999999999999998,0.07333333333333333
6,5,9,0,1,0.25000000000000006,2,5,77,43,80,98,0.6600000000000003,0.38000000000000017,0.3000000000000001,0.21000000000000005,4,3,2,1,7,3,7,1,3,0,13,7,LH,0.09428571428571429,0.12666666666666668,0.04285714285714286,0.21000000000000005
6,5,10,0,3,0.17,2,3,16,21,24,31,4.559999999999951,0.05,0.01,0.01,16,2,1,1,35,2,1,1,5,0.5,41,7,LH,0.1302857142857143,0.025,0.01,0.01
6,6,11,0,7,0.3100000000000001,3,6,19,15,115,49,0.8000000000000004,0.2700000000000001,0.16,0.03,5,2,2,1,11,3,2,1,6,0,18,7,LH,0.07272727272727274,0.09000000000000001,0.07999999999999999,0.03
6,6,12,0,9,0.20000000000000004,2,3,69,81,68,35,0.4800000000000001,0.5300000000000002,0.05,0.03,4,3,2,1,5,4,2,1,4,0,16,7,LH,0.09600000000000002,0.13250000000000003,0.025,0.03
6,7,13,1,6,0.2800000000000001,2,5,2,7,6,26,0.8700000000000003,0.01,0.16,0.46000000000000024,5,1,2,2,13,1,3,3,6,0.5,23,7,LH,0.06692307692307692,0.01,0.05333333333333334,0.15333333333333338
6,7,14,1,8,0.35000000000000014,4,5,22,115,119,41,1.4300000000000008,0.01,0.01,0.20000000000000004,8,1,1,2,20,1,1,3,2,0,15,7,LH,0.07150000000000001,0.01,0.01,0.06666666666666667
6,8,15,1,1,0.35000000000000014,2,8,1,6,97,108,1.0100000000000005,3.46999999999997,0.01,0.02,4,13,1,2,11,21,1,2,3,0,16,7,LH,0.09181818181818183,0.1652380952380953,0.01,0.01
6,8,16,1,5,0.3200000000000001,2,6,115,40,89,44,0.9800000000000004,0.02,0.25000000000000006,0.02,4,1,3,1,11,1,5,1,5,0,15,7,LH,0.0890909090909091,0.02,0.05,0.02
6,9,17,1,10,0.5500000000000003,7,9,90,98,93,95,2.490000000000002,0.4300000000000002,0.01,0.01,13,5,1,1,24,6,1,1,3,0.5,11,7,LH,0.10375000000000002,0.07166666666666667,0.01,0.01
6,9,18,1,3,0.09999999999999999,2,2,2,84,69,79,5.539999999999928,0.05,0.02,0.01,18,1,1,1,50,1,1,1,5,0,16,7,LH,0.11080000000000001,0.05,0.02,0.01
6,10,19,1,9,0.24000000000000007,6,6,99,1,107,101,1.680000000000001,0.3300000000000001,0.10999999999999999,1.330000000000001,10,4,1,7,22,5,1,9,4,0.5,12,7,LH,0.07636363636363637,0.066,0.10999999999999999,0.1477777777777778
6,10,20,1,3,0.20000000000000004,2,3,27,88,111,113,0.5000000000000001,0.3900000000000002,0.10999999999999999,0.09999999999999999,4,2,2,2,5,3,2,4,5,0,12,7,LH,0.1,0.13,0.05500000000000001,0.025
6,11,21,1,4,0.47000000000000025,3,6,107,36,77,79,0.8700000000000004,0.22000000000000006,0.2900000000000001,0.10999999999999999,6,3,4,2,10,3,6,2,2,0,13,7,LH,0.08700000000000001,0.07333333333333333,0.04833333333333334,0.05499999999999999
6,11,22,1,5,0.2800000000000001,6,8,90,43,37,38,0.8300000000000003,0.02,0.07,0.7400000000000004,8,1,2,6,16,1,2,9,5,0.5,18,7,LH,0.051875,0.02,0.035,0.08222222222222222
6,12,23,1,6,0.21000000000000005,2,4,11,10,48,2,0.5800000000000002,0.4400000000000002,0.21000000000000005,0.02,4,2,3,1,6,3,3,1,6,0.5,23,7,LH,0.09666666666666668,0.14666666666666672,0.06999999999999999,0.02
6,12,24,1,1,0.35000000000000014,2,5,29,19,80,79,1.1700000000000006,0.16,0.02,0.02,4,2,1,1,11,3,1,1,3,0,17,7,LH,0.10636363636363638,0.05333333333333333,0.02,0.02
6,13,25,1,2,0.2800000000000001,2,3,52,57,23,50,0.8600000000000003,0.02,0.16,0.060000000000000005,4,1,2,1,8,1,2,1,4,0.5,18,7,LH,0.10750000000000003,0.02,0.08,0.060000000000000005
6,13,26,1,1,0.2800000000000001,2,3,79,8,101,74,0.8600000000000003,0.10999999999999999,0.24000000000000007,0.02,4,1,2,1,7,1,5,1,3,0,14,7,LH,0.12285714285714289,0.10999999999999999,0.048,0.02
6,14,27,1,3,0.20000000000000004,2,3,26,29,36,91,0.8000000000000004,0.060000000000000005,0.3900000000000002,0.12999999999999998,5,1,3,1,6,1,3,1,5,0.5,18,7,LH,0.13333333333333336,0.060000000000000005,0.13,0.12999999999999998
6,14,28,1,5,0.19000000000000003,2,3,44,59,108,105,0.7800000000000004,0.03,0.18000000000000002,0.05,5,1,2,1,7,1,2,1,5,0,13,7,LH,0.11142857142857145,0.03,0.09,0.05
6,15,29,1,8,0.21000000000000005,2,4,109,92,38,114,0.7400000000000003,0.7300000000000004,0.03,0.01,5,6,2,1,8,8,2,1,2,0,12,7,LH,0.0925,0.09125000000000001,0.015,0.01
6,15,30,1,1,0.3300000000000001,2,5,81,13,31,106,0.8700000000000003,1.2500000000000009,0.01,0.01,7,5,1,1,15,10,1,1,3,0,16,7,LH,0.058,0.12500000000000003,0.01,0.01
6,16,31,1,5,0.35000000000000014,2,8,44,19,58,15,0.7100000000000003,0.08,0.8000000000000005,0.060000000000000005,4,1,5,2,12,1,7,2,5,0,21,7,LH,0.059166666666666666,0.08,0.11428571428571428,0.030000000000000002
6,16,32,1,3,0.26000000000000006,3,5,27,31,103,84,0.7200000000000003,0.060000000000000005,0.18000000000000002,0.07,5,1,1,1,10,1,1,1,5,0,15,7,LH,0.072,0.060000000000000005,0.18000000000000002,0.07
6,17,33,1,2,0.07,2,2,1,30,32,82,12.319999999999784,0.02,0.01,0.01,20,1,1,1,99,1,1,1,4,0,19,7,LH,0.12444444444444447,0.02,0.01,0.01
6,17,34,1,9,0.34000000000000014,2,6,63,119,109,95,0.7500000000000003,0.26000000000000006,0.05,0.09,4,2,1,2,12,3,1,2,4,0,11,7,LH,0.06249999999999999,0.08666666666666667,0.05,0.045000000000000005
6,18,35,1,7,0.21000000000000005,2,3,21,22,20,73,0.6000000000000002,0.17,3.369999999999972,0.18000000000000002,4,2,13,2,7,3,26,2,6,0.5,21,7,LH,0.08571428571428572,0.056666666666666664,0.12961538461538463,0.09
6,18,36,1,4,0.46000000000000024,3,4,104,69,25,87,0.9600000000000004,0.25000000000000006,0.09,0.38000000000000017,6,1,1,2,8,1,1,2,2,0,14,7,LH,0.12000000000000002,0.25000000000000006,0.09,0.19000000000000006
6,19,37,1,9,0.2900000000000001,3,6,66,15,71,21,0.6900000000000003,0.3300000000000001,0.21000000000000005,0.05,5,2,2,1,8,2,5,1,4,0,20,7,LH,0.08625000000000001,0.16500000000000004,0.041999999999999996,0.05
6,19,38,1,8,0.12999999999999998,2,3,1,118,54,55,6.469999999999909,0.01,0.01,0.01,19,1,1,1,48,1,1,1,2,0,16,7,LH,0.1347916666666667,0.01,0.01,0.01
6,20,39,1,3,0.35000000000000014,2,6,78,34,27,74,0.7600000000000003,0.17,0.15,0.11999999999999998,4,2,1,1,13,3,1,1,5,0,16,7,LH,0.05846153846153846,0.056666666666666664,0.15,0.11999999999999998
6,20,40,1,10,0.16,2,3,88,93,85,117,0.7600000000000003,0.03,0.15,0.09,5,1,2,2,8,1,3,2,3,0.5,11,7,LH,0.09500000000000001,0.03,0.049999999999999996,0.045
6,21,41,1,10,0.37000000000000016,7,8,89,36,93,25,0.9200000000000004,0.3200000000000001,0.17,0.02,12,5,2,1,17,6,3,1,3,0,16,7,LH,0.05411764705882353,0.05333333333333333,0.056666666666666664,0.02
6,21,42,1,1,0.2800000000000001,2,6,73,77,68,83,0.8200000000000003,0.09,0.10999999999999999,0.35000000000000014,4,2,2,3,8,3,3,4,3,0.5,13,7,LH,0.10250000000000002,0.030000000000000002,0.03666666666666667,0.08750000000000001
6,22,43,1,1,0.11999999999999998,2,2,15,73,61,79,7.7699999999998814,0.01,0.01,0.01,20,1,1,1,60,1,1,1,3,0,16,7,LH,0.12950000000000003,0.01,0.01,0.01
6,22,44,1,5,0.20000000000000004,2,3,42,55,45,91,0.9400000000000005,0.13999999999999999,0.04,0.04,5,2,1,1,7,2,1,1,5,0,17,7,LH,0.1342857142857143,0.06999999999999999,0.04,0.04
7,1,1,0,9,0.15,2,4,63,62,116,118,0.39000000000000007,0.08,0.12999999999999998,0.08,3,1,1,1,5,1,1,1,4,0,12,7,LH,0.07800000000000001,0.08,0.12999999999999998,0.08
7,1,2,0,7,0.16,2,3,17,14,29,53,0.45000000000000007,8.779999999999857,0.02,0.02,4,10,1,1,5,13,1,1,6,0,21,7,LH,0.09,0.6753846153846158,0.02,0.02
7,2,3,0,10,0.13999999999999999,2,3,17,93,85,68,0.5700000000000002,0.03,0.04,0.24000000000000007,4,1,1,1,6,1,1,1,3,0,16,7,LH,0.09500000000000003,0.03,0.04,0.24000000000000007
7,2,4,0,5,0.20000000000000004,6,6,37,48,44,7,0.4400000000000001,0.060000000000000005,0.7300000000000004,0.01,8,1,2,1,8,1,2,1,5,0.5,36,7,LH,0.05499999999999999,0.060000000000000005,0.3650000000000002,0.01
7,3,5,0,3,0.12999999999999998,2,3,36,27,113,35,0.39,0.09,0.18000000000000002,0.03,3,1,1,1,4,1,1,1,5,0.5,32,7,LH,0.09750000000000002,0.09,0.18000000000000002,0.03
7,3,6,0,9,0.12999999999999998,2,3,83,80,77,70,0.6800000000000003,0.35000000000000014,0.3100000000000001,0.01,3,2,2,1,4,2,2,1,4,0.5,22,7,LH,0.17000000000000007,0.17500000000000002,0.15500000000000005,0.01
7,4,7,0,9,0.13999999999999999,2,3,110,66,82,15,0.39,0.060000000000000005,0.20000000000000004,0.04,3,1,1,1,4,1,1,1,4,0,15,7,LH,0.09750000000000002,0.060000000000000005,0.20000000000000004,0.04
7,4,8,0,10,0.09999999999999999,1,2,85,4,9,35,0.31000000000000005,0.3300000000000001,0.5600000000000003,0.01,3,2,2,1,4,3,2,1,3,0,20,7,LH,0.0775,0.11,0.28000000000000014,0.01
7,5,9,0,4,0.09999999999999999,2,3,14,83,18,100,0.8100000000000004,0.02,0.03,0.01,3,1,1,1,4,1,1,1,2,0,17,7,LH,0.2025000000000001,0.02,0.03,0.01
7,5,10,0,10,0.09,2,2,1,33,87,58,25.780000000001216,0.01,0.01,0.01,15,1,1,1,28,1,1,1,3,0,18,7,LH,0.9207142857142833,0.01,0.01,0.01
7,6,11,0,6,0.21000000000000005,4,4,56,3,9,27,7.3799999999998915,1.6900000000000013,0.02,3.789999999999963,15,3,1,2,18,3,1,2,6,0,21,7,LH,0.4099999999999993,0.5633333333333337,0.02,1.8949999999999816
7,6,12,0,5,0.13999999999999999,2,3,42,63,114,75,0.34,0.19000000000000003,0.17,0.12999999999999998,4,1,1,1,5,1,1,1,5,0,14,7,LH,0.068,0.19000000000000003,0.17,0.12999999999999998
7,7,13,1,8,0.12999999999999998,2,3,70,112,118,61,0.39,0.08,0.07,0.08,3,1,1,1,4,1,1,1,2,0,12,7,LH,0.09750000000000002,0.08,0.07,0.08
7,7,14,1,4,0.13999999999999999,2,3,3,103,104,80,0.42000000000000004,0.08,0.060000000000000005,0.05,3,1,1,1,4,1,1,1,2,0,13,7,LH,0.10500000000000002,0.08,0.060000000000000005,0.05
7,8,15,1,8,0.16,2,3,31,6,2,35,1.0700000000000005,0.01,0.02,0.09999999999999999,4,1,1,2,5,1,1,3,2,0,22,7,LH,0.2140000000000001,0.01,0.02,0.03333333333333333
7,8,16,1,10,0.3300000000000001,10,10,85,90,91,16,0.5000000000000001,0.10999999999999999,0.05,0.11999999999999998,11,1,1,1,11,1,1,1,3,0.5,15,7,LH,0.045454545454545456,0.10999999999999999,0.05,0.11999999999999998
7,9,17,1,4,0.15,2,3,107,101,11,44,0.38000000000000006,0.09,0.34000000000000014,0.01,3,1,2,1,4,1,2,1,2,0,15,7,LH,0.09500000000000001,0.09,0.17000000000000004,0.01
7,9,18,1,9,0.26000000000000006,3,4,25,71,29,23,0.6000000000000002,0.16,0.02,0.08,4,2,1,1,5,2,1,1,4,0,20,7,LH,0.12000000000000004,0.08,0.02,0.08
7,10,19,1,4,0.13999999999999999,2,4,97,98,60,22,0.5100000000000001,0.04,0.5100000000000002,0.04,4,1,2,1,6,1,2,1,2,0,14,7,LH,0.08500000000000002,0.04,0.25500000000000006,0.04
7,10,20,1,8,0.17,2,3,115,86,61,7,0.35000000000000003,0.7800000000000005,0.45000000000000023,0.24000000000000007,4,2,1,3,5,2,1,3,2,0,15,7,LH,0.07,0.39000000000000024,0.45000000000000023,0.08000000000000002
7,11,21,1,8,0.16,2,3,118,111,92,1,0.34,0.12999999999999998,0.6300000000000003,0.3000000000000001,4,1,2,1,5,1,2,1,2,0,13,7,LH,0.068,0.12999999999999998,0.31500000000000017,0.3000000000000001
7,11,22,1,9,0.12999999999999998,2,4,77,39,41,40,1.2100000000000006,0.01,0.5700000000000003,0.02,4,1,3,1,6,1,3,1,4,0.5,18,7,LH,0.20166666666666677,0.01,0.19000000000000006,0.02
7,12,23,1,7,0.9300000000000006,3,5,55,108,14,104,1.630000000000001,0.6800000000000004,0.01,0.03,4,4,1,1,6,4,1,1,6,0,14,7,LH,0.2716666666666668,0.17000000000000007,0.01,0.03
7,12,24,1,8,0.11999999999999998,2,3,10,114,43,12,0.9400000000000005,0.01,0.03,0.01,4,1,1,1,5,1,1,1,2,0,19,7,LH,0.1880000000000001,0.01,0.03,0.01
7,13,25,1,6,0.24000000000000007,7,7,9,8,108,86,0.38000000000000006,0.12999999999999998,0.5800000000000003,0.01,8,1,2,1,8,1,2,1,6,0,17,7,LH,0.047499999999999994,0.12999999999999998,0.29000000000000015,0.01
7,13,26,1,7,0.16,2,3,115,19,24,120,0.4800000000000001,0.05,0.08,0.6400000000000003,3,1,1,2,4,1,1,2,6,0,16,7,LH,0.12000000000000002,0.05,0.08,0.3200000000000001
7,14,27,1,3,0.13999999999999999,2,3,111,35,112,75,0.38000000000000006,0.07,0.36000000000000015,0.05,3,1,2,1,4,1,3,1,5,0,12,7,LH,0.09500000000000001,0.07,0.12000000000000002,0.05
7,14,28,1,10,0.16,2,4,95,85,101,98,0.35000000000000003,0.12999999999999998,0.08,0.060000000000000005,3,1,1,1,5,1,1,1,3,0,10,7,LH,0.07,0.12999999999999998,0.08,0.060000000000000005
7,15,29,1,6,0.3100000000000001,8,8,4,55,116,118,0.5100000000000001,5.329999999999931,0.6200000000000003,13.919999999999748,9,7,3,9,9,8,3,16,6,0,14,7,LH,0.05666666666666667,0.6662500000000005,0.20666666666666672,0.8699999999999986
7,15,30,1,4,1.0100000000000007,11,16,106,45,16,62,1.2900000000000007,0.15,0.12999999999999998,0.03,12,1,1,1,17,1,1,1,2,0,17,7,LH,0.07588235294117648,0.15,0.12999999999999998,0.03
7,16,31,1,8,0.4200000000000002,2,3,4,53,48,49,2.739999999999995,0.01,0.01,0.01,4,1,1,1,5,1,1,1,2,0,19,7,LH,0.5479999999999989,0.01,0.01,0.01
7,16,32,1,10,0.11999999999999998,2,3,95,99,106,108,0.49000000000000016,0.09,0.12999999999999998,0.07,4,1,1,1,5,1,1,1,3,0.5,9,7,LH,0.09800000000000003,0.09,0.12999999999999998,0.07
7,17,33,1,9,0.13999999999999999,2,4,69,68,62,112,0.35000000000000003,0.09,2.109999999999999,0.01,3,1,5,1,5,1,5,1,4,0.5,14,7,LH,0.07,0.09,0.4220000000000002,0.01
7,17,34,1,10,0.19000000000000003,2,3,19,93,91,54,0.6000000000000002,0.01,0.03,0.05,3,1,1,1,4,1,1,1,3,0,16,7,LH,0.15000000000000005,0.01,0.03,0.05
7,18,35,1,5,21.36000000000054,12,39,6,75,37,50,21.37000000000054,2.9799999999999804,0.09999999999999999,0.01,13,5,1,1,40,5,1,1,5,0,18,7,LH,0.5342499999999987,0.5960000000000004,0.09999999999999999,0.01
7,18,36,1,10,0.10999999999999999,2,3,72,28,92,29,0.5400000000000003,0.07,0.7900000000000005,2.949999999999981,3,1,2,6,4,1,2,6,3,0,17,7,LH,0.13500000000000006,0.07,0.39500000000000024,0.491666666666667
7,19,37,1,3,3.289999999999974,9,12,34,73,15,78,3.599999999999974,0.01,0.8600000000000005,0.01,11,1,2,1,14,1,2,1,5,0,17,7,LH,0.2571428571428573,0.01,0.43000000000000027,0.01
7,19,38,1,4,2.339999999999994,4,4,41,93,104,48,3.9699999999999953,0.9400000000000006,0.8200000000000005,0.01,8,2,2,1,8,3,2,1,2,0,15,7,LH,0.49624999999999947,0.3133333333333335,0.41000000000000025,0.01
7,20,39,1,1,0.8900000000000006,3,3,9,80,103,101,1.0600000000000005,0.09,0.09999999999999999,0.05,4,1,1,1,4,1,1,1,3,0,13,7,LH,0.2650000000000001,0.09,0.09999999999999999,0.05
7,20,40,1,10,0.26000000000000006,7,7,85,90,19,94,0.43000000000000005,0.12999999999999998,0.05,0.09999999999999999,8,1,1,1,8,1,1,1,3,0.5,15,7,LH,0.053750000000000006,0.12999999999999998,0.05,0.09999999999999999
7,21,41,1,5,0.24000000000000007,6,6,42,47,63,92,0.7100000000000003,0.05,0.6300000000000003,0.01,8,1,3,1,9,1,3,1,5,0,17,7,LH,0.0788888888888889,0.05,0.2100000000000001,0.01
7,21,42,1,4,0.09,2,3,97,103,107,20,0.29000000000000004,0.10999999999999999,0.07,1.0700000000000007,3,1,1,3,4,1,1,3,2,0.5,12,7,LH,0.07250000000000001,0.10999999999999999,0.07,0.35666666666666685
7,22,43,1,6,0.19000000000000003,6,7,9,10,54,82,0.30000000000000004,0.09999999999999999,1.1700000000000008,4.469999999999949,7,1,4,4,8,1,5,4,6,0,19,7,LH,0.0375,0.09999999999999999,0.23400000000000007,1.1174999999999926
7,22,44,1,5,0.15,2,3,46,88,38,67,0.34,0.35000000000000014,0.03,1.0400000000000007,3,2,1,2,4,2,1,2,5,0,17,7,LH,0.085,0.17500000000000004,0.03,0.5200000000000004
8,1,1,0,10,0.19000000000000003,2,3,89,96,105,99,0.4200000000000001,0.03,0.24000000000000007,0.060000000000000005,4,1,2,1,6,1,4,1,3,0,10,7,LH,0.07,0.03,0.06,0.060000000000000005
8,1,2,0,2,0.21000000000000005,2,4,59,58,115,1,0.39000000000000007,0.060000000000000005,0.16,0.26000000000000006,4,1,2,3,7,1,2,3,4,0,16,7,LH,0.055714285714285716,0.060000000000000005,0.07999999999999999,0.08666666666666666
8,2,3,0,6,0.25000000000000006,2,6,7,4,118,44,0.5400000000000001,1.2500000000000009,0.01,0.01,4,8,1,1,8,13,1,1,6,0,19,7,LH,0.0675,0.09615384615384616,0.01,0.01
8,2,4,0,9,0.19000000000000003,2,3,66,15,23,104,0.36000000000000004,0.17,0.08,0.10999999999999999,4,2,2,2,5,2,2,3,4,0,18,7,LH,0.072,0.08499999999999999,0.04,0.03666666666666667
8,3,5,0,3,0.19000000000000003,2,3,27,35,18,57,0.4200000000000001,0.11999999999999998,0.060000000000000005,0.07,6,2,1,2,9,3,1,2,5,0,20,7,LH,0.04666666666666667,0.04,0.060000000000000005,0.035
8,3,6,0,5,0.2700000000000001,2,6,44,61,1,85,0.5800000000000002,0.11999999999999998,0.13999999999999999,0.36000000000000015,4,2,2,2,10,2,5,3,5,0,18,7,LH,0.058,0.060000000000000005,0.028,0.12
8,4,7,0,3,0.24000000000000007,3,5,86,29,15,33,0.48000000000000015,0.04,0.19000000000000003,0.20000000000000004,5,1,2,3,8,1,2,3,5,0,19,7,LH,0.06,0.04,0.095,0.06666666666666668
8,4,8,0,2,0.20000000000000004,2,3,54,100,58,59,0.4100000000000001,0.6100000000000003,0.22000000000000006,0.09,4,4,2,2,7,7,2,2,4,0.5,26,7,LH,0.05857142857142857,0.08714285714285715,0.11000000000000003,0.045
8,5,9,0,4,0.18000000000000002,2,4,101,13,28,35,0.4600000000000001,0.09999999999999999,0.060000000000000005,0.23000000000000007,5,1,1,3,8,1,1,3,2,0,18,7,LH,0.0575,0.09999999999999999,0.060000000000000005,0.07666666666666666
8,5,10,0,5,0.24000000000000007,3,10,37,48,111,96,0.5100000000000001,0.060000000000000005,0.11999999999999998,0.04,5,2,1,1,13,3,1,1,5,0,15,7,LH,0.039230769230769236,0.02,0.11999999999999998,0.04
8,6,11,0,8,0.21000000000000005,2,5,111,66,94,4,0.5200000000000001,0.08,0.08,0.07,4,1,1,2,9,1,1,2,2,0,15,7,LH,0.05777777777777778,0.08,0.08,0.035
8,6,12,0,7,0.2800000000000001,2,6,106,52,44,83,0.8200000000000003,0.17,0.01,0.3300000000000001,5,2,1,1,11,2,1,1,6,0,14,7,LH,0.07454545454545455,0.085,0.01,0.3300000000000001
8,7,13,1,6,0.23000000000000007,3,4,6,108,48,4,0.39000000000000007,0.18000000000000002,0.09,0.5300000000000002,5,2,1,5,6,2,1,6,6,0,19,7,LH,0.065,0.09,0.09,0.08833333333333335
8,7,14,1,1,0.19000000000000003,2,4,75,74,81,32,0.45000000000000007,0.10999999999999999,0.01,0.08,4,2,1,1,11,4,1,1,3,0.5,14,7,LH,0.04090909090909091,0.027500000000000004,0.01,0.08
8,8,15,1,8,0.17,2,3,119,114,115,36,0.42000000000000004,0.05,0.07,0.09,4,1,2,1,6,1,2,1,2,0.5,11,7,LH,0.07,0.05,0.035,0.09
8,8,16,1,10,0.13999999999999999,3,5,17,91,107,85,3.049999999999982,0.01,0.01,0.01,16,1,1,1,34,1,1,1,3,0,14,7,LH,0.08970588235294119,0.01,0.01,0.01
8,9,17,1,6,0.18000000000000002,2,3,12,58,34,29,0.45000000000000007,0.04,0.15,0.2900000000000001,4,1,2,4,7,1,5,4,6,0,20,7,LH,0.06428571428571428,0.04,0.03,0.07250000000000001
8,9,18,1,4,0.25000000000000006,3,5,69,108,70,40,0.5800000000000002,0.03,0.07,0.08,5,1,1,2,8,1,1,2,2,0,15,7,LH,0.0725,0.03,0.07,0.04
8,10,19,1,8,0.18000000000000002,3,5,120,109,46,45,0.4800000000000001,0.02,0.16,0.02,6,1,2,1,11,1,4,1,2,0,14,7,LH,0.04363636363636364,0.02,0.04,0.02
8,10,20,1,4,0.10999999999999999,3,3,4,7,78,51,2.3399999999999963,0.35000000000000014,0.10999999999999999,0.01,14,5,1,1,26,5,1,1,2,0,19,7,LH,0.09000000000000001,0.07,0.10999999999999999,0.01
8,11,21,1,3,0.22000000000000006,2,3,26,99,89,66,0.4500000000000001,0.25000000000000006,0.13999999999999999,0.2900000000000001,5,4,2,2,7,5,2,2,5,0,14,7,LH,0.06428571428571428,0.05,0.06999999999999999,0.14500000000000005
8,11,22,1,8,0.3300000000000001,4,6,118,24,44,38,0.6600000000000003,1.5500000000000012,0.01,0.12999999999999998,6,10,1,2,10,14,1,2,2,0,18,7,LH,0.06599999999999999,0.11071428571428575,0.01,0.06499999999999999
8,12,23,1,10,0.3200000000000001,2,5,85,119,46,70,0.8100000000000004,0.01,0.01,0.05,5,1,1,1,9,1,1,1,3,0,14,7,LH,0.09000000000000001,0.01,0.01,0.05
8,12,24,1,1,0.3100000000000001,4,8,83,34,82,52,0.5600000000000002,0.07,0.07,0.04,6,1,1,1,14,1,1,1,3,0,15,7,LH,0.04,0.07,0.07,0.04
8,13,25,1,3,0.20000000000000004,2,3,36,52,33,81,0.37000000000000005,0.26000000000000006,0.04,0.34000000000000014,4,2,1,3,7,3,1,3,5,0,17,7,LH,0.05285714285714286,0.08666666666666667,0.04,0.11333333333333336
8,13,26,1,5,0.2800000000000001,3,7,46,43,95,115,0.5500000000000002,0.07,0.03,0.04,5,2,1,1,10,3,1,1,5,0,15,7,LH,0.05500000000000001,0.02333333333333333,0.03,0.04
8,14,27,1,7,0.16,2,3,18,22,15,16,0.33,0.060000000000000005,0.7400000000000004,2.769999999999985,4,1,4,15,5,1,7,25,6,1,72,7,LH,0.066,0.060000000000000005,0.10571428571428572,0.11080000000000002
8,14,28,1,5,0.21000000000000005,2,3,37,47,87,2,0.4200000000000001,0.07,0.09,0.13999999999999999,4,1,2,2,6,1,4,2,5,0,19,7,LH,0.06999999999999999,0.07,0.0225,0.06999999999999999
8,15,29,1,1,0.20000000000000004,2,3,82,63,78,73,0.32,0.19000000000000003,0.17,0.05,4,1,3,2,5,1,3,2,3,0.5,13,7,LH,0.06399999999999999,0.19000000000000003,0.05666666666666667,0.025
8,15,30,1,7,0.17,2,4,16,23,13,37,0.44000000000000006,0.12999999999999998,1.350000000000001,1.5400000000000011,5,2,8,11,8,2,13,18,6,0.5,23,7,LH,0.055,0.065,0.10384615384615387,0.08555555555555557
8,16,31,1,6,0.18000000000000002,2,3,8,34,31,73,0.26,0.36000000000000015,0.05,0.6900000000000004,4,2,1,3,5,6,1,5,6,0,19,7,LH,0.052000000000000005,0.06,0.05,0.138
8,16,32,1,7,0.21000000000000005,2,4,17,15,89,44,0.35000000000000003,0.8200000000000005,0.01,0.01,4,6,1,1,6,8,1,1,6,0,20,7,LH,0.058333333333333334,0.10250000000000002,0.01,0.01
8,17,33,1,4,0.19000000000000003,2,3,100,23,81,27,0.5100000000000001,0.08,0.10999999999999999,0.16,4,2,2,1,5,3,3,1,2,0,16,7,LH,0.10200000000000002,0.02666666666666667,0.03666666666666667,0.16
8,17,34,1,9,0.19000000000000003,2,4,72,90,48,96,0.4300000000000001,0.3000000000000001,0.05,0.21000000000000005,4,5,1,3,7,6,1,3,4,0,15,7,LH,0.06142857142857143,0.05,0.05,0.06999999999999999
8,18,35,1,8,0.2700000000000001,2,6,112,109,37,6,0.4800000000000001,0.060000000000000005,0.3200000000000001,0.01,4,1,2,1,9,1,2,1,2,0,15,7,LH,0.05333333333333333,0.060000000000000005,0.16000000000000003,0.01
8,18,36,1,4,0.26000000000000006,4,7,105,54,99,84,0.45000000000000007,0.13999999999999999,0.02,0.04,5,2,1,1,8,2,1,1,2,0,11,7,LH,0.05625000000000001,0.06999999999999999,0.02,0.04
8,19,37,1,5,0.3100000000000001,3,8,60,38,98,103,0.6100000000000002,0.12999999999999998,0.01,0.01,4,2,1,1,9,4,1,1,5,0,13,7,LH,0.06777777777777778,0.0325,0.01,0.01
8,19,38,1,9,0.20000000000000004,2,8,62,27,118,4,0.5800000000000002,0.05,0.07,0.07,4,2,1,2,10,3,1,3,4,0,17,7,LH,0.05800000000000001,0.016666666666666666,0.07,0.023333333333333334
8,20,39,1,9,0.25000000000000006,2,6,68,116,77,113,0.5100000000000001,0.24000000000000007,0.02,0.060000000000000005,4,2,1,1,8,3,1,1,4,0,11,7,LH,0.06375000000000001,0.08,0.02,0.060000000000000005
8,20,40,1,5,0.17,2,3,39,44,43,47,0.33,0.09999999999999999,0.21000000000000005,0.05,4,1,3,2,5,1,3,2,5,1,60,7,LH,0.066,0.09999999999999999,0.07,0.025
8,21,41,1,2,0.17,2,4,57,115,83,84,0.4700000000000001,0.04,0.060000000000000005,0.04,4,1,1,1,8,1,1,1,4,0,12,7,LH,0.058750000000000004,0.04,0.060000000000000005,0.04
8,21,42,1,5,0.22000000000000006,3,6,37,103,90,62,0.4000000000000001,0.47000000000000025,0.01,0.01,6,3,1,1,10,8,1,1,5,0,14,7,LH,0.04,0.05875,0.01,0.01
8,22,43,1,3,0.3200000000000001,6,7,33,108,66,70,0.5600000000000002,0.11999999999999998,0.03,0.34000000000000014,8,1,1,3,10,1,1,3,5,0,15,7,LH,0.056,0.11999999999999998,0.03,0.11333333333333337
8,22,44,1,1,0.19000000000000003,2,4,77,84,114,19,0.4800000000000001,0.09,0.11999999999999998,0.02,4,1,1,1,10,2,2,1,3,0,14,7,LH,0.048,0.045,0.060000000000000005,0.02
9,1,1,0,4,0.3000000000000001,2,3,20,16,99,43,4.559999999999953,2.4999999999999907,1.440000000000001,0.7800000000000005,5,3,3,3,11,3,3,3,2,0,19,7,LH,0.4145454545454548,0.8333333333333339,0.4800000000000002,0.2600000000000001
9,1,2,0,8,0.2900000000000001,2,3,8,5,56,114,6.549999999999911,0.5500000000000003,2.2699999999999956,0.13999999999999999,9,2,3,1,15,3,6,1,2,0,18,7,LH,0.43666666666666687,0.18333333333333343,0.3783333333333335,0.13999999999999999
9,2,3,0,8,0.3900000000000002,2,3,117,39,19,67,4.079999999999965,3.0299999999999794,0.48000000000000026,0.8700000000000006,7,3,1,2,13,8,1,2,2,0,17,7,LH,0.313846153846154,0.3787500000000002,0.48000000000000026,0.4350000000000003
9,2,4,0,4,0.2900000000000001,2,3,12,6,105,10,5.839999999999926,3.3099999999999734,1.7200000000000013,0.05,8,3,3,1,12,3,3,1,2,0.5,38,7,LH,0.4866666666666669,1.1033333333333342,0.5733333333333337,0.05
9,3,5,0,9,0.6000000000000003,2,5,66,11,68,117,6.1099999999999275,0.6600000000000004,3.7799999999999634,0.22000000000000006,7,2,8,1,14,2,9,1,4,0,16,7,LH,0.4364285714285715,0.3300000000000002,0.42000000000000026,0.22000000000000006
9,3,6,0,5,0.4400000000000002,2,3,14,41,52,46,5.389999999999939,1.6700000000000013,1.0200000000000007,0.23000000000000007,7,3,2,1,11,4,2,1,5,0,20,7,LH,0.49000000000000027,0.4175000000000002,0.5100000000000002,0.23000000000000007
9,4,7,0,10,0.2900000000000001,2,3,5,44,109,69,5.999999999999923,0.7000000000000004,0.6800000000000004,0.48000000000000026,7,2,2,1,15,2,2,1,3,0,17,7,LH,0.4000000000000002,0.3500000000000002,0.34000000000000014,0.48000000000000026
9,4,8,0,2,0.2900000000000001,2,3,16,13,105,58,4.429999999999956,1.8700000000000014,1.350000000000001,0.2700000000000001,5,2,3,2,8,3,5,2,4,0,18,7,LH,0.5537500000000003,0.6233333333333336,0.2700000000000001,0.135
9,5,9,0,8,1.350000000000001,13,14,67,116,10,113,4.499999999999978,1.5600000000000012,1.2500000000000009,4.289999999999953,15,2,1,4,16,2,1,6,2,0,14,7,LH,0.28125000000000017,0.7800000000000005,1.2500000000000009,0.7150000000000005
9,5,10,0,5,0.34000000000000014,2,3,19,13,15,56,5.69999999999993,0.6200000000000003,0.49000000000000027,0.6400000000000003,8,1,2,1,11,1,2,1,5,0.5,40,7,LH,0.5181818181818185,0.6200000000000003,0.2450000000000001,0.6400000000000003
9,6,11,0,2,0.46000000000000024,4,5,11,49,52,58,6.1799999999999224,0.5200000000000002,0.5900000000000003,0.36000000000000015,10,1,2,1,13,1,2,1,4,0.5,30,7,LH,0.4753846153846157,0.5200000000000002,0.2950000000000001,0.36000000000000015
9,6,12,0,1,0.22000000000000006,2,3,77,16,62,23,4.669999999999949,1.270000000000001,2.7399999999999856,0.26000000000000006,8,4,5,2,12,4,7,2,3,0,19,7,LH,0.3891666666666669,0.3175000000000001,0.3914285714285716,0.13000000000000003
9,7,13,1,3,0.16,1,2,26,24,22,18,3.9299999999999637,0.7100000000000004,0.6300000000000003,0.9200000000000006,4,1,1,2,5,1,2,4,5,0.5,23,7,LH,0.7860000000000006,0.7100000000000004,0.3150000000000001,0.23000000000000007
9,7,14,1,5,1.0800000000000007,10,11,117,118,119,44,3.309999999999997,2.4099999999999926,0.5500000000000003,0.2900000000000001,11,3,1,1,14,4,2,1,5,0.5,11,7,LH,0.23642857142857152,0.6025000000000004,0.27500000000000013,0.2900000000000001
9,8,15,1,10,0.4100000000000002,2,4,112,95,92,58,4.309999999999961,3.509999999999969,0.7800000000000005,0.45000000000000023,7,5,2,1,9,5,2,1,3,0,12,7,LH,0.4788888888888892,0.7020000000000004,0.3900000000000002,0.45000000000000023
9,8,16,1,1,0.23000000000000007,2,3,79,76,9,5,3.6699999999999706,1.8000000000000014,3.0599999999999787,0.24000000000000007,6,2,6,2,8,4,6,2,3,0,18,7,LH,0.45875000000000027,0.4500000000000003,0.5100000000000002,0.12
9,9,17,1,7,0.5100000000000002,2,3,93,92,15,18,7.5299999999998946,0.9900000000000007,4.399999999999951,5.589999999999925,9,2,5,6,15,2,5,7,6,0,18,7,LH,0.5020000000000003,0.4950000000000003,0.8800000000000007,0.7985714285714284
9,9,18,1,5,0.5200000000000002,3,4,40,38,68,65,2.2800000000000016,3.1999999999999758,0.9200000000000006,0.6700000000000004,5,3,1,1,6,10,1,1,5,0,18,7,LH,0.3800000000000002,0.3200000000000001,0.9200000000000006,0.6700000000000004
9,10,19,1,9,0.45000000000000023,2,3,61,17,64,22,6.229999999999921,0.47000000000000025,0.6900000000000004,0.8900000000000006,8,1,2,2,9,1,2,3,4,0,20,7,LH,0.6922222222222217,0.47000000000000025,0.34500000000000014,0.29666666666666675
9,10,20,1,10,0.23000000000000007,2,3,88,32,26,9,3.4499999999999753,2.8399999999999834,2.2199999999999966,0.20000000000000004,4,2,3,1,5,2,6,1,3,0,19,7,LH,0.6900000000000001,1.419999999999992,0.3700000000000002,0.20000000000000004
9,11,21,1,2,0.23000000000000007,2,3,60,115,113,91,3.2499999999999796,2.949999999999981,0.8500000000000005,0.7800000000000005,5,3,2,1,11,5,2,1,4,0,11,7,LH,0.2954545454545456,0.5900000000000003,0.42500000000000027,0.7800000000000005
9,11,22,1,4,0.47000000000000025,2,4,98,107,16,61,3.529999999999979,1.5400000000000011,1.0200000000000007,0.6800000000000004,5,4,3,2,8,4,4,2,2,0,14,7,LH,0.44125000000000025,0.3850000000000002,0.2550000000000001,0.34000000000000014
9,12,23,1,1,0.45000000000000023,2,3,74,97,65,1,5.9899999999999265,0.8500000000000005,2.1899999999999973,0.3900000000000002,8,2,2,2,16,2,2,2,3,0,15,7,LH,0.3743750000000002,0.4250000000000002,1.0950000000000004,0.19500000000000003
9,12,24,1,5,0.38000000000000017,6,6,13,43,89,57,13.809999999999759,0.02,0.18000000000000002,0.04,15,1,2,1,26,1,2,1,5,0,18,7,LH,0.5311538461538458,0.02,0.09,0.04
9,13,25,1,9,0.37000000000000016,2,3,65,15,21,69,6.129999999999922,1.0400000000000007,0.3200000000000001,0.46000000000000024,8,2,2,2,13,2,3,2,4,0,20,7,LH,0.4715384615384618,0.5200000000000002,0.10666666666666667,0.23000000000000007
9,13,26,1,2,0.3900000000000002,1,2,7,50,33,51,7.019999999999904,4.759999999999943,0.34000000000000014,0.09999999999999999,7,4,1,1,13,5,1,1,4,0,19,7,LH,0.5400000000000003,0.9520000000000006,0.34000000000000014,0.09999999999999999
9,14,27,1,8,0.7600000000000005,7,7,69,19,114,73,8.109999999999888,6.6599999999999024,0.02,3.839999999999962,13,6,1,3,17,8,1,3,2,0,15,7,LH,0.47705882352941203,0.8325000000000006,0.02,1.2799999999999974
9,14,28,1,5,0.5400000000000003,2,3,54,86,44,106,7.349999999999899,0.5700000000000003,0.5300000000000002,0.25000000000000006,8,2,2,1,12,2,2,1,5,0,14,7,LH,0.6125000000000004,0.2850000000000001,0.26500000000000007,0.25000000000000006
9,15,29,1,5,0.4300000000000002,3,3,1,85,62,101,31.230000000002015,0.01,0.01,0.03,20,1,1,1,46,1,1,1,5,0,15,7,LH,0.6789130434782593,0.01,0.01,0.03
9,15,30,1,1,0.3200000000000001,2,3,117,119,25,75,5.639999999999931,0.7300000000000004,0.9300000000000006,0.7200000000000004,7,1,1,3,14,1,1,3,3,0,12,7,LH,0.4028571428571431,0.7300000000000004,0.9300000000000006,0.24000000000000007
9,16,31,1,8,0.5800000000000003,2,4,51,59,58,27,4.159999999999968,0.9100000000000006,1.0100000000000007,0.9200000000000006,5,1,2,2,9,1,3,2,2,0.5,17,7,LH,0.4622222222222225,0.9100000000000006,0.33666666666666684,0.46000000000000024
9,16,32,1,1,0.7000000000000004,6,9,70,76,73,104,6.129999999999929,0.8500000000000005,0.45000000000000023,0.5300000000000002,10,3,1,2,19,3,1,3,3,0,12,7,LH,0.3226315789473676,0.28333333333333344,0.45000000000000023,0.17666666666666675
9,17,33,1,2,0.6800000000000004,2,4,16,100,21,52,5.389999999999945,0.5100000000000002,0.5500000000000003,0.5800000000000003,8,1,1,1,16,1,2,1,4,0,18,7,LH,0.33687500000000015,0.5100000000000002,0.2750000000000001,0.5800000000000003
9,17,34,1,8,0.6800000000000004,6,7,5,120,87,25,5.60999999999994,1.0800000000000007,0.48000000000000026,4.629999999999946,11,3,2,4,16,3,2,6,2,0,16,7,LH,0.3506250000000002,0.36000000000000015,0.2400000000000001,0.7716666666666614
9,18,35,1,4,0.6900000000000004,2,3,9,99,90,12,4.359999999999966,1.2500000000000009,0.9600000000000006,4.799999999999942,5,2,2,7,6,3,4,13,2,0,17,7,LH,0.7266666666666671,0.41666666666666685,0.24000000000000007,0.3692307692307694
9,18,36,1,1,0.3900000000000002,2,4,76,111,80,110,4.229999999999962,1.360000000000001,0.47000000000000025,1.0000000000000007,6,4,1,2,9,5,1,2,3,0,10,7,LH,0.47000000000000025,0.27200000000000013,0.47000000000000025,0.5000000000000002
9,19,37,1,3,1.0300000000000007,10,11,69,119,32,34,7.499999999999908,0.7200000000000004,0.47000000000000025,0.16,16,2,2,1,19,3,3,1,5,0,16,7,LH,0.3947368421052634,0.2400000000000001,0.15666666666666668,0.16
9,19,38,1,1,0.9600000000000006,14,15,75,12,57,48,5.459999999999949,1.6600000000000013,5.659999999999924,4.529999999999948,19,3,5,4,21,5,12,6,3,0,18,7,LH,0.2600000000000001,0.3320000000000002,0.47166666666666696,0.7550000000000002
9,20,39,1,3,0.6400000000000003,2,3,113,49,80,36,5.709999999999937,4.609999999999946,0.15,0.07,7,4,2,1,12,4,2,1,5,0,14,7,LH,0.4758333333333336,1.1524999999999959,0.075,0.07
9,20,40,1,9,0.5200000000000002,2,3,67,38,103,89,3.889999999999972,1.0700000000000007,0.9900000000000007,1.7800000000000014,5,1,1,2,7,1,1,2,4,0,14,7,LH,0.555714285714286,1.0700000000000007,0.9900000000000007,0.8900000000000006
10,1,1,0,1,0.16,2,3,84,13,49,118,0.7100000000000003,0.4300000000000002,0.37000000000000016,0.09999999999999999,4,1,1,1,5,1,1,1,3,0,15,7,LH,0.14200000000000004,0.4300000000000002,0.37000000000000016,0.09999999999999999
10,1,2,0,6,0.17,2,3,9,45,86,5,1.0800000000000005,0.2800000000000001,0.3200000000000001,0.6900000000000004,4,1,1,2,7,1,1,2,6,0,20,7,LH,0.15428571428571433,0.2800000000000001,0.3200000000000001,0.3450000000000002
10,2,3,0,9,0.15,2,3,78,61,48,43,1.2100000000000006,0.05,0.22000000000000006,0.8700000000000006,4,1,1,3,6,1,1,3,4,0,17,7,LH,0.20166666666666674,0.05,0.22000000000000006,0.29000000000000015
10,2,4,0,2,0.16,2,3,19,50,87,58,1.0300000000000005,0.07,0.49000000000000027,0.04,4,1,3,1,6,1,4,1,4,0,17,7,LH,0.17166666666666672,0.07,0.12250000000000003,0.04
10,3,5,0,10,0.16,2,3,88,13,69,38,0.6300000000000002,0.46000000000000024,0.2900000000000001,0.12999999999999998,4,1,2,1,5,1,2,1,3,0,18,7,LH,0.12600000000000006,0.46000000000000024,0.14500000000000002,0.12999999999999998
10,3,6,0,6,0.18000000000000002,2,3,9,56,52,7,1.1400000000000006,0.16,0.22000000000000006,0.08,4,1,1,2,5,1,1,2,6,0,20,7,LH,0.2280000000000001,0.16,0.22000000000000006,0.04
10,4,7,0,6,0.09999999999999999,2,2,11,4,88,99,0.8500000000000004,0.12999999999999998,2.99999999999998,0.09,4,1,5,1,4,1,5,1,6,0,17,7,LH,0.21250000000000008,0.12999999999999998,0.6000000000000004,0.09
10,4,8,0,9,0.17,2,3,68,83,32,25,1.0000000000000004,0.5600000000000003,0.38000000000000017,0.17,4,2,1,1,7,2,1,1,4,0,17,7,LH,0.14285714285714288,0.28000000000000014,0.38000000000000017,0.17
10,5,9,0,8,0.13999999999999999,2,4,53,117,52,92,1.4100000000000008,0.03,0.10999999999999999,0.38000000000000017,5,1,1,2,7,1,1,2,2,0,13,7,LH,0.2014285714285715,0.03,0.10999999999999999,0.19000000000000006
10,5,10,0,4,0.16,2,2,106,99,71,3,0.8200000000000004,0.3300000000000001,0.17,0.10999999999999999,3,1,1,2,3,1,1,2,2,0,14,7,LH,0.27333333333333343,0.3300000000000001,0.17,0.05500000000000001
10,6,11,0,9,0.10999999999999999,2,2,72,63,97,3,0.7400000000000003,0.7600000000000005,1.6400000000000012,0.01,3,2,3,1,3,3,3,1,4,0,16,7,LH,0.24666666666666678,0.25333333333333347,0.5466666666666671,0.01
10,6,12,0,10,0.18000000000000002,2,4,91,109,51,113,1.0700000000000005,0.18000000000000002,1.0000000000000007,0.05,4,1,2,1,6,1,2,1,3,0,11,7,LH,0.1783333333333334,0.18000000000000002,0.5000000000000003,0.05
10,7,13,1,1,0.19000000000000003,2,3,58,113,112,115,1.3500000000000008,0.25000000000000006,0.7700000000000005,0.01,4,2,2,1,5,2,2,1,3,0.5,10,7,LH,0.27000000000000013,0.12499999999999997,0.38500000000000023,0.01
10,7,14,1,10,0.09,2,2,14,15,37,68,25.070000000001105,0.05,0.23000000000000007,0.01,17,2,2,1,31,2,2,1,3,0,21,7,LH,0.8087096774193543,0.025,0.11500000000000003,0.01
10,8,15,1,2,0.4000000000000002,2,3,49,16,84,24,1.2800000000000007,0.19000000000000003,0.10999999999999999,0.13999999999999999,4,1,1,1,6,1,1,1,4,0,19,7,LH,0.2133333333333334,0.19000000000000003,0.10999999999999999,0.13999999999999999
10,8,16,1,10,0.19000000000000003,2,2,86,90,42,96,1.1100000000000005,0.18000000000000002,0.09,0.10999999999999999,4,1,2,1,4,1,2,1,3,0.5,14,7,LH,0.2775000000000001,0.18000000000000002,0.045,0.10999999999999999
10,9,17,1,7,0.23000000000000007,2,3,14,23,17,13,0.7900000000000004,0.48000000000000026,0.20000000000000004,8.849999999999856,3,2,2,13,4,3,2,19,6,1,72,7,LH,0.19750000000000006,0.16000000000000003,0.09999999999999999,0.46578947368421075
10,9,18,1,4,0.13999999999999999,2,3,97,40,76,46,0.7900000000000004,1.430000000000001,0.01,0.01,4,3,1,1,5,3,1,1,2,0,15,7,LH,0.15800000000000006,0.47666666666666696,0.01,0.01
10,10,19,1,4,0.09999999999999999,2,3,103,107,108,13,0.8800000000000004,7.849999999999877,15.819999999999707,0.01,4,8,18,1,5,10,36,1,2,0.5,12,7,LH,0.17600000000000007,0.7850000000000005,0.4394444444444447,0.01
10,10,20,1,5,0.11999999999999998,2,3,46,62,117,5,1.1000000000000005,0.2700000000000001,0.11999999999999998,0.38000000000000017,4,1,1,2,5,1,1,2,5,0,17,7,LH,0.2200000000000001,0.2700000000000001,0.11999999999999998,0.19000000000000003
10,11,21,1,2,0.5200000000000002,2,3,50,55,17,34,1.3800000000000008,0.2900000000000001,1.340000000000001,0.01,4,1,3,1,5,1,3,1,4,0,19,7,LH,0.27600000000000013,0.2900000000000001,0.446666666666667,0.01
10,11,22,1,1,0.11999999999999998,2,3,74,82,1,79,1.0000000000000004,0.17,0.08,0.9200000000000006,4,1,1,2,6,1,1,3,3,0.5,15,7,LH,0.1666666666666667,0.17,0.08,0.3066666666666668
10,12,23,1,7,0.10999999999999999,2,3,23,62,64,26,0.6600000000000003,1.7400000000000013,0.4300000000000002,4.609999999999946,3,3,2,7,4,4,2,13,6,0,19,7,LH,0.16500000000000006,0.4350000000000003,0.21500000000000008,0.3546153846153848
10,12,24,1,5,0.17,3,4,92,93,39,41,0.8100000000000004,0.21000000000000005,0.05,0.10999999999999999,5,2,1,2,7,2,1,2,5,0,16,7,LH,0.11571428571428574,0.10500000000000001,0.05,0.055
10,13,25,1,6,0.7300000000000004,2,3,95,113,47,71,1.690000000000001,0.19000000000000003,0.04,0.19000000000000003,4,2,1,1,6,2,1,1,6,0,14,7,LH,0.2816666666666668,0.09499999999999999,0.04,0.19000000000000003
10,13,26,1,7,0.2700000000000001,3,3,18,24,17,81,0.8700000000000003,0.38000000000000017,7.089999999999893,0.13999999999999999,4,1,9,2,4,1,14,2,6,0.5,21,7,LH,0.21750000000000008,0.38000000000000017,0.5064285714285717,0.06999999999999999
10,14,27,1,7,3.699999999999965,6,10,89,66,85,63,4.809999999999966,0.09999999999999999,0.01,0.10999999999999999,8,2,1,2,13,2,1,2,6,0,14,7,LH,0.3700000000000002,0.05,0.01,0.055
10,14,28,1,5,0.20000000000000004,2,3,38,118,42,7,0.8300000000000004,0.38000000000000017,0.09,0.9700000000000006,4,2,1,3,5,2,1,3,5,0,18,7,LH,0.16600000000000004,0.19000000000000006,0.09,0.3233333333333335
10,15,29,1,1,0.13999999999999999,2,3,83,80,116,46,0.6800000000000003,0.5200000000000002,0.4200000000000002,0.19000000000000003,4,2,1,2,5,2,1,2,3,0,13,7,LH,0.13600000000000004,0.2600000000000001,0.4200000000000002,0.095
10,15,30,1,10,0.19000000000000003,2,3,69,95,63,7,0.8400000000000004,0.4100000000000002,0.26000000000000006,0.02,3,1,3,1,4,1,3,1,3,0,17,7,LH,0.21000000000000008,0.4100000000000002,0.08666666666666667,0.02
10,16,31,1,6,0.07,1,2,11,86,91,4,0.7900000000000005,0.12999999999999998,0.12999999999999998,2.8299999999999836,3,1,1,3,4,1,1,3,6,0,18,7,LH,0.19750000000000006,0.12999999999999998,0.12999999999999998,0.943333333333334
10,16,32,1,7,0.25000000000000006,2,3,15,23,54,79,1.0300000000000005,0.09999999999999999,0.21000000000000005,0.5900000000000003,4,1,1,3,5,1,1,3,6,0,19,7,LH,0.20600000000000007,0.09999999999999999,0.21000000000000005,0.19666666666666674
10,17,33,1,2,0.12999999999999998,2,3,58,25,49,50,0.8400000000000004,0.25000000000000006,0.060000000000000005,0.07,4,1,1,1,5,1,1,1,4,0.5,17,7,LH,0.16800000000000007,0.25000000000000006,0.060000000000000005,0.07
10,17,34,1,7,0.11999999999999998,2,3,24,16,76,70,0.7300000000000003,0.16,0.4100000000000002,4.559999999999947,4,1,1,5,5,1,1,5,6,0,19,7,LH,0.14600000000000005,0.16,0.4100000000000002,0.9120000000000006
10,18,35,1,1,0.23000000000000007,3,4,75,68,62,78,0.8200000000000004,0.25000000000000006,0.18000000000000002,0.09,5,1,1,1,6,1,1,1,3,0,14,7,LH,0.13666666666666671,0.25000000000000006,0.18000000000000002,0.09
10,18,36,1,6,0.060000000000000005,2,2,3,93,91,4,5.789999999999922,2.8899999999999824,0.01,0.01,11,4,1,1,17,4,1,1,6,0,18,7,LH,0.3405882352941178,0.7225000000000005,0.01,0.01
10,19,37,1,4,0.19000000000000003,2,3,98,97,10,60,3.7799999999999674,0.4000000000000002,0.01,0.01,5,2,1,1,6,2,1,1,2,0,14,7,LH,0.6299999999999959,0.2000000000000001,0.01,0.01
10,19,38,1,8,0.2800000000000001,2,2,117,115,66,63,0.8100000000000003,0.35000000000000014,0.18000000000000002,0.16,3,1,1,1,3,1,1,1,2,0,12,7,LH,0.2700000000000001,0.35000000000000014,0.18000000000000002,0.16
10,20,39,1,7,0.16,2,2,14,53,74,57,17.62999999999993,0.01,0.7700000000000005,0.07,19,1,2,2,34,1,2,2,6,0,17,7,LH,0.5185294117647056,0.01,0.38500000000000023,0.035
10,20,40,1,9,0.09,2,2,62,66,63,8,0.6300000000000002,0.4100000000000002,0.16,0.17,3,2,2,1,3,4,2,1,4,0.5,18,7,LH,0.21000000000000008,0.10250000000000001,0.08,0.17
10,21,41,1,10,0.21000000000000005,2,3,95,18,21,40,13.429999999999763,6.059999999999915,0.01,0.01,11,6,1,1,17,10,1,1,3,0,20,7,LH,0.7899999999999991,0.6060000000000004,0.01,0.01
10,21,42,1,4,0.18000000000000002,2,4,51,97,108,5,0.9600000000000005,0.18000000000000002,0.26000000000000006,0.02,5,1,2,1,7,1,2,1,2,0,14,7,LH,0.13714285714285718,0.18000000000000002,0.13,0.02
11,1,1,0,8,0.23000000000000007,2,3,116,117,115,5,0.8100000000000004,0.10999999999999999,0.17,0.34000000000000014,3,1,1,2,4,1,1,2,2,0.5,18,7,LH,0.20250000000000007,0.10999999999999999,0.17,0.17
11,1,2,0,1,0.19000000000000003,2,3,73,103,35,69,0.6000000000000002,0.8300000000000005,0.3200000000000001,0.03,4,2,1,1,5,2,1,1,3,0,14,7,LH,0.12000000000000002,0.4150000000000002,0.3200000000000001,0.03
11,2,3,0,3,0.21000000000000005,2,3,30,7,96,100,1.0000000000000004,0.2900000000000001,0.12999999999999998,0.060000000000000005,4,2,1,1,5,2,1,1,5,0,16,7,LH,0.2000000000000001,0.14500000000000002,0.12999999999999998,0.060000000000000005
11,2,4,0,9,0.21000000000000005,2,3,69,111,118,23,0.7900000000000004,0.6600000000000004,0.23000000000000007,4.139999999999956,4,2,2,3,5,2,2,4,4,0,14,7,LH,0.15800000000000006,0.3300000000000002,0.11500000000000002,1.0349999999999908
11,3,5,0,2,0.18000000000000002,2,4,60,49,36,4,0.7200000000000003,0.07,0.2900000000000001,0.08,4,1,1,1,7,1,1,1,4,0,19,7,LH,0.10285714285714287,0.07,0.2900000000000001,0.08
11,3,6,0,10,0.25000000000000006,2,2,104,89,100,96,3.9299999999999655,1.6000000000000012,2.239999999999996,0.07,6,3,3,1,7,3,3,1,3,0,10,7,LH,0.5614285714285712,0.5333333333333337,0.7466666666666671,0.07
11,4,7,0,10,0.20000000000000004,2,3,94,32,23,28,0.8800000000000004,0.10999999999999999,0.6300000000000003,4.42999999999995,4,1,2,3,5,1,2,3,3,0,19,7,LH,0.17600000000000007,0.10999999999999999,0.31500000000000017,1.4766666666666532
11,4,8,0,2,0.7300000000000004,3,6,55,81,108,10,1.580000000000001,1.7800000000000014,0.20000000000000004,0.01,5,4,2,1,8,4,2,1,4,0,15,7,LH,0.1975000000000001,0.44500000000000023,0.10000000000000002,0.01
11,5,9,0,2,0.15,2,3,60,51,27,54,0.6200000000000002,0.12999999999999998,0.9500000000000006,0.01,4,1,4,1,5,1,4,1,4,0.5,29,7,LH,0.12400000000000003,0.12999999999999998,0.2375000000000001,0.01
11,5,10,0,9,0.20000000000000004,2,3,61,76,107,84,0.9300000000000005,0.05,3.189999999999976,0.01,4,1,4,1,5,1,4,1,4,0,12,7,LH,0.18600000000000008,0.05,0.7974999999999969,0.01
11,6,11,0,9,0.25000000000000006,2,3,102,63,67,23,0.8800000000000003,0.11999999999999998,0.3300000000000001,0.04,3,1,2,1,4,1,2,1,4,0,16,7,LH,0.22000000000000008,0.11999999999999998,0.16500000000000004,0.04
11,6,12,0,10,0.22000000000000006,2,3,85,86,93,57,0.9700000000000005,0.01,0.16,0.9200000000000006,5,1,2,2,6,1,3,2,3,0.5,22,7,LH,0.1616666666666667,0.01,0.05333333333333334,0.4600000000000003
11,7,13,1,10,0.19000000000000003,2,3,93,86,102,56,0.6000000000000002,0.2900000000000001,0.09999999999999999,0.17,5,1,1,1,7,1,1,1,3,0,12,7,LH,0.08571428571428573,0.2900000000000001,0.09999999999999999,0.17
11,7,14,1,7,0.22000000000000006,2,3,17,62,23,75,0.8700000000000004,4.259999999999954,0.01,0.13999999999999999,4,4,1,2,5,6,1,2,6,0,19,7,LH,0.17400000000000004,0.7100000000000004,0.01,0.07
11,8,15,1,6,0.21000000000000005,2,3,6,77,49,59,0.7400000000000003,3.429999999999971,1.9500000000000015,0.12999999999999998,4,2,3,1,5,4,3,1,6,0,17,7,LH,0.14800000000000002,0.8574999999999978,0.6500000000000004,0.12999999999999998
11,8,16,1,9,0.3200000000000001,2,3,95,65,97,93,1.0700000000000005,0.02,0.24000000000000007,0.01,4,1,2,1,6,1,2,1,4,0,12,7,LH,0.17833333333333337,0.02,0.12000000000000001,0.01
11,9,17,1,4,0.08,2,3,100,105,94,50,0.3800000000000001,0.13999999999999999,0.5000000000000002,0.07,3,1,2,1,4,1,2,1,2,0,11,7,LH,0.09500000000000003,0.13999999999999999,0.25000000000000006,0.07
11,9,18,1,1,0.17,2,4,73,66,74,7,0.8200000000000004,0.45000000000000023,0.04,0.18000000000000002,4,1,1,1,6,1,1,1,3,0,16,7,LH,0.13666666666666671,0.45000000000000023,0.04,0.18000000000000002
11,10,19,1,5,0.13999999999999999,1,2,43,37,16,45,0.5700000000000002,0.18000000000000002,0.5500000000000003,0.03,3,1,2,1,4,1,2,1,5,0.5,21,7,LH,0.14250000000000002,0.18000000000000002,0.27500000000000013,0.03
11,10,20,1,6,0.18000000000000002,2,3,8,53,59,2,0.6800000000000003,0.09999999999999999,2.0799999999999996,0.01,4,1,3,1,5,1,3,1,6,0,20,7,LH,0.13600000000000004,0.09999999999999999,0.6933333333333338,0.01
11,11,21,1,5,0.2900000000000001,6,6,37,40,44,2,0.6400000000000002,0.20000000000000004,0.20000000000000004,0.15,7,1,2,1,7,1,3,1,5,0.5,21,7,LH,0.09142857142857146,0.20000000000000004,0.06666666666666667,0.15
11,11,22,1,10,0.24000000000000007,5,6,94,88,65,95,0.6400000000000002,0.17,0.7900000000000005,0.16,6,1,3,1,7,1,6,1,3,0.5,13,7,LH,0.09142857142857146,0.17,0.13166666666666668,0.16
11,12,23,1,8,0.23000000000000007,2,3,110,1,73,10,3.2499999999999796,0.03,0.01,0.13999999999999999,5,1,1,2,6,1,1,2,2,0,17,7,LH,0.5416666666666646,0.03,0.01,0.06999999999999999
11,12,24,1,5,0.20000000000000004,2,4,44,19,16,39,1.4400000000000008,1.320000000000001,0.01,8.21999999999987,4,3,1,7,6,3,1,7,5,0,22,7,LH,0.24000000000000016,0.4400000000000003,0.01,1.174285714285709
11,13,25,1,10,0.16,2,3,95,88,90,1,0.6500000000000002,0.13999999999999999,0.13999999999999999,0.18000000000000002,3,1,1,1,4,1,1,1,3,0.5,15,7,LH,0.16250000000000006,0.13999999999999999,0.13999999999999999,0.18000000000000002
11,13,26,1,5,0.3300000000000001,2,3,117,44,15,83,0.8100000000000004,0.12999999999999998,0.26000000000000006,1.360000000000001,3,1,1,3,4,1,1,3,5,0,16,7,LH,0.20250000000000007,0.12999999999999998,0.26000000000000006,0.4533333333333336
11,14,27,1,6,0.20000000000000004,2,3,65,7,11,4,1.0400000000000005,0.03,0.13999999999999999,1.0600000000000007,3,1,2,2,4,1,2,2,6,0.5,22,7,LH,0.2600000000000001,0.03,0.07,0.5300000000000004
11,14,28,1,7,0.21000000000000005,2,3,21,17,51,73,0.6800000000000003,0.7500000000000004,1.9600000000000015,0.01,4,2,4,1,5,3,5,1,6,0,19,7,LH,0.13600000000000004,0.2500000000000001,0.39200000000000024,0.01
11,15,29,1,1,0.25000000000000006,2,3,75,77,65,25,0.6600000000000003,0.2800000000000001,0.7300000000000004,0.6600000000000004,4,1,2,1,5,1,2,1,3,0,15,7,LH,0.13200000000000003,0.2800000000000001,0.36500000000000016,0.6600000000000004
11,15,30,1,10,0.12999999999999998,2,3,96,47,99,42,0.5300000000000001,0.9900000000000007,0.6600000000000004,0.03,4,2,3,1,5,2,3,1,3,0,15,7,LH,0.10600000000000002,0.49500000000000033,0.22000000000000008,0.03
11,16,31,1,8,0.19000000000000003,2,3,120,67,74,69,0.5400000000000001,1.2100000000000009,1.330000000000001,3.849999999999962,4,2,2,4,5,4,2,4,2,0,13,7,LH,0.10800000000000003,0.30250000000000016,0.6650000000000005,0.9624999999999984
11,16,32,1,2,0.13999999999999999,2,3,53,45,44,20,1.0400000000000005,0.13999999999999999,0.3900000000000002,0.4200000000000002,4,1,1,2,5,1,1,2,4,0,20,7,LH,0.2080000000000001,0.13999999999999999,0.3900000000000002,0.2100000000000001
11,17,33,1,4,0.15,2,3,106,38,71,100,0.8800000000000004,0.12999999999999998,0.08,0.20000000000000004,4,1,1,2,5,1,1,2,2,0,13,7,LH,0.17600000000000007,0.12999999999999998,0.08,0.1
11,17,34,1,3,0.10999999999999999,2,2,81,60,74,82,1.4000000000000008,0.5100000000000002,0.01,0.01,4,2,1,1,7,2,1,1,5,0.5,13,7,LH,0.20000000000000007,0.2550000000000001,0.01,0.01
11,18,35,1,1,0.15,1,2,77,54,15,44,0.7600000000000003,0.19000000000000003,0.34000000000000014,0.11999999999999998,3,2,2,1,5,2,3,1,3,0,18,7,LH,0.15200000000000002,0.095,0.11333333333333334,0.11999999999999998
11,18,36,1,6,0.48000000000000026,2,3,119,3,1,109,1.1300000000000006,0.02,2.159999999999998,0.03,3,1,4,2,4,1,5,2,6,0,16,7,LH,0.28250000000000014,0.02,0.4320000000000003,0.015
11,19,37,1,5,0.24000000000000007,2,3,41,59,12,53,0.7100000000000003,0.5700000000000003,0.060000000000000005,0.04,4,2,1,1,5,2,1,1,5,0,19,7,LH,0.14200000000000004,0.28500000000000014,0.060000000000000005,0.04
11,19,38,1,3,0.8100000000000005,2,4,25,77,17,18,1.1500000000000006,0.8900000000000006,0.04,0.35000000000000014,4,2,1,3,6,3,1,3,5,0,20,7,LH,0.19166666666666674,0.2966666666666668,0.04,0.11666666666666667
11,20,39,1,8,0.09999999999999999,2,2,118,82,35,81,1.0400000000000007,9.649999999999839,1.5100000000000011,7.089999999999893,4,9,3,6,4,11,3,7,2,0,13,7,LH,0.2600000000000001,0.8772727272727244,0.5033333333333336,1.0128571428571362
11,20,40,1,2,0.10999999999999999,2,3,57,55,97,45,0.49000000000000016,0.13999999999999999,2.8399999999999834,0.01,3,1,4,1,4,1,4,1,4,0,15,7,LH,0.12250000000000004,0.13999999999999999,0.7099999999999996,0.01
11,21,41,1,10,0.6700000000000004,3,4,93,86,96,37,1.2800000000000007,0.02,0.16,0.13999999999999999,5,1,1,1,7,1,1,1,3,0.5,14,7,LH,0.18285714285714294,0.02,0.16,0.13999999999999999
11,21,42,1,3,0.25000000000000006,4,5,28,32,77,112,0.7200000000000003,0.15,0.9400000000000006,2.020000000000001,5,1,2,4,6,1,4,5,5,0,15,7,LH,0.12000000000000005,0.15,0.2350000000000001,0.40400000000000025
11,22,43,1,6,0.3100000000000001,2,3,100,10,53,30,0.9400000000000004,0.05,0.20000000000000004,0.45000000000000023,3,1,1,2,4,1,1,2,6,0,17,7,LH,0.2350000000000001,0.05,0.20000000000000004,0.22500000000000006
11,22,44,1,9,0.25000000000000006,2,4,66,86,91,41,0.5200000000000001,0.8000000000000005,0.22000000000000006,0.02,3,2,1,1,5,2,1,1,4,0,15,7,LH,0.10400000000000001,0.4000000000000002,0.22000000000000006,0.02
12,1,1,0,3,0.26000000000000006,2,4,28,105,100,59,0.5000000000000001,0.8300000000000005,0.15,0.060000000000000005,3,2,1,1,5,3,1,1,5,0,13,7,LH,0.1,0.2766666666666668,0.15,0.060000000000000005
12,1,2,0,5,0.2700000000000001,2,3,48,64,63,82,0.6100000000000002,0.38000000000000017,0.21000000000000005,0.24000000000000007,4,1,1,1,5,2,1,1,5,0,16,7,LH,0.122,0.19000000000000003,0.21000000000000005,0.24000000000000007
12,2,3,0,8,0.26000000000000006,2,3,114,57,118,49,1.0700000000000005,0.16,0.03,1.5700000000000012,4,1,1,3,5,1,1,5,2,0,12,7,LH,0.2140000000000001,0.16,0.03,0.31400000000000017
12,2,4,0,9,0.25000000000000006,2,3,72,100,105,97,0.6900000000000003,0.17,0.3900000000000002,0.04,4,1,1,1,5,1,2,1,4,0.5,16,7,LH,0.138,0.17,0.19500000000000003,0.04
12,3,5,0,10,0.22000000000000006,2,3,30,86,85,96,0.8700000000000004,0.02,0.09,0.3200000000000001,3,1,1,2,4,1,1,2,3,0.5,23,7,LH,0.21750000000000008,0.02,0.09,0.16000000000000006
12,3,6,0,2,0.4200000000000002,2,4,59,42,52,2,0.7700000000000004,0.5500000000000003,0.11999999999999998,0.09,3,2,1,1,5,3,1,1,4,0,19,7,LH,0.15400000000000003,0.18333333333333338,0.11999999999999998,0.09
12,4,7,0,3,0.10999999999999999,2,2,113,60,88,120,1.0100000000000007,0.35000000000000014,0.3100000000000001,0.38000000000000017,4,2,2,2,7,2,2,2,5,0,11,7,LH,0.14428571428571432,0.17500000000000002,0.15500000000000003,0.19000000000000009
12,4,8,0,9,0.2900000000000001,2,3,63,62,101,70,0.7000000000000003,0.05,0.3200000000000001,0.07,3,1,2,1,4,1,2,1,4,0.5,26,7,LH,0.17500000000000004,0.05,0.16,0.07
12,5,9,0,10,0.3300000000000001,2,3,87,5,10,60,0.7100000000000003,0.35000000000000014,0.3000000000000001,0.01,4,1,2,1,5,1,2,1,3,0,19,7,LH,0.14200000000000002,0.35000000000000014,0.15,0.01
12,5,10,0,1,0.2900000000000001,2,3,73,74,81,63,0.7400000000000003,0.08,1.5300000000000011,0.01,4,1,2,1,6,1,2,1,3,0.5,22,7,LH,0.12333333333333336,0.08,0.7650000000000006,0.01
12,6,11,0,4,0.2900000000000001,2,3,105,104,90,106,0.6500000000000002,0.20000000000000004,0.19000000000000003,0.09,4,1,1,1,5,1,1,1,2,0.5,15,7,LH,0.13,0.20000000000000004,0.19000000000000003,0.09
12,6,12,0,5,0.26000000000000006,2,3,45,114,21,84,0.7700000000000002,0.09999999999999999,0.4000000000000002,0.09,4,1,2,1,5,1,2,1,5,0,16,7,LH,0.15400000000000005,0.09999999999999999,0.20000000000000004,0.09
12,7,13,1,6,0.11999999999999998,2,2,7,73,82,48,0.6700000000000003,0.5100000000000002,0.02,0.08,4,4,1,1,4,5,1,1,6,0,17,7,LH,0.16750000000000004,0.102,0.02,0.08
12,7,14,1,10,0.2800000000000001,2,3,86,49,36,100,0.7400000000000003,0.22000000000000006,0.5700000000000003,0.02,4,1,1,1,5,1,1,1,3,0,14,7,LH,0.14800000000000002,0.22000000000000006,0.5700000000000003,0.02
12,8,15,1,9,0.26000000000000006,2,4,16,70,30,36,0.9400000000000004,0.02,0.09999999999999999,0.20000000000000004,3,1,1,2,5,1,1,2,4,0,20,7,LH,0.18800000000000008,0.02,0.09999999999999999,0.09999999999999999
12,8,16,1,8,0.19000000000000003,2,3,117,116,7,56,0.5100000000000001,0.09,0.2700000000000001,2.489999999999991,3,1,2,3,4,1,2,4,2,0,14,7,LH,0.12750000000000003,0.09,0.13499999999999998,0.6225000000000004
12,9,17,1,5,0.23000000000000007,2,3,40,47,1,112,0.5400000000000001,0.17,0.13999999999999999,0.5700000000000003,4,1,1,2,5,1,1,3,5,0,18,7,LH,0.108,0.17,0.13999999999999999,0.19000000000000006
12,9,18,1,7,0.2700000000000001,2,3,16,15,28,80,0.8700000000000003,1.6500000000000012,0.01,0.01,4,4,1,1,5,4,1,1,6,0,20,7,LH,0.17400000000000004,0.41250000000000026,0.01,0.01
12,10,19,1,3,0.3100000000000001,3,4,35,25,31,29,0.8100000000000003,0.07,3.049999999999979,1.1400000000000008,4,1,4,3,5,1,4,3,5,1,60,7,LH,0.16200000000000003,0.07,0.7625000000000003,0.38000000000000017
12,10,20,1,5,0.24000000000000007,2,3,38,41,17,67,0.6100000000000002,0.10999999999999999,0.7500000000000004,0.07,3,1,2,1,4,1,2,1,5,0,20,7,LH,0.15250000000000002,0.10999999999999999,0.37500000000000017,0.07
12,11,21,1,4,0.3200000000000001,2,4,98,81,9,65,0.9000000000000004,0.09,0.07,0.13999999999999999,4,1,1,1,6,1,1,1,2,0,15,7,LH,0.15000000000000002,0.09,0.07,0.13999999999999999
12,11,22,1,5,0.24000000000000007,2,4,48,13,49,60,0.5600000000000002,0.5300000000000002,0.04,0.7600000000000005,4,2,1,2,6,4,1,2,5,0,19,7,LH,0.09333333333333334,0.13250000000000003,0.04,0.3800000000000002
12,12,23,1,2,0.2800000000000001,2,3,54,41,50,53,0.7700000000000004,0.7100000000000004,0.01,0.01,4,3,1,1,5,3,1,1,4,0.5,17,7,LH,0.15400000000000005,0.23666666666666675,0.01,0.01
12,12,24,1,1,0.17,2,3,73,61,35,25,0.6000000000000002,0.21000000000000005,0.24000000000000007,0.11999999999999998,4,1,1,1,5,1,1,1,3,0,17,7,LH,0.12000000000000001,0.21000000000000005,0.24000000000000007,0.11999999999999998
12,13,25,1,10,0.26000000000000006,2,5,117,90,89,86,0.8400000000000003,0.03,0.9400000000000006,1.0000000000000007,3,1,2,2,6,1,2,3,3,0.5,11,7,LH,0.14000000000000004,0.03,0.4700000000000003,0.3333333333333335
12,13,26,1,9,0.34000000000000014,2,3,62,108,75,27,0.7600000000000003,0.09,0.38000000000000017,0.09,4,1,1,1,7,1,1,1,4,0,14,7,LH,0.10857142857142858,0.09,0.38000000000000017,0.09
12,14,27,1,1,0.2800000000000001,2,4,77,84,15,83,0.5500000000000002,0.3000000000000001,0.18000000000000002,0.09,3,1,1,1,5,1,1,1,3,0.5,15,7,LH,0.11000000000000001,0.3000000000000001,0.18000000000000002,0.09
12,14,28,1,6,0.23000000000000007,2,4,108,5,88,102,0.8000000000000004,0.03,0.6800000000000004,0.25000000000000006,3,1,2,3,5,1,2,3,6,0,13,7,LH,0.16000000000000006,0.03,0.34000000000000014,0.08333333333333333
12,15,29,1,4,0.2800000000000001,2,5,42,100,88,38,0.7900000000000003,0.04,0.3000000000000001,0.12999999999999998,3,1,1,1,6,1,1,1,2,0,15,7,LH,0.1316666666666667,0.04,0.3000000000000001,0.12999999999999998
12,15,30,1,8,0.26000000000000006,6,7,114,110,26,68,0.5100000000000001,0.3100000000000001,1.0300000000000007,0.04,7,2,3,1,8,2,3,1,2,0,13,7,LH,0.06375,0.155,0.3433333333333335,0.04
12,16,31,1,4,0.45000000000000023,2,3,107,99,90,98,0.8800000000000004,0.25000000000000006,2.4199999999999924,0.04,4,1,2,1,5,1,2,1,2,0.5,9,7,LH,0.17600000000000005,0.25000000000000006,1.2099999999999962,0.04
12,16,32,1,5,0.26000000000000006,2,3,75,44,42,69,0.8800000000000003,0.01,0.7800000000000005,0.2900000000000001,3,1,3,2,4,1,3,2,5,0,17,7,LH,0.22000000000000008,0.01,0.2600000000000001,0.14500000000000005
12,17,33,1,6,0.13999999999999999,1,2,11,66,1,105,0.33,0.4300000000000002,0.15,1.2200000000000009,2,1,2,2,3,1,3,2,6,0,18,7,LH,0.11,0.4300000000000002,0.05,0.6100000000000003
12,17,34,1,1,0.25000000000000006,1,2,75,83,109,116,0.7100000000000003,0.07,0.17,0.08,2,1,1,1,3,1,1,1,3,0,10,7,LH,0.23666666666666675,0.07,0.17,0.08
12,18,35,1,5,0.10999999999999999,2,2,44,90,62,111,1.0700000000000007,0.6300000000000003,0.08,0.01,5,2,1,1,5,2,1,1,5,0,14,7,LH,0.21400000000000008,0.31500000000000017,0.08,0.01
12,18,36,1,3,0.3900000000000002,2,4,35,16,100,31,1.0300000000000005,0.12999999999999998,0.11999999999999998,0.04,4,1,1,1,6,1,1,1,5,0,18,7,LH,0.17166666666666672,0.12999999999999998,0.11999999999999998,0.04
12,19,37,1,4,0.23000000000000007,2,3,100,40,107,23,0.6900000000000003,0.12999999999999998,0.5900000000000003,1.420000000000001,4,1,2,2,6,1,2,2,2,0,15,7,LH,0.115,0.12999999999999998,0.29500000000000015,0.7100000000000005
12,19,38,1,3,0.21000000000000005,2,3,35,77,109,3,0.7500000000000003,0.7700000000000005,2.669999999999987,0.03,4,3,2,1,5,3,2,1,5,0,16,7,LH,0.15000000000000005,0.25666666666666677,1.3349999999999935,0.03
12,20,39,1,8,0.8500000000000005,2,4,113,71,46,78,1.1300000000000006,0.08,0.4100000000000002,0.09999999999999999,4,1,1,1,6,1,1,1,2,0,14,7,LH,0.1883333333333334,0.08,0.4100000000000002,0.09999999999999999
12,20,40,1,2,0.23000000000000007,2,3,51,104,28,52,0.6500000000000002,0.5400000000000003,1.7000000000000013,0.01,4,2,4,1,5,3,4,1,4,0,15,7,LH,0.13,0.18000000000000005,0.42500000000000027,0.01
12,21,41,1,5,1.7600000000000013,4,6,48,96,37,93,1.9100000000000013,0.4200000000000002,0.08,0.2700000000000001,5,1,1,2,7,1,1,2,5,0,16,7,LH,0.27285714285714296,0.4200000000000002,0.08,0.135
12,21,42,1,3,0.23000000000000007,2,3,31,104,53,17,0.6100000000000002,0.11999999999999998,0.2800000000000001,0.03,4,1,2,1,5,1,3,1,5,0,17,7,LH,0.12200000000000003,0.11999999999999998,0.09333333333333332,0.03
12,22,43,1,10,0.20000000000000004,2,3,96,58,104,12,0.5300000000000001,0.5200000000000002,0.04,0.15,4,2,1,1,5,3,1,1,3,0,15,7,LH,0.106,0.17333333333333337,0.04,0.15
12,22,44,1,8,0.5300000000000002,3,4,116,110,73,117,0.9100000000000004,0.18000000000000002,0.5500000000000003,0.02,5,1,1,1,6,1,1,1,2,0.5,9,7,LH,0.15166666666666673,0.18000000000000002,0.5500000000000003,0.02
13,1,1,0,2,0.3200000000000001,2,4,59,11,52,38,2.7499999999999925,0.8300000000000005,0.21000000000000005,0.7400000000000004,5,1,2,2,8,1,2,2,4,0,19,7,LH,0.34375000000000017,0.8300000000000005,0.10500000000000002,0.37000000000000016
13,1,2,0,1,0.18000000000000002,1,2,110,13,62,113,2.26,0.8900000000000006,0.7600000000000005,2.010000000000001,2,1,1,3,3,1,1,3,3,0,14,7,LH,0.7533333333333332,0.8900000000000006,0.7600000000000005,0.6700000000000004
13,2,3,0,3,0.38000000000000017,2,4,18,30,57,13,2.839999999999992,0.3300000000000001,0.6700000000000004,0.49000000000000027,4,2,1,3,10,3,1,4,5,0,21,7,LH,0.28400000000000014,0.11000000000000001,0.6700000000000004,0.12250000000000003
13,2,4,0,9,0.3100000000000001,2,5,61,47,46,71,2.0200000000000014,2.339999999999994,0.9400000000000006,0.36000000000000015,5,3,2,2,11,6,3,2,4,0,18,7,LH,0.1836363636363637,0.3900000000000002,0.31333333333333346,0.18000000000000005
13,3,5,0,9,0.34000000000000014,2,3,36,62,35,15,2.829999999999991,0.2900000000000001,2.1799999999999975,0.3900000000000002,5,1,5,2,8,1,10,2,4,0,20,7,LH,0.3537500000000002,0.2900000000000001,0.21800000000000005,0.19500000000000003
13,3,6,0,1,0.26000000000000006,2,3,60,76,39,51,3.6599999999999717,1.1100000000000008,0.4000000000000002,0.18000000000000002,6,4,1,1,12,4,1,1,3,0,16,7,LH,0.30500000000000016,0.2775000000000001,0.4000000000000002,0.18000000000000002
