Subject,Round,Phase,afterbreak,Schema,Schema_RT,Schema_OB,Schema_AS,Cho_1,Cho_2,Cho_3,Cho_4,RT_1,RT_2,RT_3,RT_4,OB_1,OB_2,OB_3,OB_4,AS_1,AS_2,AS_3,AS_4,schema_payoff,AC,performance,breakR,type,dwellmean_1,dwellmean_2,dwellmean_3,dwellmean_4
1,1,1,0,7,0.5800000000000003,2,3,25,13,63,16,2.490000000000002,4.489999999999949,0.5200000000000002,0.6800000000000004,5,10,4,3,8,22,7,3,6,0,21,7,Hc,0.31125000000000014,0.20409090909090916,0.07428571428571429,0.22666666666666677
1,1,2,0,6,0.6200000000000003,2,3,12,74,97,48,2.520000000000002,1.380000000000001,0.9000000000000006,0.19000000000000003,5,3,3,1,13,7,5,1,6,0,16,7,Hc,0.1938461538461539,0.1971428571428572,0.18000000000000005,0.19000000000000003
1,2,3,0,8,0.8900000000000006,2,5,82,119,109,10,3.7999999999999825,0.19000000000000003,0.17,0.5400000000000003,5,1,1,2,24,1,1,4,2,0,13,7,Hc,0.15833333333333335,0.19000000000000003,0.17,0.135
1,2,4,0,4,1.0000000000000007,10,13,46,14,97,22,6.159999999999935,0.49000000000000027,0.24000000000000007,0.4100000000000002,16,3,3,2,39,3,4,2,2,0,19,7,Hc,0.157948717948718,0.16333333333333339,0.06,0.2050000000000001
1,3,5,0,3,0.5700000000000003,2,5,25,110,31,6,1.9500000000000013,1.350000000000001,0.5400000000000003,0.25000000000000006,5,2,3,2,9,6,3,3,5,0,18,7,Hc,0.21666666666666673,0.22500000000000006,0.18000000000000005,0.08333333333333334
1,3,6,0,5,0.48000000000000026,2,5,38,46,98,45,2.410000000000002,0.47000000000000025,0.7200000000000004,0.12999999999999998,7,3,3,2,16,4,4,3,5,0.5,17,7,Hc,0.15062500000000004,0.11750000000000002,0.18000000000000008,0.043333333333333335
1,4,7,0,9,0.7700000000000005,6,8,62,3,113,9,2.2800000000000016,3.4399999999999706,0.5000000000000002,0.20000000000000004,9,8,1,3,16,14,1,3,4,0,18,7,Hc,0.14250000000000004,0.24571428571428583,0.5000000000000002,0.06666666666666667
1,4,8,0,5,1.310000000000001,2,9,37,88,99,100,5.259999999999961,1.5100000000000011,0.08,0.02,11,3,1,1,28,3,1,1,5,0,12,7,Hc,0.18785714285714292,0.5033333333333336,0.08,0.02
1,5,9,0,2,0.5800000000000003,2,8,56,75,104,55,2.620000000000001,1.6000000000000012,1.6300000000000012,0.2900000000000001,5,5,3,4,16,14,3,4,4,0,13,7,Hc,0.16375000000000006,0.1142857142857143,0.5433333333333337,0.0725
1,5,10,0,10,1.2200000000000009,3,8,66,114,61,94,2.4600000000000017,1.330000000000001,0.22000000000000006,0.18000000000000002,5,5,1,1,14,11,1,1,3,0,13,7,Hc,0.17571428571428577,0.12090909090909091,0.22000000000000006,0.18000000000000002
1,6,11,0,5,1.300000000000001,2,7,18,40,47,20,4.129999999999985,0.19000000000000003,1.0400000000000007,0.09,7,1,3,1,24,1,5,1,5,0,22,7,Hc,0.17208333333333337,0.19000000000000003,0.20800000000000007,0.09
1,6,12,0,8,0.8200000000000005,3,8,64,117,66,73,2.9999999999999982,0.2900000000000001,0.2900000000000001,0.7100000000000004,8,1,2,3,25,1,3,3,2,0,13,7,Hc,0.12000000000000002,0.2900000000000001,0.09666666666666666,0.23666666666666675
1,7,13,1,8,1.1000000000000008,3,9,112,92,91,95,2.740000000000002,0.3200000000000001,0.5200000000000002,0.4000000000000002,5,2,2,2,12,2,3,2,2,0.5,11,7,Hc,0.22833333333333342,0.16000000000000003,0.17333333333333337,0.20000000000000004
1,7,14,1,5,0.9100000000000006,2,6,43,16,68,63,3.4999999999999893,0.5800000000000003,0.5400000000000003,0.15,6,2,2,1,24,5,2,1,5,0,19,7,Hc,0.14583333333333337,0.11600000000000002,0.2700000000000001,0.15
1,8,15,1,9,0.8900000000000006,2,6,67,24,80,18,2.700000000000002,1.5500000000000012,0.19000000000000003,0.11999999999999998,6,4,1,1,16,8,1,1,4,0,19,7,Hc,0.16875000000000004,0.19375000000000006,0.19000000000000003,0.11999999999999998
1,8,16,1,4,0.5600000000000003,2,5,100,60,11,55,2.530000000000002,0.8300000000000005,1.1800000000000008,0.08,5,3,2,1,19,3,3,1,2,0,16,7,Hc,0.13315789473684214,0.2766666666666667,0.39333333333333353,0.08
1,9,17,1,7,0.9400000000000006,13,18,24,23,50,53,2.2400000000000015,0.7200000000000004,4.209999999999955,0.19000000000000003,17,4,10,3,24,5,21,3,6,0,20,7,Hc,0.09333333333333335,0.14400000000000002,0.20047619047619053,0.06333333333333334
1,9,18,1,9,0.5300000000000002,2,5,1,67,108,61,2.929999999999993,0.9100000000000006,0.11999999999999998,0.25000000000000006,7,4,1,2,16,4,1,3,4,0,16,7,Hc,0.18312500000000007,0.22750000000000006,0.11999999999999998,0.08333333333333334
1,10,19,1,3,4.40999999999995,6,19,26,58,49,28,4.879999999999951,0.6600000000000004,0.36000000000000015,2.7399999999999856,8,2,1,9,23,2,1,14,5,0,18,7,Hc,0.21217391304347835,0.3300000000000001,0.36000000000000015,0.19571428571428579
1,10,20,1,7,0.8800000000000006,3,7,105,14,82,83,2.3200000000000016,1.0800000000000007,3.6299999999999666,0.2700000000000001,5,2,6,2,18,9,12,2,6,0,14,7,Hc,0.12888888888888891,0.12000000000000001,0.3025000000000001,0.13500000000000004
1,11,21,1,10,0.8400000000000005,8,12,89,41,21,46,2.1400000000000015,0.7700000000000005,1.1800000000000008,0.5200000000000002,10,2,2,1,20,3,3,1,3,0,19,7,Hc,0.10700000000000001,0.25666666666666677,0.39333333333333353,0.5200000000000002
1,11,22,1,3,0.47000000000000025,2,4,78,35,58,26,2.330000000000002,0.5700000000000003,0.18000000000000002,0.12999999999999998,6,3,2,2,12,5,2,2,5,0,17,7,Hc,0.1941666666666667,0.114,0.09,0.06499999999999999
1,12,23,1,5,2.949999999999981,8,16,42,44,102,19,3.5299999999999816,0.7100000000000004,0.22000000000000006,0.9100000000000006,10,3,1,2,18,6,1,4,5,0,18,7,Hc,0.19611111111111118,0.11833333333333335,0.22000000000000006,0.2275000000000001
1,12,24,1,3,0.9100000000000006,3,7,31,68,89,120,1.7700000000000011,1.9100000000000015,0.7300000000000004,0.5000000000000002,5,5,2,3,10,9,2,6,5,0,14,7,Hc,0.17700000000000007,0.21222222222222228,0.36500000000000016,0.08333333333333334
1,13,25,1,8,0.9600000000000006,2,5,120,49,57,58,3.2899999999999947,0.21000000000000005,0.4000000000000002,0.35000000000000014,7,1,2,2,18,1,3,2,2,0.5,14,7,Hc,0.18277777777777782,0.21000000000000005,0.13333333333333336,0.17500000000000002
1,13,26,1,4,0.9000000000000006,4,8,18,65,85,87,18.960000000000026,0.01,0.01,0.02,20,1,1,1,89,1,1,1,2,0,16,7,Hc,0.21303370786516862,0.01,0.01,0.02
1,14,27,1,2,0.9300000000000006,2,9,58,95,59,104,2.070000000000001,0.9500000000000006,0.4000000000000002,0.11999999999999998,6,4,1,1,19,7,1,1,4,0,13,7,Hc,0.10894736842105265,0.13571428571428573,0.4000000000000002,0.11999999999999998
1,14,28,1,1,0.38000000000000017,2,2,3,69,113,44,13.489999999999766,0.02,0.01,0.02,20,1,1,1,60,1,1,1,3,0,17,7,Hc,0.2248333333333334,0.02,0.01,0.02
1,15,29,1,1,0.5200000000000002,4,5,77,115,84,25,1.4200000000000008,2.0799999999999996,0.35000000000000014,0.12999999999999998,6,2,3,1,7,8,3,1,3,0,13,7,Hc,0.20285714285714293,0.2600000000000001,0.11666666666666668,0.12999999999999998
1,15,30,1,9,0.7900000000000005,7,8,6,5,4,100,6.049999999999933,1.5800000000000012,3.9999999999999587,0.01,15,6,11,1,30,9,21,1,4,0.5,20,7,Hc,0.20166666666666674,0.1755555555555556,0.19047619047619055,0.01
1,16,31,1,9,0.5400000000000003,2,6,21,118,14,74,3.55999999999998,0.4200000000000002,0.5900000000000003,0.10999999999999999,8,2,2,1,18,4,3,1,4,0,17,7,Hc,0.19777777777777786,0.105,0.19666666666666677,0.10999999999999999
1,16,32,1,6,0.5800000000000003,2,3,88,7,1,101,2.4000000000000017,3.2699999999999743,0.9900000000000007,0.5400000000000003,6,6,5,3,14,19,6,3,6,0,17,7,Hc,0.17142857142857149,0.1721052631578948,0.16500000000000004,0.18000000000000005
1,17,33,1,1,0.6500000000000004,11,11,28,97,66,62,6.079999999999929,1.0900000000000007,0.07,0.10999999999999999,20,4,2,2,47,5,2,2,3,0,15,7,Hc,0.1293617021276596,0.21800000000000005,0.035,0.05499999999999999
1,17,34,1,8,0.47000000000000025,2,4,109,116,55,120,1.750000000000001,0.8700000000000006,0.9100000000000006,0.48000000000000026,4,3,2,3,12,5,7,3,2,0.5,10,7,Hc,0.14583333333333337,0.17400000000000004,0.13000000000000003,0.16000000000000006
1,18,35,1,10,2.4999999999999907,4,13,95,113,27,26,4.019999999999992,0.6900000000000004,0.3000000000000001,0.20000000000000004,6,2,2,2,19,5,3,2,3,0,15,7,Hc,0.21157894736842112,0.138,0.1,0.1
1,18,36,1,2,0.4400000000000002,2,3,52,80,82,40,1.550000000000001,1.7000000000000013,0.12999999999999998,0.24000000000000007,5,4,1,1,7,11,1,1,4,0,15,7,Hc,0.2214285714285715,0.15454545454545457,0.12999999999999998,0.24000000000000007
1,19,37,1,10,1.7200000000000013,5,9,33,92,97,108,3.190000000000002,0.16,0.6200000000000003,0.35000000000000014,7,1,2,2,18,1,4,2,3,0,12,7,Hc,0.17722222222222228,0.16,0.15500000000000003,0.17500000000000004
1,19,38,1,1,0.9600000000000006,2,10,82,113,38,68,2.760000000000002,0.4400000000000002,0.24000000000000007,0.6500000000000004,6,2,2,3,18,2,2,4,3,0,14,7,Hc,0.15333333333333338,0.22000000000000008,0.12,0.16250000000000003
1,20,39,1,10,0.8100000000000005,4,7,96,53,44,38,1.680000000000001,1.1000000000000008,0.5000000000000002,0.21000000000000005,6,3,2,1,11,10,5,1,3,0,17,7,Hc,0.15272727272727277,0.11000000000000001,0.1,0.21000000000000005
1,20,40,1,1,0.4400000000000002,2,6,84,4,30,81,1.3400000000000007,1.8600000000000014,0.6000000000000003,0.13999999999999999,3,3,3,2,7,5,4,2,3,0,17,7,Hc,0.19142857142857153,0.3720000000000002,0.15000000000000002,0.07
1,21,41,1,7,0.8100000000000005,4,13,15,14,48,59,2.2000000000000015,1.6300000000000012,0.09,0.12999999999999998,7,4,1,1,21,6,1,1,6,0,21,7,Hc,0.10476190476190478,0.2716666666666668,0.09,0.12999999999999998
1,21,42,1,9,1.1400000000000008,3,6,12,28,72,75,3.529999999999994,0.19000000000000003,0.08,0.18000000000000002,6,1,1,1,20,1,1,1,4,0,18,7,Hc,0.17650000000000005,0.19000000000000003,0.08,0.18000000000000002
2,1,1,0,4,1.6400000000000012,3,13,108,6,82,34,3.3200000000000025,17.57999999999995,0.01,0.01,5,17,1,1,21,80,1,1,2,0,16,7,Hc,0.15809523809523812,0.21975000000000008,0.01,0.01
2,1,2,0,10,1.1200000000000008,2,11,88,58,42,13,2.4300000000000015,2.899999999999982,0.4200000000000002,0.22000000000000006,5,4,1,1,19,14,1,1,3,0,18,7,Hc,0.12789473684210528,0.2071428571428572,0.4200000000000002,0.22000000000000006
2,2,3,0,3,0.6200000000000003,2,5,31,54,53,97,2.849999999999997,1.460000000000001,0.6100000000000003,0.35000000000000014,4,2,2,2,15,15,5,2,5,0,15,7,Hc,0.19000000000000006,0.09733333333333334,0.12200000000000003,0.17500000000000004
2,2,4,0,1,0.8600000000000005,2,7,6,111,75,78,5.199999999999952,0.7000000000000004,0.16,0.12999999999999998,10,2,1,1,32,3,1,1,3,0,14,7,Hc,0.16250000000000006,0.23333333333333342,0.16,0.12999999999999998
2,3,5,0,9,0.5300000000000002,2,3,69,62,27,21,2.0000000000000013,1.0900000000000007,2.06,0.20000000000000004,4,2,4,1,9,3,12,1,4,0,19,7,Hc,0.2222222222222223,0.3633333333333335,0.17166666666666672,0.20000000000000004
2,3,6,0,1,0.7400000000000004,2,7,4,48,80,73,4.539999999999964,1.6400000000000012,0.09,0.060000000000000005,8,4,1,1,22,8,1,1,3,0,17,7,Hc,0.20636363636363642,0.20500000000000007,0.09,0.060000000000000005
2,4,7,0,3,1.330000000000001,2,11,111,83,78,12,5.089999999999964,0.34000000000000014,1.1400000000000008,0.5900000000000003,6,2,2,1,25,3,6,1,5,0,14,7,Hc,0.2036000000000001,0.11333333333333333,0.19000000000000006,0.5900000000000003
2,4,8,0,5,0.9400000000000006,3,9,43,37,41,24,4.569999999999967,0.17,0.3900000000000002,1.460000000000001,8,1,2,4,27,1,3,8,5,0.5,21,7,Hc,0.1692592592592593,0.17,0.13,0.18250000000000005
2,5,9,0,10,0.8100000000000005,2,4,85,87,10,59,3.279999999999992,1.0200000000000007,1.5600000000000012,0.35000000000000014,6,3,6,1,14,3,7,2,3,0,16,7,Hc,0.23428571428571437,0.3400000000000002,0.22285714285714292,0.17500000000000002
2,5,10,0,4,1.6700000000000013,2,13,100,104,72,107,4.27999999999999,0.6100000000000003,0.5800000000000003,0.24000000000000007,6,2,2,1,26,6,5,1,2,0.5,10,7,Hc,0.16461538461538464,0.10166666666666667,0.11600000000000002,0.24000000000000007
2,6,11,0,7,1.0600000000000007,2,12,13,23,14,77,2.610000000000002,3.369999999999972,0.19000000000000003,0.7800000000000005,4,7,3,4,18,14,3,5,6,0.5,21,7,Hc,0.14500000000000002,0.2407142857142858,0.06333333333333332,0.15600000000000003
2,6,12,0,6,1.380000000000001,2,8,88,96,95,8,4.739999999999974,0.49000000000000027,1.330000000000001,1.340000000000001,6,2,4,5,24,2,8,7,6,0.5,15,7,Hc,0.19750000000000006,0.24500000000000005,0.16625000000000006,0.19142857142857148
2,7,13,1,10,0.24000000000000007,2,3,16,89,24,23,19.100000000000147,0.01,0.02,0.01,20,1,1,1,98,1,1,1,3,0.5,21,7,Hc,0.19489795918367353,0.01,0.02,0.01
2,7,14,1,9,0.7000000000000004,2,4,10,67,66,83,5.59999999999994,0.4200000000000002,0.25000000000000006,1.6700000000000013,11,3,2,7,26,4,2,9,4,0,17,7,Hc,0.21538461538461545,0.105,0.125,0.1855555555555556
2,8,15,1,4,0.6000000000000003,2,7,99,51,54,91,2.580000000000002,3.2499999999999747,0.3300000000000001,0.2800000000000001,6,6,2,2,23,16,2,2,2,0,13,7,Hc,0.11217391304347828,0.20312500000000006,0.16500000000000004,0.14000000000000004
2,8,16,1,8,0.6600000000000004,3,5,71,4,117,3,3.7099999999999795,1.2100000000000009,2.159999999999998,0.7700000000000005,7,5,5,4,18,10,20,4,2,0,18,7,Hc,0.2061111111111112,0.12100000000000002,0.10800000000000003,0.19250000000000006
2,9,17,1,8,0.9200000000000006,2,6,111,66,72,65,3.4499999999999904,1.7800000000000014,0.8300000000000005,0.09,10,4,3,1,24,13,6,1,2,0.5,14,7,Hc,0.14375000000000004,0.13692307692307695,0.13833333333333336,0.09
2,9,18,1,2,0.8400000000000005,2,9,51,52,7,54,2.410000000000002,2.669999999999987,0.4000000000000002,0.09,5,8,2,1,17,10,2,1,4,0.5,18,7,Hc,0.14176470588235296,0.2670000000000001,0.2,0.09
2,10,19,1,9,0.46000000000000024,2,5,92,91,1,12,6.479999999999916,0.9100000000000006,0.10999999999999999,0.03,10,4,2,1,33,6,2,1,4,0,18,7,Hc,0.19636363636363643,0.1516666666666667,0.05500000000000001,0.03
2,10,20,1,3,0.2900000000000001,2,3,34,81,79,84,5.229999999999939,0.12999999999999998,0.4300000000000002,1.8400000000000014,12,1,2,6,24,1,2,7,5,0.5,14,7,Hc,0.21791666666666676,0.12999999999999998,0.21500000000000008,0.26285714285714296
2,11,21,1,7,0.34000000000000014,2,4,18,78,59,82,2.979999999999988,1.290000000000001,3.239999999999975,0.25000000000000006,6,6,6,1,13,8,23,1,6,0,16,7,Hc,0.22923076923076932,0.16125000000000006,0.14086956521739133,0.25000000000000006
2,11,22,1,8,0.6700000000000004,4,6,116,6,114,12,3.879999999999976,0.5200000000000002,0.11999999999999998,0.3900000000000002,10,3,2,2,26,4,2,3,2,0,16,7,Hc,0.14923076923076925,0.13,0.06,0.13
2,12,23,1,3,0.9500000000000006,2,10,26,2,88,91,3.1699999999999973,0.6100000000000003,1.9900000000000015,1.270000000000001,5,2,5,6,22,2,9,6,5,0,17,7,Hc,0.1440909090909091,0.30500000000000016,0.2211111111111112,0.21166666666666675
2,12,24,1,9,0.4000000000000002,2,3,117,42,68,82,3.5699999999999767,0.7300000000000004,0.45000000000000023,0.25000000000000006,6,3,3,1,20,4,3,1,4,0,14,7,Hc,0.17850000000000005,0.18250000000000005,0.15000000000000005,0.25000000000000006
2,13,25,1,4,0.6500000000000004,2,7,98,106,95,38,2.370000000000002,1.8900000000000015,1.280000000000001,0.11999999999999998,4,5,2,3,19,12,2,3,2,0,12,7,Hc,0.12473684210526317,0.15750000000000003,0.6400000000000003,0.04
2,13,26,1,6,1.0800000000000007,3,7,6,79,72,63,3.7999999999999865,1.6300000000000012,0.7100000000000004,2.249999999999996,5,3,2,4,17,6,5,8,6,0,17,7,Hc,0.22352941176470595,0.2716666666666668,0.14200000000000002,0.2812500000000001
2,14,27,1,10,0.9000000000000006,2,9,87,88,3,93,3.01,0.8600000000000005,0.6100000000000003,0.8200000000000005,5,2,2,5,23,5,3,7,3,0.5,15,7,Hc,0.13086956521739132,0.17200000000000004,0.2033333333333334,0.11714285714285715
2,14,28,1,7,0.2900000000000001,2,3,13,75,106,100,13.029999999999774,0.01,0.01,0.01,18,1,1,1,53,1,1,1,6,0,13,7,Hc,0.24584905660377368,0.01,0.01,0.01
2,15,29,1,3,0.6000000000000003,2,4,27,74,105,75,2.520000000000002,1.0600000000000007,0.5900000000000003,0.6200000000000003,5,3,2,3,18,6,3,3,5,0,13,7,Hc,0.14000000000000004,0.17666666666666672,0.1966666666666667,0.20666666666666675
2,15,30,1,8,0.7100000000000004,5,7,120,22,48,49,2.4200000000000017,1.420000000000001,0.7700000000000005,0.36000000000000015,8,5,3,2,15,7,4,4,2,0,17,7,Hc,0.16133333333333338,0.20285714285714293,0.19250000000000003,0.09000000000000001
2,16,31,1,9,3.2099999999999755,7,16,13,25,65,28,5.269999999999976,0.7800000000000005,1.1000000000000008,1.9700000000000015,11,2,3,5,25,2,3,11,4,0,20,7,Hc,0.21080000000000007,0.3900000000000002,0.3666666666666668,0.17909090909090913
2,16,32,1,1,0.5700000000000003,2,7,115,113,47,43,3.869999999999974,0.6300000000000003,0.7000000000000004,0.18000000000000002,6,2,2,1,26,4,4,1,3,0,14,7,Hc,0.14884615384615388,0.15750000000000003,0.17500000000000004,0.18000000000000002
2,17,33,1,7,0.4100000000000002,2,5,14,105,16,99,3.829999999999971,0.4100000000000002,0.19000000000000003,0.25000000000000006,8,2,2,2,27,3,2,2,6,0,16,7,Hc,0.14185185185185187,0.1366666666666667,0.095,0.125
2,17,34,1,2,0.36000000000000015,2,4,2,60,3,49,4.889999999999948,0.07,0.9200000000000006,0.10999999999999999,10,1,3,2,23,1,5,2,4,0,20,7,Hc,0.212608695652174,0.07,0.18400000000000005,0.05500000000000001
2,18,35,1,3,1.2200000000000009,3,9,30,58,100,22,3.8299999999999894,0.9100000000000006,0.12999999999999998,0.5200000000000002,6,2,1,3,26,9,1,3,5,0,17,7,Hc,0.14730769230769233,0.1011111111111111,0.12999999999999998,0.17333333333333337
2,18,36,1,8,0.25000000000000006,4,5,2,114,111,120,5.519999999999932,0.07,0.13999999999999999,0.060000000000000005,12,1,2,1,35,1,2,1,2,0.5,12,7,Hc,0.15771428571428575,0.07,0.07,0.060000000000000005
2,19,37,1,6,1.5700000000000012,3,10,6,113,1,7,3.9799999999999938,2.8299999999999836,1.350000000000001,5.089999999999936,9,8,4,13,27,11,4,18,6,0.5,20,7,Hc,0.14740740740740743,0.2572727272727274,0.33750000000000013,0.2827777777777779
2,19,38,1,10,0.9700000000000006,6,9,105,51,101,88,4.599999999999968,0.2800000000000001,0.5000000000000002,0.05,13,1,2,1,33,1,3,1,3,0,11,7,Hc,0.13939393939393943,0.2800000000000001,0.16666666666666669,0.05
2,20,39,1,7,1.1500000000000008,3,12,15,21,58,31,1.700000000000001,1.430000000000001,0.6400000000000003,1.7400000000000013,4,2,3,2,13,8,4,5,6,0,21,7,Hc,0.1307692307692308,0.17875000000000005,0.16000000000000006,0.34800000000000014
2,20,40,1,5,0.7800000000000005,2,5,46,95,91,88,6.669999999999919,0.01,0.9500000000000006,0.6900000000000004,10,1,5,3,28,1,8,3,5,0.5,14,7,Hc,0.2382142857142858,0.01,0.11875000000000001,0.2300000000000001
2,21,41,1,9,0.17,3,3,13,70,92,26,9.989999999999835,0.01,0.04,0.01,14,1,1,1,57,1,1,1,4,0,18,7,Hc,0.1752631578947369,0.01,0.04,0.01
2,21,42,1,4,0.5000000000000002,4,5,106,60,9,98,2.6599999999999984,2.4999999999999907,1.0200000000000007,0.04,6,5,2,1,21,12,6,1,2,0,14,7,Hc,0.12666666666666668,0.2083333333333334,0.17000000000000007,0.04
3,1,1,0,5,0.5800000000000003,2,7,52,73,43,102,3.1699999999999893,0.35000000000000014,0.10999999999999999,0.5100000000000002,8,1,1,2,20,1,1,3,5,0,14,7,Hc,0.15850000000000003,0.35000000000000014,0.10999999999999999,0.17000000000000004
3,1,2,0,10,0.47000000000000025,2,6,68,92,13,111,2.729999999999996,0.22000000000000006,0.45000000000000023,0.4300000000000002,6,2,2,2,17,2,2,4,3,0,15,7,Hc,0.1605882352941177,0.11000000000000001,0.22500000000000003,0.10750000000000001
3,2,3,0,9,1.330000000000001,2,10,66,43,18,19,3.3300000000000023,1.350000000000001,0.23000000000000007,0.19000000000000003,7,4,1,1,22,7,1,1,4,0,21,7,Hc,0.1513636363636364,0.1928571428571429,0.23000000000000007,0.19000000000000003
3,2,4,0,3,0.9000000000000006,2,7,35,115,109,55,6.819999999999919,0.09,0.10999999999999999,0.7400000000000004,12,2,2,3,35,2,2,3,5,0,13,7,Hc,0.19485714285714292,0.045,0.05499999999999999,0.24666666666666678
3,3,5,0,2,0.35000000000000014,2,3,46,45,114,56,2.4899999999999984,2.149999999999998,0.26000000000000006,0.19000000000000003,5,7,1,3,13,12,1,3,4,0,16,7,Hc,0.1915384615384616,0.17916666666666672,0.26000000000000006,0.06333333333333332
3,3,6,0,9,0.8100000000000005,2,4,19,65,106,68,3.2899999999999916,0.26000000000000006,0.21000000000000005,0.12999999999999998,7,2,1,1,13,2,1,1,4,0,16,7,Hc,0.2530769230769232,0.13000000000000003,0.21000000000000005,0.12999999999999998
3,4,7,0,6,0.7700000000000005,2,6,38,48,46,42,3.0099999999999967,0.16,0.3200000000000001,0.3300000000000001,6,1,2,2,18,1,2,3,6,1,60,7,Hc,0.16722222222222227,0.16,0.16000000000000003,0.11
3,4,8,0,3,0.5100000000000002,2,4,28,23,36,51,2.1300000000000017,1.490000000000001,0.09999999999999999,0.25000000000000006,7,3,2,2,12,5,2,2,5,0,20,7,Hc,0.17750000000000005,0.2980000000000001,0.05,0.125
3,5,9,0,7,0.5500000000000003,2,5,22,28,34,19,2.110000000000001,1.430000000000001,0.12999999999999998,0.060000000000000005,4,3,1,1,16,10,1,1,6,0,22,7,Hc,0.13187500000000002,0.14300000000000002,0.12999999999999998,0.060000000000000005
3,5,10,0,5,0.6100000000000003,3,5,55,107,42,37,2.2400000000000015,2.010000000000001,0.07,0.5300000000000002,5,6,1,3,8,15,1,3,5,0,16,7,Hc,0.28000000000000014,0.134,0.07,0.17666666666666672
3,6,11,0,10,0.4400000000000002,2,4,85,19,90,24,1.4100000000000008,1.0400000000000007,0.17,0.38000000000000017,4,3,3,2,9,5,4,2,3,0,18,7,Hc,0.1566666666666667,0.20800000000000007,0.042499999999999996,0.19000000000000003
3,6,12,0,1,0.8600000000000005,2,8,83,32,77,80,2.1500000000000012,0.9800000000000006,0.36000000000000015,0.9300000000000006,5,3,2,4,20,5,4,5,3,0.5,14,7,Hc,0.10750000000000001,0.1960000000000001,0.09,0.18600000000000005
3,7,13,1,9,0.6400000000000003,2,6,27,17,61,80,3.1099999999999914,0.37000000000000016,0.09999999999999999,0.7000000000000004,6,2,1,2,14,4,1,2,4,0,18,7,Hc,0.22214285714285723,0.0925,0.09999999999999999,0.35000000000000014
3,7,14,1,6,0.5700000000000003,2,7,54,9,4,86,3.9899999999999713,0.8600000000000005,0.3300000000000001,0.4200000000000002,7,4,2,2,19,5,2,3,6,0,19,7,Hc,0.21000000000000008,0.17200000000000004,0.16500000000000006,0.14000000000000004
3,8,15,1,3,0.7500000000000004,2,8,92,29,5,31,3.8399999999999785,0.23000000000000007,1.9100000000000015,0.38000000000000017,8,2,5,3,23,2,13,4,5,0,19,7,Hc,0.16695652173913048,0.11499999999999999,0.14692307692307693,0.09500000000000001
3,8,16,1,5,0.12999999999999998,2,2,13,50,81,75,9.449999999999847,0.02,0.01,0.03,20,2,1,2,55,2,1,2,5,0,16,7,Hc,0.17181818181818187,0.01,0.01,0.015
3,9,17,1,10,0.48000000000000026,2,4,15,92,17,28,2.649999999999998,0.4000000000000002,0.7000000000000004,0.17,10,2,2,2,16,3,7,3,3,0,20,7,Hc,0.16562500000000005,0.13333333333333333,0.10000000000000003,0.05666666666666666
3,9,18,1,1,0.6500000000000004,2,4,79,82,73,12,1.700000000000001,1.0000000000000007,0.2700000000000001,0.6100000000000003,5,3,2,3,10,6,3,5,3,0.5,15,7,Hc,0.17000000000000004,0.1666666666666667,0.09,0.12200000000000003
3,10,19,1,9,0.9200000000000006,2,9,36,90,69,64,3.0799999999999983,0.4200000000000002,0.16,0.26000000000000006,5,2,1,2,20,2,1,2,4,0,16,7,Hc,0.15400000000000003,0.21000000000000005,0.16,0.12999999999999998
3,10,20,1,2,0.9800000000000006,2,9,51,53,116,16,1.620000000000001,0.7100000000000004,1.5100000000000011,0.6000000000000003,4,2,4,3,12,3,8,5,4,0,16,7,Hc,0.135,0.23666666666666678,0.18875000000000006,0.12
3,11,21,1,10,0.8500000000000005,3,8,118,93,23,67,2.1600000000000015,0.46000000000000024,0.7900000000000005,0.35000000000000014,6,1,2,2,14,1,2,2,3,0,15,7,Hc,0.15428571428571433,0.46000000000000024,0.3950000000000002,0.17500000000000004
3,11,22,1,4,0.7200000000000004,3,5,60,75,57,79,3.769999999999979,0.2900000000000001,0.08,0.2800000000000001,12,1,1,1,21,1,1,1,2,0,14,7,Hc,0.17952380952380959,0.2900000000000001,0.08,0.2800000000000001
3,12,23,1,10,1.380000000000001,13,18,25,109,53,51,3.3000000000000025,0.5500000000000003,0.7300000000000004,0.18000000000000002,16,3,4,1,27,4,6,1,3,0,15,7,Hc,0.12222222222222225,0.1375,0.12166666666666669,0.18000000000000002
3,12,24,1,1,0.8100000000000005,9,10,81,9,83,39,2.660000000000002,2.399999999999993,0.7200000000000004,0.8900000000000006,12,9,3,4,20,23,6,4,3,0,17,7,Hc,0.13300000000000003,0.10434782608695654,0.12000000000000002,0.2225000000000001
3,13,25,1,10,2.6999999999999864,9,18,11,95,3,89,4.779999999999986,0.2700000000000001,0.9400000000000006,0.3300000000000001,13,2,3,2,26,2,4,2,3,0,18,7,Hc,0.1838461538461539,0.13500000000000004,0.23500000000000004,0.16500000000000004
3,13,26,1,7,0.6400000000000003,8,8,119,30,112,82,7.129999999999907,0.26000000000000006,0.01,0.060000000000000005,18,2,1,1,50,2,1,2,6,0,12,7,Hc,0.14260000000000003,0.13000000000000003,0.01,0.03
3,14,27,1,1,0.6600000000000004,2,4,82,73,54,58,3.039999999999994,0.8100000000000005,0.3000000000000001,0.8100000000000005,8,6,2,2,15,7,2,2,3,0,14,7,Hc,0.20266666666666672,0.11571428571428573,0.15000000000000002,0.40500000000000025
3,14,28,1,3,1.1100000000000008,17,22,36,15,87,68,3.7599999999999882,2.429999999999992,0.4100000000000002,0.9100000000000006,20,7,4,3,31,13,5,4,5,0,18,7,Hc,0.1212903225806452,0.18692307692307697,0.082,0.2275000000000001
3,15,29,1,7,0.6400000000000003,2,4,24,19,39,23,2.4200000000000017,0.9600000000000006,0.3200000000000001,1.1600000000000008,5,2,2,3,16,4,3,5,6,0.5,23,7,Hc,0.15125000000000002,0.24000000000000007,0.10666666666666669,0.2320000000000001
3,15,30,1,6,1.6400000000000012,9,13,1,109,30,112,4.769999999999978,0.24000000000000007,0.5900000000000003,0.01,14,2,1,1,32,3,1,1,6,0,15,7,Hc,0.14906250000000004,0.08,0.5900000000000003,0.01
3,16,31,1,10,1.6600000000000013,13,17,110,44,51,113,6.779999999999936,0.18000000000000002,0.01,0.01,20,2,1,1,45,2,1,1,3,0,13,7,Hc,0.1506666666666667,0.09,0.01,0.01
3,16,32,1,1,0.47000000000000025,4,5,14,61,66,73,8.809999999999867,0.07,0.01,0.01,20,2,1,1,52,2,1,1,3,0,17,7,Hc,0.16942307692307695,0.035,0.01,0.01
3,17,33,1,6,0.6300000000000003,3,4,5,7,8,26,8.759999999999872,0.5600000000000003,0.7900000000000005,0.01,18,2,3,1,47,2,3,1,6,0.5,23,7,Hc,0.1863829787234043,0.28000000000000014,0.2633333333333335,0.01
3,17,34,1,2,0.22000000000000006,2,3,13,40,57,47,17.279999999999866,0.01,0.03,0.02,20,1,1,1,70,1,1,1,4,0,20,7,Hc,0.24685714285714294,0.01,0.03,0.02
3,18,35,1,9,0.35000000000000014,2,4,70,40,23,44,1.4000000000000008,1.1300000000000008,0.4400000000000002,0.11999999999999998,5,3,2,1,10,5,4,1,4,0,20,7,Hc,0.14000000000000004,0.2260000000000001,0.11000000000000001,0.11999999999999998
3,18,36,1,3,1.5200000000000011,15,21,25,90,99,1,3.2800000000000025,0.6700000000000004,4.0299999999999585,0.060000000000000005,18,4,9,1,25,4,20,1,5,0,16,7,Hc,0.13120000000000004,0.1675,0.20150000000000007,0.060000000000000005
3,19,37,1,3,0.7000000000000004,3,7,26,25,50,73,2.600000000000002,0.5400000000000003,3.049999999999979,1.2200000000000009,7,2,7,1,15,3,16,3,5,0,17,7,Hc,0.17333333333333337,0.18000000000000005,0.19062500000000007,0.40666666666666684
3,19,38,1,10,0.4200000000000002,1,3,87,67,18,68,1.9200000000000013,1.0900000000000007,0.19000000000000003,0.34000000000000014,3,3,2,2,13,6,2,3,3,0,17,7,Hc,0.14769230769230773,0.1816666666666667,0.095,0.11333333333333334
3,20,39,1,4,1.350000000000001,8,10,106,73,44,105,2.1800000000000015,1.1800000000000008,0.8600000000000005,1.420000000000001,11,4,2,3,15,6,6,3,2,0,12,7,Hc,0.14533333333333337,0.1966666666666667,0.14333333333333337,0.4733333333333336
3,20,40,1,8,0.25000000000000006,2,4,120,34,117,30,1.0800000000000005,2.6499999999999875,0.05,0.19000000000000003,4,6,2,1,8,19,2,1,2,0,14,7,Hc,0.13500000000000004,0.13947368421052633,0.025,0.19000000000000003
3,21,41,1,8,0.4400000000000002,7,7,114,68,109,118,5.459999999999938,1.6200000000000012,0.2700000000000001,1.0400000000000007,12,5,2,5,25,5,2,8,2,0.5,10,7,Hc,0.2184000000000001,0.3240000000000001,0.13500000000000004,0.13000000000000003
3,21,42,1,10,0.5100000000000002,2,7,91,86,8,11,1.9100000000000013,0.3000000000000001,0.6900000000000004,0.2900000000000001,4,1,5,2,14,1,7,2,3,0,18,7,Hc,0.13642857142857145,0.3000000000000001,0.0985714285714286,0.14500000000000002
4,1,1,0,3,1.1300000000000008,2,5,71,13,29,27,3.6799999999999904,0.7000000000000004,0.34000000000000014,1.6000000000000012,7,2,2,3,15,4,2,4,5,0,20,7,Hc,0.24533333333333343,0.17500000000000004,0.17000000000000004,0.4000000000000002
4,1,2,0,5,0.5700000000000003,2,3,84,83,49,3,4.139999999999969,0.45000000000000023,0.26000000000000006,0.5300000000000002,9,2,1,2,15,2,1,4,5,0,16,7,Hc,0.27600000000000013,0.22500000000000006,0.26000000000000006,0.1325
4,2,3,0,5,0.9900000000000007,2,7,43,76,61,79,1.640000000000001,2.6099999999999883,1.6200000000000012,0.15,3,5,3,1,8,9,8,1,5,0,15,7,Hc,0.20500000000000007,0.29000000000000015,0.20250000000000004,0.15
4,2,4,0,4,0.6100000000000003,2,4,103,105,27,106,1.8600000000000012,1.0100000000000007,1.300000000000001,0.13999999999999999,4,2,3,1,6,2,7,1,2,0.5,11,7,Hc,0.31000000000000016,0.5050000000000002,0.18571428571428578,0.13999999999999999
4,3,5,0,10,0.5000000000000002,2,3,41,24,88,89,2.5500000000000007,1.410000000000001,0.24000000000000007,0.10999999999999999,5,3,2,1,7,3,2,1,3,0,17,7,Hc,0.3642857142857145,0.4700000000000002,0.11999999999999998,0.10999999999999999
4,3,6,0,8,0.48000000000000026,2,4,59,119,114,76,3.589999999999978,0.5500000000000003,0.21000000000000005,0.36000000000000015,8,3,2,2,13,3,2,2,2,0,11,7,Hc,0.2761538461538463,0.18333333333333338,0.10499999999999998,0.18000000000000002
4,4,7,0,8,1.290000000000001,3,11,115,21,24,14,4.35999999999998,0.19000000000000003,0.12999999999999998,2.159999999999998,9,1,1,5,23,1,1,6,2,0.5,20,7,Hc,0.1895652173913044,0.19000000000000003,0.12999999999999998,0.36000000000000015
4,4,8,0,4,0.7900000000000005,3,6,100,76,107,98,2.4400000000000017,1.5200000000000011,0.8300000000000005,1.1800000000000008,7,3,3,3,12,4,5,3,2,0.5,9,7,Hc,0.2033333333333334,0.3800000000000002,0.16600000000000004,0.39333333333333353
4,5,9,0,1,0.5200000000000002,2,3,82,75,73,5,2.8899999999999935,0.7000000000000004,0.6600000000000004,3.0799999999999783,7,4,3,5,14,5,6,7,3,0.5,15,7,Hc,0.2064285714285715,0.14000000000000004,0.11,0.4400000000000002
4,5,10,0,2,0.8300000000000005,2,7,59,88,60,15,3.999999999999977,1.2200000000000009,0.18000000000000002,0.10999999999999999,8,3,3,1,18,6,3,1,4,0,17,7,Hc,0.2222222222222223,0.2033333333333334,0.060000000000000005,0.10999999999999999
4,6,11,0,1,0.6800000000000004,2,4,16,83,74,21,3.5199999999999836,0.5000000000000002,0.37000000000000016,0.22000000000000006,8,2,1,1,10,3,2,1,3,0,18,7,Hc,0.35200000000000015,0.1666666666666667,0.18500000000000005,0.22000000000000006
4,6,12,0,10,0.8500000000000005,2,5,91,49,56,55,3.4699999999999886,1.5300000000000011,1.6600000000000013,0.13999999999999999,5,4,4,1,11,8,6,1,3,0.5,15,7,Hc,0.3154545454545456,0.19125000000000006,0.2766666666666668,0.13999999999999999
4,7,13,1,4,0.7200000000000004,2,6,107,106,101,28,3.8899999999999766,1.6200000000000012,0.09999999999999999,1.2100000000000009,7,4,1,4,17,6,1,4,2,0.5,11,7,Hc,0.2288235294117648,0.27000000000000013,0.09999999999999999,0.30250000000000016
4,7,14,1,8,0.4400000000000002,2,3,113,19,22,79,1.3600000000000008,1.8800000000000014,0.3100000000000001,1.0200000000000007,3,5,2,4,4,10,2,5,2,0,17,7,Hc,0.3400000000000002,0.18800000000000006,0.15500000000000003,0.20400000000000007
4,8,15,1,10,0.5700000000000003,2,4,87,43,38,53,3.389999999999984,1.350000000000001,0.16,0.7400000000000004,7,2,1,2,14,7,1,2,3,0,17,7,Hc,0.24214285714285722,0.1928571428571429,0.16,0.37000000000000016
4,8,16,1,4,0.36000000000000015,3,3,4,81,99,36,6.3299999999999175,0.02,0.04,0.13999999999999999,7,1,1,1,25,1,1,1,2,0,16,7,Hc,0.2532000000000001,0.02,0.04,0.13999999999999999
4,9,17,1,9,1.0400000000000007,4,9,70,61,89,23,2.2700000000000014,2.0400000000000005,0.5300000000000002,0.7000000000000004,6,5,1,2,14,10,1,3,4,0,17,7,Hc,0.16214285714285717,0.20400000000000007,0.5300000000000002,0.23333333333333342
4,9,18,1,2,1.1600000000000008,2,12,57,116,49,1,2.370000000000002,3.619999999999967,0.25000000000000006,0.37000000000000016,3,7,3,2,13,12,3,3,4,0,16,7,Hc,0.1823076923076924,0.3016666666666668,0.08333333333333334,0.12333333333333335
4,10,19,1,10,0.7400000000000004,2,6,89,65,36,88,2.1800000000000015,1.5400000000000011,0.8500000000000005,0.18000000000000002,6,4,3,2,14,6,3,2,3,0,15,7,Hc,0.15571428571428575,0.25666666666666677,0.28333333333333344,0.09
4,10,20,1,2,1.440000000000001,5,9,3,10,9,73,4.339999999999983,0.18000000000000002,2.06,0.34000000000000014,9,2,5,2,20,2,8,2,4,0.5,21,7,Hc,0.21700000000000008,0.09000000000000001,0.2575000000000001,0.17000000000000004
4,11,21,1,1,0.7300000000000004,13,15,21,74,33,82,6.58999999999992,0.060000000000000005,1.0100000000000007,0.01,20,2,4,1,36,2,4,1,3,0,17,7,Hc,0.18305555555555564,0.03,0.2525000000000001,0.01
4,11,22,1,5,0.7400000000000004,2,3,40,37,9,8,1.8900000000000012,0.8900000000000006,1.500000000000001,1.1400000000000008,4,3,4,2,7,4,4,2,5,0,22,7,Hc,0.27000000000000013,0.22250000000000006,0.37500000000000017,0.5700000000000003
4,12,23,1,3,0.8800000000000006,13,15,26,63,33,18,3.519999999999988,0.5200000000000002,0.13999999999999999,2.899999999999982,19,2,1,8,27,3,1,13,5,0,20,7,Hc,0.13037037037037041,0.1733333333333334,0.13999999999999999,0.22307692307692314
4,12,24,1,1,1.320000000000001,2,4,11,12,46,58,3.559999999999997,0.5100000000000002,0.24000000000000007,0.2700000000000001,8,3,1,1,13,3,1,1,3,0,21,7,Hc,0.27384615384615396,0.17,0.24000000000000007,0.2700000000000001
4,13,25,1,4,0.5100000000000002,2,3,100,74,8,9,2.0500000000000016,1.0600000000000007,0.22000000000000006,1.8700000000000014,5,4,1,3,7,7,1,3,2,0,17,7,Hc,0.292857142857143,0.15142857142857147,0.22000000000000006,0.6233333333333337
4,13,26,1,8,0.48000000000000026,2,4,112,116,113,118,13.889999999999759,0.01,0.8700000000000006,0.9100000000000006,17,1,2,5,50,1,2,5,2,1,24,7,Hc,0.2778000000000001,0.01,0.4350000000000003,0.18200000000000008
4,14,27,1,8,0.5800000000000003,2,4,29,75,78,65,4.129999999999969,0.17,0.22000000000000006,0.21000000000000005,7,1,1,1,16,1,1,1,2,0,15,7,Hc,0.2581250000000001,0.17,0.22000000000000006,0.21000000000000005
4,14,28,1,10,0.5100000000000002,2,7,92,91,23,52,1.620000000000001,2.0500000000000003,0.7700000000000005,0.10999999999999999,4,4,3,1,10,6,5,1,3,0,16,7,Hc,0.16200000000000003,0.3416666666666668,0.154,0.10999999999999999
4,15,29,1,1,0.8600000000000005,2,4,1,117,12,39,15.819999999999727,0.01,0.01,0.3000000000000001,17,1,1,2,53,1,1,2,3,0,19,7,Hc,0.298490566037736,0.01,0.01,0.15000000000000005
4,15,30,1,3,0.47000000000000025,2,4,17,69,86,21,2.6099999999999985,0.8200000000000005,0.9400000000000006,0.21000000000000005,5,1,4,2,9,1,4,2,5,0,19,7,Hc,0.29000000000000015,0.8200000000000005,0.23500000000000004,0.10500000000000002
4,16,31,1,8,0.6900000000000004,13,15,84,41,67,118,6.619999999999918,0.3300000000000001,0.02,0.7100000000000004,20,2,1,3,43,2,1,3,2,0,14,7,Hc,0.15395348837209308,0.16500000000000004,0.02,0.2366666666666668
4,16,32,1,2,2.859999999999983,12,20,60,29,49,28,3.289999999999983,1.490000000000001,1.0100000000000007,0.09,14,4,2,1,22,5,3,1,4,0,18,7,Hc,0.1495454545454546,0.2980000000000001,0.3366666666666668,0.09
4,17,33,1,2,1.7400000000000013,8,11,7,58,44,6,4.549999999999986,0.38000000000000017,0.7700000000000005,0.38000000000000017,14,1,4,3,19,1,8,4,4,0,21,7,Hc,0.2394736842105264,0.38000000000000017,0.09625,0.09500000000000001
4,17,34,1,9,1.260000000000001,2,8,78,74,61,20,4.359999999999979,0.5000000000000002,0.25000000000000006,2.1899999999999973,8,2,3,3,21,2,5,3,4,0,16,7,Hc,0.20761904761904768,0.25000000000000006,0.049999999999999996,0.7300000000000005
4,18,35,1,4,0.4200000000000002,2,3,104,98,76,99,2.5799999999999983,0.6800000000000004,0.7600000000000005,0.11999999999999998,5,2,2,1,9,3,5,1,2,0.5,9,7,Hc,0.2866666666666668,0.2266666666666667,0.15200000000000002,0.11999999999999998
4,18,36,1,9,1.300000000000001,6,10,12,63,109,92,3.5899999999999963,0.8400000000000005,0.6300000000000003,0.19000000000000003,11,3,2,1,20,3,6,1,4,0,15,7,Hc,0.17950000000000005,0.2800000000000001,0.10500000000000001,0.19000000000000003
4,19,37,1,3,1.320000000000001,2,10,26,53,31,117,3.7699999999999925,0.45000000000000023,0.8100000000000005,0.24000000000000007,6,2,3,1,19,2,5,1,5,0,16,7,Hc,0.19842105263157903,0.22500000000000012,0.16200000000000003,0.24000000000000007
4,19,38,1,4,2.3199999999999945,10,19,103,67,7,4,3.6799999999999953,1.0500000000000007,0.7900000000000005,2.569999999999989,11,2,2,5,20,5,3,8,2,0,18,7,Hc,0.18400000000000008,0.21000000000000005,0.2633333333333334,0.32125000000000015
4,20,39,1,7,0.5000000000000002,2,3,16,14,47,43,2.4400000000000017,8.989999999999853,0.02,0.01,5,16,1,1,9,43,1,1,6,0,22,7,Hc,0.2711111111111112,0.20906976744186054,0.02,0.01
4,20,40,1,2,0.38000000000000017,2,3,25,26,54,50,2.0500000000000016,0.3200000000000001,0.38000000000000017,0.4100000000000002,5,1,2,2,9,1,2,3,4,0,18,7,Hc,0.22777777777777786,0.3200000000000001,0.19000000000000006,0.1366666666666667
4,21,41,1,1,0.4000000000000002,2,4,100,77,107,28,2.440000000000001,0.2800000000000001,1.400000000000001,0.19000000000000003,4,1,4,1,13,1,6,1,3,0,12,7,Hc,0.18769230769230777,0.2800000000000001,0.23333333333333342,0.19000000000000003
4,21,42,1,8,0.38000000000000017,3,4,66,64,117,118,2.3000000000000016,0.5300000000000002,0.2800000000000001,0.36000000000000015,6,2,2,2,10,3,2,5,2,0,12,7,Hc,0.23000000000000007,0.17666666666666672,0.14000000000000004,0.072
5,1,1,0,10,0.25000000000000006,2,3,87,6,88,96,8.809999999999862,3.149999999999977,0.6700000000000004,2.52999999999999,10,4,1,4,19,10,1,5,3,0.5,15,6,Hc,0.46368421052631603,0.31500000000000017,0.6700000000000004,0.5060000000000003
5,1,2,0,3,0.5400000000000003,2,3,29,19,18,112,15.739999999999721,3.609999999999967,1.1600000000000008,4.109999999999957,14,5,3,9,43,7,5,13,5,0,19,6,Hc,0.36604651162790713,0.515714285714286,0.2320000000000001,0.3161538461538463
5,2,3,0,5,0.2900000000000001,2,3,38,119,67,74,18.250000000000007,6.509999999999906,0.5800000000000003,0.6600000000000004,19,8,1,1,54,17,1,1,5,0,14,6,Hc,0.33796296296296313,0.3829411764705884,0.5800000000000003,0.6600000000000004
5,2,4,0,2,0.36000000000000015,2,3,34,49,58,20,12.389999999999787,4.9699999999999385,2.349999999999994,1.6200000000000012,11,6,3,3,24,9,7,5,4,0,19,6,Hc,0.5162500000000003,0.5522222222222225,0.33571428571428585,0.3240000000000001
5,3,5,0,5,1.1000000000000008,10,12,40,39,118,6,7.9099999999999,6.059999999999915,4.099999999999957,12.949999999999768,19,9,7,13,31,14,11,35,5,0,18,6,Hc,0.2551612903225807,0.4328571428571431,0.3727272727272729,0.37000000000000016
5,3,6,0,10,0.35000000000000014,2,3,92,30,94,26,12.999999999999774,2.199999999999997,4.979999999999938,0.6800000000000004,12,3,7,2,29,6,13,2,3,0,16,6,Hc,0.4482758620689657,0.36666666666666686,0.38307692307692326,0.34000000000000014
5,4,7,0,5,0.37000000000000016,2,3,40,47,57,43,11.229999999999814,3.509999999999969,7.109999999999893,1.2100000000000009,14,6,8,3,29,15,14,3,5,0.5,19,6,Hc,0.3872413793103449,0.23400000000000007,0.507857142857143,0.40333333333333354
5,4,8,0,10,0.20000000000000004,2,3,87,23,92,70,16.109999999999705,5.079999999999936,0.25000000000000006,0.7500000000000004,17,8,1,2,43,15,1,2,3,0,16,6,Hc,0.3746511627906979,0.3386666666666668,0.25000000000000006,0.37500000000000017
5,5,9,0,1,0.4100000000000002,2,3,79,68,73,6,5.509999999999936,4.159999999999956,10.679999999999817,2.259999999999996,6,4,11,2,14,9,37,5,3,0,16,6,Hc,0.3935714285714288,0.4622222222222225,0.28864864864864875,0.45200000000000023
5,5,10,0,2,0.4100000000000002,2,3,88,16,21,93,8.719999999999867,6.3299999999999095,5.84999999999992,1.6500000000000012,12,8,7,4,19,21,12,4,4,0,18,6,Hc,0.4589473684210529,0.30142857142857155,0.48750000000000027,0.4125000000000002
5,6,11,1,2,0.4400000000000002,2,4,59,93,91,50,20.870000000000395,2.4699999999999913,1.0600000000000007,1.2400000000000009,16,4,3,3,50,8,3,3,4,0,14,6,Hc,0.4174,0.30875000000000014,0.3533333333333335,0.41333333333333355
5,6,12,1,4,0.8900000000000006,4,5,24,14,17,104,10.03999999999985,2.439999999999992,2.9799999999999804,0.9900000000000007,11,5,6,2,22,7,8,2,2,0.5,20,6,Hc,0.4563636363636364,0.34857142857142875,0.37250000000000016,0.4950000000000002
5,7,13,1,1,0.21000000000000005,2,3,83,74,17,75,6.6799999999999065,3.699999999999965,5.159999999999934,1.1100000000000008,10,7,8,4,16,11,16,4,3,0.5,15,6,Hc,0.4175000000000002,0.33636363636363653,0.3225000000000001,0.2775000000000001
5,7,14,1,4,0.3900000000000002,2,4,95,102,108,7,7.1799999999999,1.6700000000000013,8.789999999999857,0.6800000000000004,8,2,11,1,21,3,26,1,2,0,13,6,Hc,0.341904761904762,0.556666666666667,0.3380769230769232,0.6800000000000004
5,8,15,1,1,0.8500000000000005,9,10,4,83,84,77,12.259999999999803,1.2200000000000009,4.079999999999957,2.6099999999999883,19,2,6,9,36,2,11,11,3,0.5,15,6,Hc,0.3405555555555557,0.6100000000000003,0.3709090909090911,0.23727272727272736
5,8,16,1,5,0.3000000000000001,2,5,46,48,56,91,7.469999999999891,4.40999999999995,4.749999999999943,2.4999999999999907,10,6,6,7,20,17,11,8,5,0,17,6,Hc,0.3735000000000002,0.25941176470588245,0.43181818181818205,0.3125000000000001
5,9,17,1,9,0.6200000000000003,2,4,47,99,42,67,8.989999999999867,1.9600000000000015,7.0299999999998946,0.35000000000000014,12,3,11,1,20,3,22,1,4,0,16,6,Hc,0.44950000000000023,0.6533333333333338,0.3195454545454547,0.35000000000000014
5,9,18,1,7,0.36000000000000015,2,5,22,21,13,52,12.969999999999775,8.809999999999857,0.45000000000000023,5.609999999999925,12,13,2,5,30,25,2,8,6,0.5,22,6,Hc,0.4323333333333326,0.35240000000000016,0.22500000000000003,0.7012500000000005
5,10,19,1,3,0.34000000000000014,2,3,34,27,30,60,18.740000000000077,0.9800000000000006,2.1299999999999986,3.139999999999977,18,2,6,4,53,3,7,6,5,0.5,19,6,Hc,0.35358490566037754,0.32666666666666677,0.30428571428571444,0.5233333333333337
5,10,20,1,1,0.22000000000000006,2,3,84,75,78,77,7.529999999999888,0.7100000000000004,6.719999999999901,0.9500000000000006,14,1,11,2,22,1,22,3,3,1,36,6,Hc,0.3422727272727273,0.7100000000000004,0.3054545454545456,0.3166666666666668
5,11,21,1,3,0.8200000000000005,9,10,101,108,106,27,20.530000000000282,2.479999999999991,0.7900000000000005,4.509999999999948,20,7,2,8,58,8,2,14,5,0.5,11,6,Hc,0.3539655172413795,0.3100000000000001,0.3950000000000002,0.3221428571428573
5,11,22,1,8,0.24000000000000007,2,3,14,45,74,110,20.610000000000383,0.3300000000000001,2.4199999999999924,0.7600000000000005,19,1,4,4,50,1,5,7,2,0,16,6,Hc,0.41220000000000023,0.3300000000000001,0.48400000000000026,0.10857142857142858
5,12,23,1,8,1.420000000000001,4,6,30,14,32,75,14.83999999999976,0.6800000000000004,1.5200000000000011,1.7900000000000014,17,3,2,3,49,5,2,4,2,0,19,6,Hc,0.302857142857143,0.136,0.7600000000000005,0.44750000000000023
5,12,24,1,5,0.26000000000000006,2,3,39,42,44,108,10.899999999999817,1.5800000000000012,0.34000000000000014,12.88999999999977,14,4,1,11,32,4,1,28,5,0.5,17,6,Hc,0.3406250000000002,0.3950000000000002,0.34000000000000014,0.46035714285714313
5,13,25,1,10,0.2900000000000001,2,4,37,103,45,96,10.249999999999833,6.039999999999916,1.500000000000001,0.46000000000000024,12,8,2,2,23,13,2,3,3,0,15,6,Hc,0.44565217391304374,0.4646153846153849,0.7500000000000004,0.15333333333333335
5,13,26,1,2,0.3000000000000001,2,6,25,19,22,14,11.869999999999798,4.949999999999939,0.8000000000000005,1.7900000000000014,15,8,2,5,33,9,2,6,4,0.5,23,6,Hc,0.3596969696969699,0.5500000000000003,0.40000000000000013,0.29833333333333345
5,14,27,1,3,0.4300000000000002,2,4,103,24,18,99,13.629999999999763,3.289999999999974,5.659999999999924,0.7600000000000005,15,5,6,2,38,9,7,3,5,0,16,6,Hc,0.35868421052631594,0.36555555555555574,0.8085714285714292,0.2533333333333334
5,14,28,1,5,0.17,2,4,41,38,46,40,1.2700000000000007,8.069999999999872,6.499999999999906,5.469999999999928,3,11,12,9,6,26,19,12,5,1,60,6,Hc,0.21166666666666678,0.31038461538461554,0.3421052631578949,0.4558333333333336
5,15,29,1,7,0.5800000000000003,2,3,20,16,13,15,13.01999999999978,2.209999999999997,1.7500000000000013,18.09000000000003,14,2,3,16,32,2,7,36,6,1,72,6,Hc,0.40687500000000004,1.1050000000000009,0.2500000000000001,0.5025000000000003
5,15,30,1,5,0.15,2,3,44,106,98,47,10.779999999999818,6.069999999999915,4.41999999999995,2.109999999999999,17,7,9,3,38,12,13,3,5,0,14,6,Hc,0.2836842105263159,0.5058333333333336,0.34000000000000014,0.7033333333333338
5,16,31,1,7,0.35000000000000014,2,5,93,96,108,18,24.96000000000105,6.689999999999902,1.1900000000000008,5.419999999999929,20,8,3,9,74,11,4,19,6,0,14,6,Hc,0.3372972972972973,0.6081818181818185,0.29750000000000015,0.28526315789473694
5,16,32,1,6,0.5500000000000003,8,10,3,5,6,80,16.639999999999716,5.239999999999933,0.3100000000000001,6.399999999999908,20,6,3,8,52,10,3,17,6,0.5,21,6,Hc,0.3200000000000002,0.5240000000000004,0.10333333333333335,0.3764705882352943
5,17,33,1,6,0.38000000000000017,3,6,89,2,95,1,9.49999999999985,2.1899999999999973,6.399999999999908,1.9500000000000015,13,4,11,5,26,11,17,7,6,0,18,6,Hc,0.3653846153846156,0.19909090909090915,0.3764705882352943,0.2785714285714287
5,17,34,1,1,0.45000000000000023,2,5,74,17,15,81,17.289999999999832,1.9400000000000015,1.7600000000000013,2.959999999999981,15,3,6,6,38,3,6,9,3,0,18,6,Hc,0.45500000000000024,0.6466666666666671,0.29333333333333345,0.32888888888888906
5,18,35,1,1,0.20000000000000004,2,3,74,75,22,20,9.199999999999852,0.9500000000000006,3.8699999999999615,4.089999999999957,16,2,4,9,26,5,6,14,3,0,18,6,Hc,0.35384615384615403,0.19000000000000006,0.6450000000000004,0.29214285714285726
5,18,36,1,3,0.8000000000000005,2,4,29,94,25,85,2.820000000000001,8.709999999999859,3.0799999999999783,0.4100000000000002,3,12,5,1,5,22,5,1,5,0,16,6,Hc,0.5640000000000002,0.3959090909090911,0.6160000000000003,0.4100000000000002
6,1,1,0,1,0.3200000000000001,2,3,41,106,79,54,2.8399999999999905,0.3000000000000001,0.08,0.12999999999999998,5,1,1,1,8,1,1,1,3,0,14,7,Hc,0.35500000000000015,0.3000000000000001,0.08,0.12999999999999998
6,1,2,0,3,0.4000000000000002,2,4,113,63,36,119,2.6899999999999955,0.21000000000000005,0.3000000000000001,0.22000000000000006,7,2,2,1,16,2,3,1,5,0,13,7,Hc,0.16812500000000002,0.10500000000000001,0.09999999999999999,0.22000000000000006
6,2,3,0,1,0.4000000000000002,6,7,12,31,9,110,2.659999999999996,0.4000000000000002,0.26000000000000006,0.2800000000000001,12,2,1,3,22,3,1,4,3,0,19,7,Hc,0.12090909090909094,0.13333333333333336,0.26000000000000006,0.07
6,2,4,0,5,0.23000000000000007,2,3,39,41,57,14,1.700000000000001,0.3000000000000001,1.0500000000000007,0.36000000000000015,5,2,3,3,11,3,7,3,5,0,20,7,Hc,0.15454545454545457,0.1,0.15000000000000002,0.12000000000000001
6,3,5,0,4,0.2800000000000001,2,3,107,79,101,74,2.5699999999999954,0.6000000000000003,0.22000000000000006,0.17,8,3,2,1,14,4,2,1,2,0,10,7,Hc,0.1835714285714286,0.15000000000000002,0.11000000000000001,0.17
6,3,6,0,8,0.2700000000000001,2,3,114,86,72,66,1.8900000000000012,1.5900000000000012,0.16,0.37000000000000016,5,4,1,2,9,8,1,2,2,0,13,7,Hc,0.21000000000000008,0.19875000000000007,0.16,0.18500000000000003
6,4,7,0,1,0.21000000000000005,2,3,102,17,103,18,2.0100000000000016,0.47000000000000025,0.11999999999999998,0.2800000000000001,5,2,1,2,14,4,1,2,3,0,16,7,Hc,0.1435714285714286,0.11750000000000002,0.11999999999999998,0.14000000000000004
6,4,8,0,6,0.5200000000000002,8,8,1,5,95,88,2.030000000000001,1.270000000000001,0.24000000000000007,0.25000000000000006,10,2,2,1,11,2,3,1,6,0,18,7,Hc,0.18454545454545462,0.6350000000000005,0.08,0.25000000000000006
6,5,9,0,5,0.25000000000000006,2,4,89,18,55,43,1.8100000000000012,0.38000000000000017,0.5200000000000002,0.11999999999999998,4,1,1,2,7,1,1,2,5,0,18,7,Hc,0.2585714285714287,0.38000000000000017,0.5200000000000002,0.06
6,5,10,0,1,0.9200000000000006,10,10,7,33,12,3,4.499999999999968,0.01,0.02,5.789999999999921,17,1,1,10,28,1,1,14,3,0.5,23,7,Hc,0.16071428571428575,0.01,0.02,0.4135714285714288
6,6,11,0,10,0.3000000000000001,2,3,89,93,54,43,1.9300000000000013,0.6700000000000004,0.2700000000000001,0.13999999999999999,5,2,2,1,7,4,3,1,3,0,15,7,Hc,0.27571428571428586,0.16750000000000004,0.09000000000000001,0.13999999999999999
6,6,12,0,7,0.18000000000000002,2,2,13,110,14,80,1.590000000000001,1.8400000000000014,0.09,0.04,5,4,2,1,9,10,2,1,6,0,17,7,Hc,0.17666666666666672,0.18400000000000005,0.045,0.04
6,7,13,1,8,0.4300000000000002,2,5,96,92,112,15,1.4400000000000008,0.6000000000000003,0.7500000000000004,0.46000000000000024,5,3,4,3,8,3,5,4,2,0,14,7,Hc,0.18000000000000005,0.20000000000000007,0.15000000000000002,0.11499999999999999
6,7,14,1,1,0.4000000000000002,4,4,4,1,83,84,3.7599999999999727,1.1400000000000008,0.01,0.04,10,5,1,1,13,6,1,1,3,0,18,7,Hc,0.28923076923076935,0.19000000000000006,0.01,0.04
6,8,15,1,9,0.17,2,3,77,66,46,16,1.660000000000001,0.2900000000000001,0.5000000000000002,0.16,5,2,2,1,8,3,2,1,4,0,18,7,Hc,0.20750000000000007,0.09666666666666665,0.25000000000000006,0.16
6,8,16,1,8,1.440000000000001,7,11,93,10,9,111,3.0100000000000025,2.209999999999997,0.08,0.09999999999999999,12,5,2,1,16,8,2,1,2,0,17,7,Hc,0.18812500000000007,0.2762500000000001,0.04,0.09999999999999999
6,9,17,1,2,0.20000000000000004,2,3,18,82,28,118,2.8599999999999874,0.15,0.5000000000000002,0.07,7,1,4,1,10,1,6,1,4,0,16,7,Hc,0.28600000000000014,0.15,0.08333333333333334,0.07
6,9,18,1,6,0.21000000000000005,2,4,4,11,2,71,0.8300000000000004,1.9600000000000015,4.6399999999999455,0.36000000000000015,4,6,12,2,6,8,16,2,6,0.5,22,7,Hc,0.1383333333333334,0.2450000000000001,0.29000000000000015,0.18000000000000008
6,10,19,1,2,0.3200000000000001,2,5,27,52,14,25,2.629999999999995,0.07,0.24000000000000007,0.18000000000000002,7,1,1,2,15,1,2,2,4,0,20,7,Hc,0.17533333333333337,0.07,0.12000000000000002,0.09
6,10,20,1,6,0.13999999999999999,2,3,6,5,70,61,1.2000000000000006,0.5400000000000003,0.8800000000000006,0.4400000000000002,4,3,2,3,6,3,4,3,6,0,20,7,Hc,0.2000000000000001,0.18000000000000005,0.22000000000000006,0.1466666666666667
6,11,21,1,8,0.18000000000000002,3,3,2,61,47,119,21.190000000000484,0.01,0.01,0.01,20,1,1,1,63,1,1,1,2,0,17,7,Hc,0.3363492063492065,0.01,0.01,0.01
6,11,22,1,7,0.3100000000000001,2,3,16,15,17,58,1.740000000000001,0.7000000000000004,9.07999999999985,0.01,6,3,14,1,7,7,30,1,6,0.5,22,7,Hc,0.24857142857142867,0.10000000000000002,0.3026666666666668,0.01
6,12,23,1,4,0.38000000000000017,3,5,103,8,3,58,1.2800000000000007,0.6800000000000004,0.6000000000000003,0.13999999999999999,5,2,3,1,7,3,5,1,2,0,18,7,Hc,0.1828571428571429,0.2266666666666667,0.12,0.13999999999999999
6,12,24,1,1,0.4100000000000002,2,6,63,74,32,114,2.3400000000000016,0.23000000000000007,0.26000000000000006,0.6800000000000004,5,2,1,2,11,3,1,6,3,0,14,7,Hc,0.2127272727272728,0.07666666666666666,0.26000000000000006,0.11333333333333334
6,13,25,1,8,0.7700000000000005,5,6,109,84,83,36,2.8400000000000003,0.2800000000000001,0.07,0.10999999999999999,9,1,1,1,16,1,1,1,2,0,13,7,Hc,0.17750000000000005,0.2800000000000001,0.07,0.10999999999999999
6,13,26,1,4,0.18000000000000002,1,2,70,99,102,88,2.2200000000000006,0.45000000000000023,0.13999999999999999,0.7400000000000004,10,3,1,2,15,4,1,2,2,0,11,7,Hc,0.14800000000000005,0.1125,0.13999999999999999,0.37000000000000016
6,14,27,1,2,0.5100000000000002,3,6,111,119,88,56,3.2099999999999866,2.0899999999999994,0.3200000000000001,0.01,10,4,2,1,17,4,2,1,4,0,11,7,Hc,0.18882352941176478,0.5225000000000003,0.16000000000000006,0.01
6,14,28,1,4,0.13999999999999999,2,3,32,99,28,68,1.660000000000001,0.2700000000000001,0.9200000000000006,0.060000000000000005,7,1,3,1,15,1,3,1,2,0,16,7,Hc,0.11066666666666668,0.2700000000000001,0.3066666666666668,0.060000000000000005
6,15,29,1,3,0.3100000000000001,3,4,28,19,25,54,1.2600000000000007,0.8000000000000005,0.7700000000000005,1.5300000000000011,5,3,4,2,6,4,5,3,5,0,20,7,Hc,0.2100000000000001,0.20000000000000007,0.15400000000000005,0.5100000000000003
6,15,30,1,9,0.23000000000000007,2,3,71,105,47,75,3.829999999999967,0.21000000000000005,2.010000000000001,0.01,9,2,3,1,13,2,3,1,4,0,14,7,Hc,0.2946153846153847,0.10499999999999998,0.6700000000000005,0.01
6,16,31,1,6,0.2700000000000001,2,3,10,53,25,108,0.9200000000000004,0.5900000000000003,0.48000000000000026,2.7899999999999845,5,1,2,6,7,1,2,8,6,0,17,7,Hc,0.13142857142857145,0.5900000000000003,0.24000000000000005,0.34875000000000017
6,16,32,1,7,0.19000000000000003,3,5,63,24,39,67,1.2000000000000006,1.6800000000000013,0.10999999999999999,0.03,5,4,2,1,7,5,2,1,6,0,19,7,Hc,0.1714285714285715,0.33600000000000013,0.05500000000000001,0.03
6,17,33,1,4,0.4000000000000002,2,5,1,12,5,56,1.510000000000001,0.7000000000000004,0.07,0.18000000000000002,4,3,1,1,10,6,1,1,2,0.5,22,7,Hc,0.15100000000000002,0.11666666666666667,0.07,0.18000000000000002
6,17,34,1,9,0.3000000000000001,2,3,72,21,69,118,1.3700000000000008,1.1600000000000008,0.3900000000000002,1.470000000000001,4,4,2,3,5,5,2,3,4,0,16,7,Hc,0.27400000000000013,0.2320000000000001,0.19500000000000003,0.49000000000000027
6,18,35,1,1,0.18000000000000002,2,4,78,16,60,54,1.2800000000000007,0.4100000000000002,0.9400000000000006,0.11999999999999998,5,1,3,1,7,1,3,1,3,0,17,7,Hc,0.1828571428571429,0.4100000000000002,0.31333333333333346,0.11999999999999998
6,18,36,1,9,0.3300000000000001,2,3,64,63,12,27,1.4600000000000009,0.5300000000000002,0.46000000000000024,0.6400000000000003,4,1,3,3,8,1,3,3,4,0,19,7,Hc,0.18250000000000005,0.5300000000000002,0.15333333333333338,0.21333333333333337
6,19,37,1,3,0.35000000000000014,2,3,104,28,70,10,2.2300000000000018,0.34000000000000014,0.19000000000000003,0.08,7,2,1,1,9,3,1,1,5,0,17,7,Hc,0.24777777777777785,0.11333333333333331,0.19000000000000003,0.08
6,19,38,1,10,0.7500000000000004,10,13,95,42,19,87,1.3200000000000007,0.9600000000000006,1.9700000000000015,0.20000000000000004,12,2,5,1,15,3,12,1,3,0,17,7,Hc,0.08800000000000001,0.3200000000000002,0.1641666666666667,0.20000000000000004
6,20,39,1,9,0.17,2,3,68,71,81,8,1.1300000000000006,0.5800000000000003,1.2500000000000009,0.18000000000000002,4,3,3,2,6,3,3,2,4,0,17,7,Hc,0.18833333333333338,0.19333333333333338,0.4166666666666669,0.09
6,20,40,1,7,0.35000000000000014,2,4,20,18,32,85,1.9300000000000013,5.889999999999919,0.05,0.07,5,13,1,1,15,19,1,2,6,0,20,7,Hc,0.12866666666666668,0.31000000000000016,0.05,0.035
6,21,41,1,4,0.6600000000000004,3,6,103,6,10,29,1.3400000000000007,0.5200000000000002,0.4400000000000002,0.22000000000000006,5,2,1,1,8,2,1,1,2,0,19,7,Hc,0.16750000000000004,0.2600000000000001,0.4400000000000002,0.22000000000000006
6,21,42,1,8,0.8500000000000005,4,5,77,24,23,110,2.1500000000000012,1.9500000000000015,1.9700000000000015,1.1500000000000008,8,3,10,3,10,8,11,3,2,0,17,7,Hc,0.21500000000000008,0.24375000000000008,0.17909090909090913,0.3833333333333335
7,1,1,0,7,0.34000000000000014,2,5,35,14,16,73,1.9900000000000013,0.8600000000000005,0.26000000000000006,0.10999999999999999,6,4,2,2,14,8,2,3,6,0,20,7,Hc,0.14214285714285718,0.10750000000000001,0.13000000000000003,0.03666666666666667
7,1,2,0,5,0.23000000000000007,2,3,64,1,11,65,1.8600000000000012,0.4100000000000002,0.19000000000000003,0.6500000000000004,5,2,1,4,10,4,1,5,5,0,20,7,Hc,0.18600000000000005,0.10250000000000001,0.19000000000000003,0.13000000000000003
7,2,3,0,8,0.23000000000000007,2,3,24,95,54,118,1.4300000000000008,1.2000000000000008,0.3200000000000001,0.03,5,2,2,1,6,2,2,1,2,0,15,7,Hc,0.23833333333333342,0.6000000000000003,0.16000000000000003,0.03
7,2,4,0,1,0.3100000000000001,2,3,76,104,1,6,1.690000000000001,0.7900000000000005,0.10999999999999999,0.21000000000000005,5,3,1,2,11,4,1,2,3,0,17,7,Hc,0.15363636363636365,0.19750000000000006,0.10999999999999999,0.10500000000000001
7,3,5,0,10,0.3000000000000001,2,4,56,91,111,87,1.3200000000000007,0.7500000000000004,0.8000000000000005,0.05,5,3,3,1,8,5,6,1,3,0,12,7,Hc,0.16500000000000004,0.15000000000000002,0.13333333333333336,0.05
7,3,6,0,1,0.8300000000000005,12,15,84,19,78,99,1.4300000000000008,0.7500000000000004,0.3300000000000001,0.21000000000000005,14,3,3,1,17,3,3,1,3,0,14,7,Hc,0.08411764705882355,0.25000000000000006,0.11000000000000001,0.21000000000000005
7,4,7,0,1,0.21000000000000005,2,4,17,108,75,78,2.459999999999996,0.5800000000000003,0.07,0.05,9,3,1,1,16,6,1,1,3,0,14,7,Hc,0.15375000000000005,0.09666666666666668,0.07,0.05
7,4,8,0,5,0.2900000000000001,3,5,55,87,47,90,2.549999999999996,0.09,0.04,0.16,8,1,1,1,15,1,1,1,5,0,15,7,Hc,0.17000000000000004,0.09,0.04,0.16
7,5,9,0,8,0.36000000000000015,2,3,114,110,87,109,1.600000000000001,0.36000000000000015,0.8700000000000006,0.7500000000000004,4,1,3,4,7,1,4,4,2,0.5,9,7,Hc,0.22857142857142865,0.36000000000000015,0.2175000000000001,0.18750000000000003
7,5,10,0,1,0.38000000000000017,2,4,75,101,79,51,3.2899999999999823,0.04,0.02,0.2900000000000001,8,1,1,4,13,1,1,5,3,0,12,7,Hc,0.2530769230769232,0.04,0.02,0.058
7,6,11,0,5,0.23000000000000007,2,3,55,108,79,77,1.710000000000001,0.5900000000000003,0.12999999999999998,0.12999999999999998,4,3,1,1,10,4,1,1,5,0,12,7,Hc,0.17100000000000004,0.14750000000000002,0.12999999999999998,0.12999999999999998
7,6,12,0,10,0.25000000000000006,4,5,120,96,112,116,2.3799999999999986,0.4300000000000002,0.10999999999999999,0.07,10,2,1,1,12,2,1,1,3,0.5,9,7,Hc,0.19833333333333342,0.21500000000000008,0.10999999999999999,0.07
7,7,13,1,3,0.21000000000000005,2,5,36,104,101,73,1.4800000000000009,0.37000000000000016,0.3100000000000001,0.19000000000000003,6,2,2,1,10,2,2,1,5,0,12,7,Hc,0.14800000000000005,0.18500000000000003,0.155,0.19000000000000003
7,7,14,1,10,0.24000000000000007,2,4,88,87,119,53,1.1500000000000006,0.35000000000000014,0.4400000000000002,0.4100000000000002,5,1,3,2,8,1,4,2,3,0,12,7,Hc,0.14375000000000004,0.35000000000000014,0.10999999999999999,0.20500000000000004
7,8,15,1,3,0.18000000000000002,2,3,34,83,51,80,0.9200000000000005,0.5700000000000003,0.21000000000000005,0.4200000000000002,4,2,1,3,5,3,1,5,5,0,15,7,Hc,0.18400000000000008,0.19000000000000009,0.21000000000000005,0.08399999999999999
7,8,16,1,9,0.26000000000000006,2,4,65,95,110,21,3.26999999999998,0.01,0.11999999999999998,0.02,7,1,1,1,18,1,1,1,4,0,15,7,Hc,0.18166666666666673,0.01,0.11999999999999998,0.02
7,9,17,1,8,0.21000000000000005,2,3,120,53,40,115,1.0900000000000005,0.8900000000000006,0.38000000000000017,0.15,5,2,2,2,9,2,2,2,2,0,13,7,Hc,0.12111111111111113,0.44500000000000023,0.19,0.075
7,9,18,1,4,0.11999999999999998,2,2,14,103,97,73,3.549999999999971,0.01,0.01,0.19000000000000003,9,1,1,1,15,1,1,1,2,0,13,7,Hc,0.23666666666666675,0.01,0.01,0.19000000000000003
7,10,19,1,8,0.8600000000000005,9,12,79,59,11,114,2.1600000000000015,0.3100000000000001,0.19000000000000003,1.2500000000000009,12,1,1,3,15,1,1,5,2,0,15,7,Hc,0.14400000000000004,0.3100000000000001,0.19000000000000003,0.2500000000000001
7,10,20,1,9,0.25000000000000006,2,3,14,44,48,24,6.54999999999991,0.01,0.01,0.38000000000000017,12,1,1,2,25,1,1,2,4,0,22,7,Hc,0.2620000000000001,0.01,0.01,0.19000000000000009
7,11,21,1,6,0.15,2,4,4,3,119,92,0.7100000000000003,5.779999999999921,0.01,0.01,3,14,1,1,5,31,1,1,6,0,17,7,Hc,0.14200000000000004,0.18645161290322584,0.01,0.01
7,11,22,1,9,0.12999999999999998,2,3,62,67,76,15,1.0900000000000005,0.23000000000000007,0.6900000000000004,0.8600000000000005,4,1,3,4,15,1,4,4,4,0,17,7,Hc,0.07266666666666667,0.23000000000000007,0.17250000000000001,0.21500000000000008
7,12,23,1,10,0.8300000000000005,12,13,90,109,31,96,2.290000000000002,2.579999999999989,0.2800000000000001,0.8300000000000005,14,10,2,3,21,17,2,3,3,0,13,7,Hc,0.10904761904761906,0.151764705882353,0.14000000000000004,0.2766666666666668
7,12,24,1,2,0.23000000000000007,2,4,56,49,81,74,0.9600000000000005,1.0900000000000007,0.3100000000000001,0.15,4,3,2,1,6,5,3,1,4,0,14,7,Hc,0.16000000000000006,0.21800000000000003,0.10333333333333333,0.15
7,13,25,1,4,0.12999999999999998,3,3,1,30,26,108,9.27999999999985,0.01,0.01,0.01,18,1,1,1,23,1,1,1,2,0,18,7,Hc,0.40347826086956545,0.01,0.01,0.01
7,13,26,1,1,0.5900000000000003,3,6,14,114,74,76,1.8500000000000012,0.34000000000000014,0.12999999999999998,0.09999999999999999,6,2,1,1,9,3,1,1,3,0,14,7,Hc,0.20555555555555563,0.11333333333333331,0.12999999999999998,0.09999999999999999
7,14,27,1,3,0.2700000000000001,2,4,25,29,34,102,1.2300000000000006,0.5400000000000003,0.18000000000000002,0.26000000000000006,4,2,2,1,9,2,2,1,5,0.5,17,7,Hc,0.1366666666666667,0.2700000000000001,0.09,0.26000000000000006
7,14,28,1,2,0.45000000000000023,5,6,59,55,44,118,2.2300000000000018,0.11999999999999998,0.12999999999999998,0.12999999999999998,9,1,3,2,18,1,4,2,4,0,15,7,Hc,0.12388888888888891,0.11999999999999998,0.0325,0.06499999999999999
7,15,29,1,10,0.6500000000000004,9,10,92,91,90,42,1.3000000000000007,0.37000000000000016,1.5900000000000012,0.3200000000000001,11,2,5,3,14,2,7,3,3,0.5,14,7,Hc,0.09285714285714286,0.18500000000000008,0.22714285714285723,0.10666666666666669
7,15,30,1,2,0.3300000000000001,6,8,115,53,50,58,1.8500000000000012,0.38000000000000017,0.18000000000000002,0.5300000000000002,9,2,1,3,15,3,1,5,4,0.5,14,7,Hc,0.12333333333333336,0.12666666666666668,0.18000000000000002,0.10600000000000001
7,16,31,1,10,1.5400000000000011,3,5,91,86,24,44,2.830000000000002,0.24000000000000007,0.09999999999999999,0.4100000000000002,6,1,1,2,13,1,1,3,3,0,17,7,Hc,0.21769230769230777,0.24000000000000007,0.09999999999999999,0.13666666666666671
7,16,32,1,8,0.23000000000000007,2,3,1,116,74,115,26.19000000000126,0.5000000000000002,0.12999999999999998,0.01,20,3,2,1,115,3,2,1,2,0,13,7,Hc,0.2277391304347827,0.16666666666666674,0.06499999999999999,0.01
7,17,33,1,6,0.2700000000000001,2,3,84,53,7,76,1.8000000000000012,3.3399999999999728,1.6100000000000012,1.1000000000000008,6,6,4,4,8,14,4,4,6,0,16,7,Hc,0.2250000000000001,0.23857142857142868,0.4025000000000002,0.27500000000000013
7,17,34,1,9,2.399999999999993,5,11,42,63,48,23,3.3899999999999935,0.20000000000000004,0.7200000000000004,0.9400000000000006,7,1,3,5,16,1,3,5,4,0,20,7,Hc,0.2118750000000001,0.20000000000000004,0.24000000000000007,0.18800000000000006
7,18,35,1,3,0.13999999999999999,1,2,75,111,36,53,1.570000000000001,0.47000000000000025,0.11999999999999998,0.5300000000000002,4,2,1,2,10,3,1,2,5,0,14,7,Hc,0.15700000000000003,0.1566666666666667,0.11999999999999998,0.2650000000000001
7,18,36,1,6,0.2700000000000001,2,3,92,62,5,12,1.2200000000000006,0.6000000000000003,1.8300000000000014,0.01,3,2,5,1,4,4,5,1,6,0,19,7,Hc,0.30500000000000016,0.15000000000000002,0.3660000000000002,0.01
7,19,37,1,8,0.5200000000000002,5,6,9,117,61,1,2.1500000000000012,0.10999999999999999,0.13999999999999999,0.09999999999999999,10,1,2,1,12,1,2,1,2,0,18,7,Hc,0.17916666666666672,0.10999999999999999,0.07,0.09999999999999999
7,19,38,1,4,0.19000000000000003,2,3,75,101,39,56,1.3800000000000008,0.19000000000000003,0.37000000000000016,0.36000000000000015,5,1,2,1,9,1,2,1,2,0,14,7,Hc,0.15333333333333338,0.19000000000000003,0.18500000000000003,0.36000000000000015
7,20,39,1,3,2.6899999999999866,5,15,27,74,34,73,2.9799999999999867,0.47000000000000025,0.9800000000000006,0.09999999999999999,7,1,2,1,18,1,2,1,5,0,16,7,Hc,0.1655555555555556,0.47000000000000025,0.49000000000000027,0.09999999999999999
7,20,40,1,4,2.4999999999999907,7,16,88,15,14,107,3.1999999999999913,1.5600000000000012,0.03,2.0500000000000003,10,4,1,6,19,4,1,12,2,0,17,7,Hc,0.168421052631579,0.39000000000000024,0.03,0.17083333333333336
7,21,41,1,2,0.5800000000000003,2,3,109,77,35,60,2.6400000000000006,0.3000000000000001,0.10999999999999999,0.4200000000000002,5,2,2,2,9,2,2,2,4,0,14,7,Hc,0.29333333333333345,0.15000000000000005,0.055,0.21000000000000002
7,21,42,1,7,0.36000000000000015,2,3,23,22,14,17,1.600000000000001,0.26000000000000006,0.11999999999999998,3.8599999999999617,5,1,1,7,11,1,2,13,6,1,72,7,Hc,0.14545454545454548,0.26000000000000006,0.060000000000000005,0.29692307692307707
8,1,1,0,7,0.4100000000000002,2,4,42,72,16,13,14.20999999999975,2.4099999999999926,0.6200000000000003,1.7800000000000014,17,4,2,4,54,7,2,8,6,0,21,7,Hc,0.26314814814814824,0.3442857142857145,0.3100000000000001,0.22250000000000006
8,1,2,0,8,0.48000000000000026,3,4,6,116,53,8,11.659999999999807,0.7300000000000004,0.7500000000000004,4.669999999999945,16,2,2,6,52,2,2,33,2,0,18,7,Hc,0.22423076923076932,0.36500000000000016,0.3750000000000002,0.14151515151515154
8,2,3,0,8,0.4000000000000002,2,3,112,56,116,50,13.849999999999758,1.1600000000000008,1.5900000000000012,0.7300000000000004,17,3,2,3,64,5,8,7,2,0,12,7,Hc,0.21640625000000008,0.23200000000000007,0.19875000000000004,0.10428571428571429
8,2,4,0,7,1.5400000000000011,13,15,44,68,13,14,21.61000000000034,0.17,2.3699999999999934,0.22000000000000006,20,1,6,2,99,1,11,3,6,0,21,7,Hc,0.21828282828282836,0.17,0.21545454545454554,0.07333333333333333
8,3,5,0,6,0.4000000000000002,2,4,3,5,11,10,12.629999999999784,0.49000000000000027,0.5500000000000003,0.7900000000000005,18,3,4,3,53,4,5,7,6,1,72,7,Hc,0.23830188679245293,0.12250000000000003,0.11000000000000001,0.11285714285714288
8,3,6,0,8,0.4300000000000002,2,3,49,52,114,118,13.179999999999772,3.379999999999972,0.22000000000000006,0.20000000000000004,15,9,1,1,53,20,1,1,2,0,12,7,Hc,0.24867924528301896,0.16900000000000004,0.22000000000000006,0.20000000000000004
8,4,7,0,6,0.37000000000000016,2,4,2,9,1,10,12.729999999999782,2.399999999999993,2.339999999999994,3.2599999999999745,16,9,5,11,49,9,9,21,6,1,72,7,Hc,0.25979591836734706,0.2666666666666668,0.26000000000000006,0.15523809523809529
8,4,8,0,1,1.0300000000000007,2,8,111,79,117,23,11.689999999999818,2.5999999999999885,1.430000000000001,0.5200000000000002,18,5,5,2,42,11,11,4,3,0,13,7,Hc,0.27833333333333343,0.23636363636363644,0.13,0.13000000000000003
8,5,9,0,2,0.25000000000000006,2,3,19,111,51,49,9.579999999999846,3.2499999999999747,2.149999999999998,0.5200000000000002,12,6,5,3,46,12,8,3,4,0,16,7,Hc,0.20826086956521747,0.2708333333333334,0.2687500000000001,0.17333333333333334
8,5,10,0,9,0.20000000000000004,2,4,68,65,66,64,1.9600000000000013,11.109999999999808,2.0899999999999994,2.389999999999993,5,18,5,10,11,44,9,17,4,1,48,7,Hc,0.17818181818181825,0.2525000000000001,0.2322222222222223,0.14058823529411768
8,6,11,0,7,0.4200000000000002,2,4,50,111,21,20,4.469999999999958,5.339999999999931,4.519999999999948,0.46000000000000024,9,7,10,2,20,35,18,2,6,0,18,7,Hc,0.2235000000000001,0.1525714285714286,0.2511111111111112,0.23000000000000007
8,6,12,0,4,0.26000000000000006,2,4,98,104,101,78,7.859999999999882,5.299999999999931,1.360000000000001,2.339999999999994,15,10,5,7,35,27,9,10,2,0.5,9,7,Hc,0.22457142857142864,0.19629629629629636,0.15111111111111114,0.2340000000000001
8,7,13,1,9,0.34000000000000014,2,3,67,66,110,68,10.529999999999827,2.809999999999984,2.239999999999996,2.099999999999999,17,4,6,5,47,18,11,7,4,0.5,14,7,Hc,0.22404255319148944,0.15611111111111114,0.20363636363636373,0.3000000000000001
8,7,14,1,4,0.35000000000000014,2,3,105,84,41,42,9.679999999999845,8.269999999999868,4.869999999999941,0.6400000000000003,14,10,10,2,40,29,20,4,2,0,15,7,Hc,0.24200000000000008,0.28517241379310354,0.2435000000000001,0.16000000000000003
8,8,15,1,5,0.45000000000000023,2,4,99,38,107,44,13.85999999999976,2.579999999999989,0.47000000000000025,2.1299999999999986,17,8,1,5,59,12,1,9,5,0,14,7,Hc,0.2349152542372882,0.21500000000000008,0.47000000000000025,0.23666666666666678
8,8,16,1,6,0.4000000000000002,2,5,2,6,72,12,9.279999999999855,1.7200000000000013,5.929999999999918,0.20000000000000004,14,5,8,1,44,12,25,1,6,0.5,22,7,Hc,0.210909090909091,0.14333333333333337,0.23720000000000008,0.20000000000000004
8,9,17,1,6,0.8500000000000005,4,5,11,40,69,2,7.269999999999908,9.279999999999847,0.9100000000000006,0.26000000000000006,13,12,3,2,36,31,5,2,6,0,21,7,Hc,0.2019444444444445,0.29935483870967755,0.18200000000000008,0.13000000000000003
8,9,18,1,8,0.3900000000000002,2,3,19,114,17,13,9.909999999999842,3.2199999999999753,1.9100000000000015,2.3799999999999932,14,8,5,8,46,11,7,9,2,0.5,20,7,Hc,0.21543478260869572,0.29272727272727284,0.27285714285714296,0.26444444444444454
8,10,19,1,9,0.3100000000000001,2,3,64,65,47,38,7.349999999999895,1.5100000000000011,2.159999999999998,4.279999999999953,11,4,5,8,39,7,8,15,4,0,18,7,Hc,0.1884615384615385,0.21571428571428578,0.27000000000000013,0.28533333333333344
8,10,20,1,10,0.3300000000000001,2,4,91,95,12,10,13.319999999999768,0.4300000000000002,2.4099999999999926,0.8600000000000005,19,2,6,4,84,3,10,5,3,0,18,7,Hc,0.1585714285714286,0.14333333333333337,0.24100000000000008,0.17200000000000004
8,11,21,1,5,0.5900000000000003,2,5,41,78,80,67,12.779999999999784,3.4099999999999713,1.280000000000001,2.5199999999999902,15,6,3,4,51,19,4,9,5,0,15,7,Hc,0.2505882352941178,0.17947368421052637,0.3200000000000002,0.2800000000000001
8,11,22,1,4,0.4200000000000002,3,5,104,90,98,5,12.479999999999787,3.379999999999972,0.22000000000000006,1.6600000000000013,15,8,1,3,66,16,2,13,2,0,13,7,Hc,0.18909090909090914,0.21125000000000005,0.11000000000000001,0.12769230769230772
8,12,23,1,8,0.25000000000000006,2,4,115,110,60,2,5.509999999999932,7.089999999999893,3.1699999999999764,2.389999999999993,11,9,7,5,25,33,11,7,2,0,14,7,Hc,0.2204000000000001,0.21484848484848493,0.28818181818181826,0.3414285714285716
8,12,24,1,9,0.37000000000000016,2,3,39,80,64,100,12.239999999999792,1.450000000000001,0.9700000000000006,1.0400000000000007,18,3,2,3,55,6,4,3,4,0,14,7,Hc,0.22254545454545463,0.24166666666666675,0.24250000000000008,0.3466666666666668
8,13,25,1,2,0.3000000000000001,3,5,53,39,46,7,6.429999999999914,4.609999999999946,0.8500000000000005,3.699999999999965,10,9,5,8,29,23,6,20,4,0,20,7,Hc,0.22172413793103457,0.2004347826086957,0.1416666666666667,0.18500000000000005
8,13,26,1,3,0.4400000000000002,2,5,69,75,27,32,5.289999999999941,1.6600000000000013,3.0799999999999783,2.5599999999999894,6,2,7,8,18,3,11,13,5,0,17,7,Hc,0.29388888888888903,0.5533333333333337,0.28000000000000014,0.19692307692307698
8,14,27,1,5,0.9600000000000006,6,9,39,17,20,57,17.07999999999972,20.03000000000033,0.23000000000000007,0.02,20,17,1,1,75,69,2,1,5,0,21,7,Hc,0.22773333333333343,0.2902898550724639,0.11500000000000002,0.02
8,14,28,1,3,0.6700000000000004,2,7,2,30,11,8,16.009999999999717,0.2700000000000001,0.8600000000000005,0.4100000000000002,17,1,3,2,65,2,6,3,5,0.5,23,7,Hc,0.2463076923076924,0.13500000000000004,0.14333333333333337,0.1366666666666667
8,15,29,1,1,0.38000000000000017,2,3,84,41,81,44,10.719999999999825,3.5399999999999685,0.6800000000000004,1.8100000000000014,16,5,1,6,42,18,1,6,3,0,16,7,Hc,0.2552380952380953,0.1966666666666667,0.6800000000000004,0.3016666666666668
8,15,30,1,7,0.2700000000000001,2,4,17,15,105,22,7.739999999999886,6.229999999999912,5.549999999999926,0.7500000000000004,14,15,9,3,27,31,25,3,6,0.5,20,7,Hc,0.2866666666666668,0.20096774193548395,0.22200000000000006,0.2500000000000001
8,16,31,1,5,0.20000000000000004,2,4,45,24,47,44,2.1600000000000015,6.7899999999999,0.20000000000000004,4.089999999999957,8,10,1,10,14,25,1,13,5,0.5,21,7,Hc,0.15428571428571433,0.2716000000000001,0.20000000000000004,0.31461538461538474
8,16,32,1,4,0.2800000000000001,2,3,80,104,83,100,5.549999999999932,6.149999999999913,5.139999999999935,0.8200000000000005,10,7,10,3,30,20,17,3,2,0,10,7,Hc,0.18500000000000005,0.3075000000000001,0.3023529411764707,0.27333333333333343
8,17,33,1,9,0.23000000000000007,2,4,65,68,114,94,5.719999999999928,17.889999999999997,14.73999999999973,1.8600000000000014,14,18,15,7,28,65,61,8,4,0,13,7,Hc,0.20428571428571438,0.27523076923076933,0.2416393442622952,0.2325000000000001
8,17,34,1,1,0.2800000000000001,6,6,17,106,27,74,36.8200000000013,0.5100000000000002,0.38000000000000017,0.6800000000000004,20,4,2,6,147,4,2,6,3,0,16,7,Hc,0.2504761904761906,0.12750000000000006,0.19000000000000003,0.11333333333333336
8,18,35,1,4,2.0400000000000005,9,18,102,18,20,108,7.549999999999928,3.00999999999998,5.499999999999927,8.63999999999986,14,6,7,12,38,13,27,38,2,0,16,7,Hc,0.19868421052631585,0.23153846153846164,0.20370370370370378,0.22736842105263166
8,18,36,1,10,0.25000000000000006,2,3,94,87,89,88,6.669999999999908,0.5000000000000002,5.229999999999933,4.509999999999948,11,1,12,12,34,1,16,23,3,1,36,7,Hc,0.19617647058823537,0.5000000000000002,0.32687500000000014,0.1960869565217392
8,19,37,1,1,0.37000000000000016,2,4,13,33,19,78,7.579999999999891,2.669999999999987,1.450000000000001,0.6900000000000004,13,5,4,2,34,14,6,2,3,0,20,7,Hc,0.2229411764705883,0.19071428571428578,0.24166666666666675,0.34500000000000014
8,19,38,1,10,1.6900000000000013,15,22,95,91,94,50,10.449999999999859,2.8399999999999834,2.109999999999999,1.0300000000000007,20,7,4,4,59,14,7,6,3,0.5,13,7,Hc,0.17711864406779668,0.20285714285714293,0.30142857142857155,0.17166666666666672
9,1,1,0,9,0.38000000000000017,2,4,17,72,120,77,1.9600000000000013,0.5400000000000003,0.2900000000000001,0.19000000000000003,5,2,1,1,7,4,1,1,4,0,15,7,Hc,0.2800000000000001,0.135,0.2900000000000001,0.19000000000000003
9,1,2,0,2,0.7000000000000004,2,8,6,4,37,53,3.079999999999994,3.9199999999999604,0.6200000000000003,0.01,7,11,2,1,21,20,3,1,4,0,21,7,Hc,0.1466666666666667,0.19600000000000006,0.20666666666666675,0.01
9,2,3,0,1,0.3300000000000001,2,3,3,55,30,53,7.859999999999884,0.04,1.0100000000000007,0.12999999999999998,16,1,2,2,30,1,2,2,3,0,19,7,Hc,0.2620000000000001,0.04,0.5050000000000003,0.06499999999999999
9,2,4,0,8,0.2900000000000001,2,4,111,43,41,119,2.1100000000000017,1.0600000000000007,0.16,0.7100000000000004,7,5,1,3,10,7,1,4,2,0,14,7,Hc,0.21100000000000008,0.15142857142857144,0.16,0.17750000000000005
9,3,5,0,8,0.37000000000000016,3,6,116,42,110,12,1.2800000000000007,0.8900000000000006,2.6499999999999875,0.01,6,5,3,1,12,6,3,1,2,0,15,7,Hc,0.10666666666666669,0.14833333333333334,0.883333333333334,0.01
9,3,6,0,4,0.34000000000000014,2,5,103,106,34,98,1.3700000000000008,0.4200000000000002,0.5500000000000003,0.09,4,2,2,1,12,2,3,1,2,0.5,11,7,Hc,0.1141666666666667,0.21000000000000005,0.18333333333333335,0.09
9,4,7,0,9,0.34000000000000014,2,5,3,12,64,10,2.509999999999998,0.17,0.060000000000000005,0.9900000000000007,8,2,1,6,15,2,1,7,4,0.5,22,7,Hc,0.1673333333333334,0.08499999999999999,0.060000000000000005,0.14142857142857146
9,4,8,0,8,0.21000000000000005,3,3,75,118,82,119,7.889999999999881,0.04,1.350000000000001,2.8399999999999834,17,1,3,10,34,1,4,13,2,0,10,7,Hc,0.23205882352941185,0.04,0.3375000000000002,0.21846153846153854
9,5,9,0,3,0.5400000000000003,2,5,34,31,35,4,1.8900000000000012,0.25000000000000006,0.9500000000000006,0.10999999999999999,5,2,5,1,12,3,6,1,5,0.5,21,7,Hc,0.15750000000000003,0.08333333333333334,0.15833333333333338,0.10999999999999999
9,5,10,0,4,0.7400000000000004,13,15,80,71,61,66,2.3600000000000017,0.37000000000000016,0.24000000000000007,0.18000000000000002,18,2,1,2,22,3,1,2,2,0.5,15,7,Hc,0.1072727272727273,0.12333333333333334,0.24000000000000007,0.09
9,6,11,0,1,0.12999999999999998,2,2,14,80,112,68,4.239999999999957,0.01,0.01,0.01,9,1,1,1,14,1,1,1,3,0,15,7,Hc,0.302857142857143,0.01,0.01,0.01
9,6,12,0,2,0.22000000000000006,3,4,56,12,8,2,1.510000000000001,0.3100000000000001,1.0500000000000007,0.13999999999999999,5,1,3,2,10,1,3,2,4,0.5,22,7,Hc,0.15100000000000002,0.3100000000000001,0.35000000000000014,0.07
9,7,13,1,10,0.3100000000000001,2,4,29,21,96,90,1.730000000000001,0.2800000000000001,0.19000000000000003,0.09,4,2,2,1,7,3,2,1,3,0,17,7,Hc,0.24714285714285725,0.09333333333333335,0.095,0.09
9,7,14,1,1,0.4300000000000002,2,8,75,110,111,119,2.1200000000000014,0.26000000000000006,0.25000000000000006,0.09,6,1,1,1,16,1,1,1,3,0.5,9,7,Hc,0.13250000000000003,0.26000000000000006,0.25000000000000006,0.09
9,8,15,1,5,0.12999999999999998,2,2,1,10,7,40,8.999999999999856,0.9000000000000006,0.02,0.45000000000000023,16,3,1,2,27,4,1,2,5,0.5,23,7,Hc,0.3333333333333335,0.2250000000000001,0.02,0.22500000000000012
9,8,16,1,7,0.3000000000000001,2,4,19,71,14,111,1.4300000000000008,1.390000000000001,0.05,0.5300000000000002,5,4,1,3,13,10,1,3,6,0,18,7,Hc,0.11000000000000001,0.13900000000000004,0.05,0.17666666666666672
9,9,17,1,2,0.7000000000000004,13,14,54,57,113,8,1.0000000000000004,0.2900000000000001,1.500000000000001,0.8800000000000006,14,1,4,2,15,1,10,3,4,0,16,7,Hc,0.06666666666666668,0.2900000000000001,0.15000000000000002,0.29333333333333345
9,9,18,1,9,0.4000000000000002,5,6,28,34,30,33,2.430000000000001,0.8100000000000005,0.7700000000000005,1.300000000000001,13,2,2,4,18,3,2,7,4,1,60,7,Hc,0.13500000000000004,0.2700000000000001,0.38500000000000023,0.1857142857142858
9,10,19,1,3,0.7700000000000005,14,16,26,34,23,53,3.269999999999991,0.4000000000000002,3.6699999999999657,0.7900000000000005,18,4,9,2,21,4,18,2,5,0,20,7,Hc,0.15571428571428578,0.10000000000000002,0.20388888888888895,0.39500000000000024
9,10,20,1,8,0.36000000000000015,2,4,109,119,93,117,1.730000000000001,0.23000000000000007,0.8000000000000005,0.07,4,1,3,1,10,1,3,1,2,0.5,9,7,Hc,0.17300000000000004,0.23000000000000007,0.2666666666666668,0.07
9,11,21,1,4,0.22000000000000006,2,3,103,26,36,58,1.3800000000000008,0.5800000000000003,0.3900000000000002,1.5200000000000011,4,4,3,2,6,4,3,2,2,0,16,7,Hc,0.2300000000000001,0.14500000000000002,0.13,0.7600000000000006
9,11,22,1,9,0.7000000000000004,13,15,14,17,110,23,1.8400000000000012,0.35000000000000014,0.25000000000000006,0.10999999999999999,15,1,1,1,20,1,1,1,4,0.5,20,7,Hc,0.09200000000000001,0.35000000000000014,0.25000000000000006,0.10999999999999999
9,12,23,1,7,0.18000000000000002,2,5,15,93,45,42,5.3699999999999335,0.01,0.01,0.01,12,1,1,1,25,1,1,1,6,0,19,7,Hc,0.21480000000000007,0.01,0.01,0.01
9,12,24,1,3,0.4300000000000002,6,7,33,35,7,26,1.0500000000000005,0.9300000000000006,0.9900000000000007,0.07,7,5,3,1,8,5,5,1,5,0.5,21,7,Hc,0.13125000000000003,0.18600000000000005,0.19800000000000006,0.07
9,13,25,1,4,0.3000000000000001,3,4,90,105,94,50,1.530000000000001,0.46000000000000024,0.21000000000000005,0.15,6,2,1,1,8,3,1,1,2,0,12,7,Hc,0.19125000000000006,0.15333333333333335,0.21000000000000005,0.15
9,13,26,1,7,0.6100000000000003,5,6,47,84,13,110,2.290000000000002,2.6899999999999866,0.02,0.7900000000000005,11,8,1,6,15,11,1,8,6,0,16,7,Hc,0.1526666666666667,0.24454545454545465,0.02,0.09875000000000002
9,14,27,1,2,0.2800000000000001,2,6,57,30,91,98,1.0200000000000005,1.2100000000000009,0.24000000000000007,0.15,4,4,2,1,8,6,4,1,4,0,14,7,Hc,0.12750000000000003,0.20166666666666672,0.06,0.15
9,14,28,1,9,0.2900000000000001,2,5,113,14,76,44,2.1800000000000015,0.23000000000000007,0.22000000000000006,0.2900000000000001,6,2,2,2,13,2,2,2,4,0,16,7,Hc,0.16769230769230775,0.115,0.11000000000000001,0.14500000000000002
9,15,29,1,8,0.45000000000000023,9,9,112,111,52,51,3.4899999999999793,3.1599999999999766,3.0699999999999785,0.05,14,8,8,1,20,12,9,1,2,0,12,7,Hc,0.17450000000000007,0.2633333333333335,0.34111111111111125,0.05
9,15,30,1,9,1.0700000000000007,8,10,63,15,70,105,1.710000000000001,0.8000000000000005,0.24000000000000007,0.3200000000000001,10,2,1,2,14,6,1,4,4,0,16,7,Hc,0.12214285714285716,0.13333333333333333,0.24000000000000007,0.08
9,16,31,1,8,0.4000000000000002,2,3,110,40,59,44,1.7800000000000011,0.7600000000000005,0.2700000000000001,0.19000000000000003,5,3,2,1,8,5,2,1,2,0,16,7,Hc,0.22250000000000006,0.15200000000000005,0.135,0.19000000000000003
9,16,32,1,4,0.38000000000000017,2,3,10,65,68,6,2.0000000000000013,0.36000000000000015,0.23000000000000007,0.22000000000000006,6,1,1,2,12,1,1,2,2,0,20,7,Hc,0.1666666666666667,0.36000000000000015,0.23000000000000007,0.11000000000000001
9,17,33,1,3,0.3000000000000001,2,3,77,115,54,49,1.4900000000000009,0.3900000000000002,0.15,0.11999999999999998,4,1,1,2,8,1,1,2,5,0,13,7,Hc,0.18625000000000005,0.3900000000000002,0.15,0.06
9,17,34,1,5,0.19000000000000003,2,5,65,43,68,37,1.730000000000001,0.17,0.37000000000000016,0.10999999999999999,6,2,2,1,13,2,2,1,5,0,18,7,Hc,0.13307692307692312,0.08499999999999999,0.18500000000000003,0.10999999999999999
9,18,35,1,3,1.1700000000000008,4,9,77,26,5,116,1.8000000000000012,0.8100000000000005,2.9899999999999802,1.0800000000000007,6,3,9,3,12,4,15,3,5,0,16,7,Hc,0.15000000000000005,0.20250000000000004,0.1993333333333334,0.36000000000000015
9,18,36,1,7,0.3900000000000002,2,6,52,104,106,100,3.4599999999999786,0.7300000000000004,0.10999999999999999,0.6700000000000004,10,3,2,4,18,4,2,4,6,0.5,10,7,Hc,0.1922222222222223,0.1825000000000001,0.055,0.16750000000000004
9,19,37,1,8,0.47000000000000025,8,9,115,114,32,96,1.5000000000000009,0.7500000000000004,0.38000000000000017,0.35000000000000014,11,2,2,2,16,5,3,3,2,0,12,7,Hc,0.09375000000000001,0.15000000000000002,0.12666666666666665,0.1166666666666667
9,19,38,1,4,1.0200000000000007,3,5,75,15,83,39,2.0800000000000014,0.38000000000000017,0.12999999999999998,0.6100000000000003,7,1,1,2,11,1,1,5,2,0,17,7,Hc,0.18909090909090914,0.38000000000000017,0.12999999999999998,0.12200000000000001
9,20,39,1,3,0.3100000000000001,2,3,75,33,16,78,1.9100000000000013,0.5500000000000003,0.9000000000000006,2.8799999999999826,8,2,3,10,13,2,4,10,5,0,17,7,Hc,0.14692307692307696,0.2750000000000001,0.2250000000000001,0.2880000000000001
9,20,40,1,10,0.37000000000000016,2,5,92,88,12,105,2.4100000000000006,0.6400000000000003,0.08,0.11999999999999998,6,3,1,1,16,3,1,1,3,0,14,7,Hc,0.15062500000000004,0.2133333333333334,0.08,0.11999999999999998
9,21,41,1,1,0.47000000000000025,2,5,19,67,84,76,2.0500000000000016,0.48000000000000026,0.16,0.5200000000000002,5,2,1,3,9,3,1,3,3,0,16,7,Hc,0.22777777777777786,0.16,0.16,0.17333333333333334
9,21,42,1,10,0.5800000000000003,7,10,85,95,59,97,1.0900000000000005,0.3900000000000002,1.490000000000001,0.8500000000000005,9,1,5,5,14,1,6,5,3,0,12,7,Hc,0.07785714285714286,0.3900000000000002,0.2483333333333334,0.17000000000000004
10,1,1,0,5,0.4200000000000002,2,5,47,41,67,43,8.849999999999865,1.6700000000000013,1.8500000000000014,0.6800000000000004,16,6,5,2,43,11,7,2,5,0.5,19,7,Hc,0.20581395348837217,0.15181818181818185,0.2642857142857144,0.34000000000000014
10,1,2,0,7,0.7200000000000004,3,5,55,52,31,30,10.689999999999833,2.6599999999999873,0.4300000000000002,1.8500000000000014,16,7,2,4,55,12,3,7,6,0,18,7,Hc,0.1943636363636364,0.22166666666666673,0.14333333333333337,0.2642857142857144
10,2,3,0,6,0.4000000000000002,2,4,34,25,63,67,11.639999999999805,2.809999999999984,1.1200000000000008,1.1200000000000008,18,6,3,3,62,16,4,8,6,0,18,7,Hc,0.18774193548387103,0.17562500000000006,0.28000000000000014,0.14
10,2,4,0,7,0.23000000000000007,1,2,15,13,16,58,10.999999999999815,6.7899999999999,0.07,0.09999999999999999,14,11,1,1,45,25,1,1,6,0.5,22,7,Hc,0.24444444444444455,0.2716000000000001,0.07,0.09999999999999999
10,3,5,0,8,0.3000000000000001,2,3,115,120,116,117,11.29999999999981,0.22000000000000006,0.4300000000000002,1.440000000000001,18,1,4,3,61,1,6,7,2,1,24,7,Hc,0.18524590163934432,0.22000000000000006,0.07166666666666667,0.20571428571428577
10,3,6,0,1,0.37000000000000016,2,5,76,73,77,27,8.499999999999872,1.490000000000001,2.1199999999999988,1.1700000000000008,17,3,5,6,38,7,12,9,3,0.5,14,7,Hc,0.22368421052631587,0.21285714285714297,0.17666666666666675,0.13
10,4,7,0,1,0.3300000000000001,2,3,73,83,78,75,4.039999999999965,8.20999999999987,0.2800000000000001,0.4300000000000002,8,17,2,3,13,39,2,3,3,1,36,7,Hc,0.3107692307692309,0.21051282051282058,0.14,0.14333333333333334
10,4,8,0,3,0.6600000000000004,2,6,32,28,33,62,14.239999999999755,2.629999999999988,2.6899999999999866,0.2800000000000001,18,8,12,2,62,18,17,4,5,0.5,19,7,Hc,0.2296774193548388,0.14611111111111114,0.15823529411764709,0.07
10,5,9,0,9,1.0700000000000007,11,13,64,30,25,67,10.509999999999843,3.179999999999976,0.35000000000000014,0.19000000000000003,20,13,1,1,61,21,1,1,4,0,18,7,Hc,0.17229508196721316,0.15142857142857147,0.35000000000000014,0.19000000000000003
10,5,10,0,7,0.23000000000000007,2,3,19,16,23,13,4.649999999999951,4.939999999999939,2.3199999999999945,8.509999999999863,13,7,8,16,23,19,11,40,6,1,72,7,Hc,0.20217391304347831,0.2600000000000001,0.21090909090909096,0.21275000000000008
10,6,11,0,9,0.3300000000000001,2,4,63,70,61,64,14.039999999999752,1.310000000000001,0.7800000000000005,3.1199999999999775,20,7,4,10,69,8,7,17,4,1,48,7,Hc,0.20347826086956528,0.16375,0.11142857142857143,0.18352941176470594
10,6,12,0,8,0.37000000000000016,2,4,116,115,110,118,5.599999999999933,4.659999999999945,0.2700000000000001,0.23000000000000007,10,14,2,1,23,30,3,1,2,1,24,7,Hc,0.2434782608695653,0.15533333333333335,0.09000000000000001,0.23000000000000007
10,7,13,1,6,0.24000000000000007,2,3,1,2,5,8,8.39999999999987,6.849999999999898,0.9600000000000006,0.05,16,14,8,1,48,27,10,1,6,1,72,7,Hc,0.17500000000000004,0.2537037037037038,0.096,0.05
10,7,14,1,5,0.5500000000000003,2,5,38,39,42,48,10.61999999999983,0.7800000000000005,0.6100000000000003,1.6100000000000012,20,4,3,9,61,5,6,12,5,1,60,7,Hc,0.17409836065573775,0.15600000000000003,0.10166666666666668,0.13416666666666668
10,8,15,1,10,0.5400000000000003,2,7,96,93,58,89,10.67999999999983,3.5999999999999672,0.45000000000000023,0.20000000000000004,15,7,4,2,51,13,5,2,3,0.5,13,7,Hc,0.2094117647058824,0.27692307692307705,0.09000000000000001,0.09999999999999999
10,8,16,1,1,0.2900000000000001,2,5,39,83,80,84,7.0499999999999,1.2200000000000009,0.26000000000000006,3.419999999999971,13,5,1,7,41,12,1,17,3,0.5,14,7,Hc,0.17195121951219516,0.10166666666666667,0.26000000000000006,0.20117647058823535
10,9,17,1,6,0.36000000000000015,2,4,5,1,9,11,6.099999999999922,2.6099999999999883,1.380000000000001,1.9600000000000015,11,9,6,5,32,17,6,11,6,1,72,7,Hc,0.19062500000000004,0.15352941176470591,0.2300000000000001,0.17818181818181822
10,9,18,1,8,0.25000000000000006,2,3,119,120,117,112,8.159999999999876,1.1900000000000008,0.6800000000000004,4.529999999999948,18,7,3,12,42,9,4,25,2,1,24,7,Hc,0.19428571428571434,0.13222222222222224,0.17000000000000004,0.18120000000000006
10,10,19,1,2,0.26000000000000006,2,3,49,52,36,50,7.999999999999879,5.0599999999999365,2.9799999999999804,0.5500000000000003,15,14,6,4,41,28,12,4,4,0.5,17,7,Hc,0.19512195121951226,0.18071428571428577,0.2483333333333334,0.13750000000000004
10,10,20,1,5,0.10999999999999999,2,2,8,78,39,40,32.41000000000214,0.02,0.01,0.3100000000000001,20,1,1,2,162,1,1,2,5,0,19,7,Hc,0.20006172839506178,0.02,0.01,0.15500000000000005
10,11,21,1,6,0.19000000000000003,2,3,3,9,63,5,8.539999999999866,3.789999999999963,3.2599999999999745,2.5499999999999896,13,9,6,9,30,14,12,11,6,0.5,22,7,Hc,0.2846666666666668,0.27071428571428585,0.2716666666666668,0.2318181818181819
10,11,22,1,1,0.3200000000000001,2,3,76,53,82,73,7.219999999999898,4.159999999999956,0.38000000000000017,0.8500000000000005,11,10,2,3,36,23,2,7,3,0.5,13,7,Hc,0.20055555555555563,0.18086956521739136,0.19000000000000003,0.12142857142857143
10,12,23,1,5,0.45000000000000023,2,4,74,42,44,75,8.439999999999875,0.25000000000000006,0.9400000000000006,2.159999999999998,14,2,3,7,34,3,7,12,5,0,16,7,Hc,0.24823529411764714,0.08333333333333333,0.1342857142857143,0.18000000000000005
10,12,24,1,6,0.5200000000000002,9,11,30,85,2,4,13.659999999999764,1.8400000000000014,0.47000000000000025,0.8100000000000005,20,4,3,3,72,6,3,4,6,0,20,7,Hc,0.1897222222222223,0.3066666666666668,0.15666666666666673,0.20250000000000007
10,13,25,1,2,0.3100000000000001,2,4,56,59,21,95,6.689999999999909,4.209999999999955,0.9900000000000007,1.270000000000001,13,11,2,4,31,26,3,8,4,0,17,7,Hc,0.2158064516129033,0.16192307692307698,0.3300000000000002,0.15875000000000006
10,13,26,1,8,0.38000000000000017,2,6,109,111,36,112,6.779999999999908,1.5200000000000011,2.1299999999999986,1.2400000000000009,14,5,5,6,32,11,14,8,2,0.5,11,7,Hc,0.21187500000000006,0.1381818181818182,0.1521428571428572,0.15500000000000003
10,14,27,1,6,0.5400000000000003,6,7,3,10,89,85,6.239999999999923,2.5899999999999888,2.709999999999986,0.3300000000000001,17,7,7,1,36,20,13,1,6,0,18,7,Hc,0.1733333333333334,0.12950000000000003,0.20846153846153853,0.3300000000000001
10,14,28,1,5,0.2700000000000001,2,4,46,45,38,23,7.569999999999889,1.5100000000000011,2.53999999999999,0.9200000000000006,15,5,6,4,44,7,7,10,5,0.5,21,7,Hc,0.17204545454545458,0.2157142857142858,0.362857142857143,0.09200000000000001
10,15,29,1,5,0.25000000000000006,2,4,92,43,86,45,7.179999999999897,0.7400000000000004,0.8300000000000005,0.6400000000000003,15,4,2,3,31,5,3,3,5,0,16,7,Hc,0.23161290322580655,0.14800000000000002,0.2766666666666667,0.21333333333333337
10,15,30,1,1,0.19000000000000003,1,2,78,79,14,25,6.309999999999914,2.199999999999997,3.0799999999999783,3.0799999999999783,12,9,7,9,29,16,12,11,3,0,17,7,Hc,0.21758620689655178,0.1375,0.25666666666666677,0.28000000000000014
10,16,31,1,2,1.430000000000001,12,14,57,26,36,30,8.889999999999887,2.4499999999999917,1.8800000000000014,0.7800000000000005,20,7,5,4,47,11,8,4,4,0.5,19,7,Hc,0.18914893617021283,0.2227272727272728,0.23500000000000007,0.19500000000000006
10,16,32,1,8,0.3000000000000001,2,4,117,113,83,114,9.989999999999839,0.6600000000000004,2.299999999999995,3.039999999999979,16,2,7,9,44,3,16,21,2,0.5,9,7,Hc,0.22704545454545463,0.22000000000000006,0.14375000000000002,0.14476190476190481
10,17,33,1,4,0.2700000000000001,2,3,102,98,104,87,8.269999999999873,2.0899999999999994,2.579999999999989,0.8300000000000005,14,6,10,3,37,12,17,4,2,0.5,9,7,Hc,0.2235135135135136,0.17416666666666672,0.15176470588235297,0.20750000000000002
10,17,34,1,8,0.7500000000000004,9,9,33,115,77,66,13.709999999999768,3.9099999999999606,0.34000000000000014,0.23000000000000007,20,10,1,2,81,24,1,5,2,0,14,7,Hc,0.1692592592592593,0.1629166666666667,0.34000000000000014,0.046
10,18,35,1,7,0.5300000000000002,2,5,21,109,91,20,8.659999999999872,3.609999999999967,1.7700000000000014,0.7400000000000004,14,6,5,3,50,24,8,3,6,0,17,7,Hc,0.17320000000000005,0.1504166666666667,0.22125000000000009,0.24666666666666673
10,18,36,1,1,0.4000000000000002,2,6,34,74,5,28,12.399999999999789,0.8700000000000006,1.6700000000000013,0.12999999999999998,18,5,5,1,65,9,12,1,3,0,19,7,Hc,0.19076923076923083,0.09666666666666668,0.1391666666666667,0.12999999999999998
10,19,37,1,3,0.7400000000000004,2,8,20,36,118,82,8.43999999999988,3.2999999999999736,0.35000000000000014,1.350000000000001,12,4,2,4,49,22,2,8,5,0,16,7,Hc,0.1722448979591837,0.15000000000000005,0.17500000000000002,0.16875000000000004
10,19,38,1,10,0.38000000000000017,2,4,87,95,2,3,6.169999999999921,7.159999999999892,1.0700000000000007,1.1900000000000008,12,15,5,3,27,37,6,5,3,0,18,7,Hc,0.2285185185185186,0.19351351351351356,0.17833333333333337,0.23800000000000007
11,1,1,0,6,0.5700000000000003,2,5,11,1,30,7,1.670000000000001,0.7100000000000004,0.46000000000000024,5.909999999999918,4,2,2,8,9,3,3,17,6,0.5,23,7,Hc,0.1855555555555556,0.23666666666666675,0.15333333333333338,0.3476470588235296
11,1,2,0,5,0.38000000000000017,2,4,46,22,63,108,1.3700000000000008,1.320000000000001,0.2700000000000001,1.1000000000000008,4,4,1,4,6,10,1,9,5,0,17,7,Hc,0.22833333333333342,0.13200000000000003,0.2700000000000001,0.12222222222222225
11,2,3,0,2,0.2900000000000001,2,3,52,55,41,119,1.4800000000000009,0.9800000000000006,0.48000000000000026,0.7400000000000004,4,2,1,2,5,2,1,6,4,0,15,7,Hc,0.2960000000000001,0.4900000000000002,0.48000000000000026,0.12333333333333335
11,2,4,0,4,0.2900000000000001,2,3,70,73,14,18,2.5999999999999948,1.430000000000001,0.08,0.13999999999999999,6,4,1,2,10,8,1,2,2,0,19,7,Hc,0.2600000000000001,0.17875000000000005,0.08,0.07
11,3,5,0,2,0.47000000000000025,4,6,18,51,32,52,3.6899999999999755,0.24000000000000007,0.2800000000000001,0.04,11,2,2,1,18,2,3,1,4,0,19,7,Hc,0.20500000000000007,0.12,0.09333333333333335,0.04
11,3,6,0,6,0.3200000000000001,4,4,2,44,81,40,1.610000000000001,0.6000000000000003,0.3200000000000001,0.4100000000000002,6,2,1,2,11,3,1,3,6,0,19,7,Hc,0.1463636363636364,0.2000000000000001,0.3200000000000001,0.1366666666666667
11,4,7,0,9,0.36000000000000015,2,6,71,72,103,76,2.9399999999999893,0.5800000000000003,0.46000000000000024,0.07,7,2,1,1,16,2,1,1,4,0,13,7,Hc,0.18375000000000008,0.29000000000000015,0.46000000000000024,0.07
11,4,8,0,3,0.7300000000000004,12,13,3,1,115,85,7.479999999999901,0.5900000000000003,3.7399999999999642,1.0400000000000007,20,4,9,3,28,4,13,3,5,0,17,7,Hc,0.2671428571428573,0.14750000000000002,0.2876923076923078,0.34666666666666685
11,5,9,0,3,0.36000000000000015,2,3,112,117,109,26,2.9899999999999882,0.45000000000000023,0.17,0.17,6,2,2,2,12,2,2,2,5,0.5,11,7,Hc,0.24916666666666673,0.22500000000000003,0.08499999999999999,0.08499999999999999
11,5,10,0,4,0.48000000000000026,2,6,53,75,104,22,1.720000000000001,0.9500000000000006,0.25000000000000006,0.16,5,3,2,1,9,3,2,1,2,0,15,7,Hc,0.19111111111111118,0.3166666666666668,0.12500000000000003,0.16
11,6,11,0,10,0.22000000000000006,2,3,86,68,89,11,2.1100000000000017,1.480000000000001,0.09,0.7900000000000005,7,3,1,3,10,4,1,5,3,0,16,7,Hc,0.21100000000000008,0.37000000000000016,0.09,0.15800000000000006
11,6,12,0,7,0.5700000000000003,7,8,82,20,15,59,3.0499999999999914,0.16,0.45000000000000023,0.48000000000000026,15,1,2,3,24,1,2,3,6,0,19,7,Hc,0.12708333333333335,0.16,0.22500000000000006,0.16
11,7,13,1,4,0.8300000000000005,9,10,4,107,51,98,2.070000000000001,1.5600000000000012,0.12999999999999998,0.04,11,6,1,1,15,7,1,1,2,0,14,7,Hc,0.13800000000000004,0.22285714285714295,0.12999999999999998,0.04
11,7,14,1,8,0.7700000000000005,8,9,13,17,16,29,2.690000000000002,5.459999999999928,1.9000000000000015,0.04,12,9,6,1,15,16,7,1,2,0.5,23,7,Hc,0.1793333333333334,0.34125000000000016,0.2714285714285716,0.04
11,8,15,1,5,0.46000000000000024,2,3,48,9,5,115,2.2400000000000015,0.4400000000000002,2.2699999999999956,0.060000000000000005,5,2,5,2,11,5,9,2,5,0,19,7,Hc,0.2036363636363637,0.08800000000000001,0.25222222222222235,0.03
11,8,16,1,7,0.8100000000000005,12,13,14,20,106,28,3.309999999999991,3.4999999999999694,0.02,0.060000000000000005,18,8,1,1,29,15,1,1,6,0,19,7,Hc,0.11413793103448278,0.23333333333333342,0.02,0.060000000000000005
11,9,17,1,5,0.24000000000000007,2,3,19,106,23,40,1.7600000000000011,0.8000000000000005,0.2900000000000001,0.35000000000000014,4,2,1,2,7,5,1,2,5,0,19,7,Hc,0.25142857142857156,0.16000000000000006,0.2900000000000001,0.17500000000000002
11,9,18,1,6,0.6900000000000004,11,12,81,112,79,83,6.649999999999918,0.01,0.03,1.5900000000000012,19,1,1,3,27,1,1,3,6,0.5,11,7,Hc,0.24629629629629643,0.01,0.03,0.5300000000000004
11,10,19,1,6,0.26000000000000006,2,3,2,10,82,109,2.2000000000000015,0.20000000000000004,0.9900000000000007,0.25000000000000006,7,1,5,1,15,1,6,1,6,0,17,7,Hc,0.1466666666666667,0.20000000000000004,0.16500000000000004,0.25000000000000006
11,10,20,1,10,0.19000000000000003,2,3,88,29,13,25,0.8600000000000004,1.8100000000000014,0.3900000000000002,0.6800000000000004,4,5,2,3,7,8,3,6,3,0,19,7,Hc,0.12285714285714289,0.2262500000000001,0.13000000000000003,0.11333333333333334
11,11,21,1,8,0.35000000000000014,5,6,112,35,114,17,1.8000000000000012,1.9100000000000015,0.11999999999999998,1.470000000000001,8,5,1,3,14,7,1,4,2,0,15,7,Hc,0.12857142857142861,0.27285714285714296,0.11999999999999998,0.36750000000000016
11,11,22,1,6,1.1600000000000008,15,17,11,6,10,3,2.520000000000002,0.34000000000000014,3.8099999999999627,0.5700000000000003,17,2,7,3,25,3,12,3,6,1,72,7,Hc,0.10080000000000001,0.11333333333333337,0.31750000000000017,0.19000000000000006
11,12,23,1,1,0.8500000000000005,11,12,79,74,37,80,2.530000000000002,0.6600000000000004,2.8299999999999836,0.05,15,3,8,1,20,3,16,1,3,0.5,14,7,Hc,0.12650000000000003,0.22000000000000006,0.17687500000000006,0.05
11,12,24,1,3,0.5100000000000002,7,7,120,21,115,18,3.4599999999999813,3.379999999999972,0.01,0.01,12,6,1,1,14,11,1,1,5,0,16,7,Hc,0.24714285714285725,0.3072727272727274,0.01,0.01
11,13,25,1,8,0.23000000000000007,2,3,77,118,73,84,2.8399999999999883,0.9300000000000006,0.6700000000000004,0.17,9,4,2,3,12,5,2,3,2,0.5,11,7,Hc,0.23666666666666678,0.18600000000000008,0.3350000000000002,0.05666666666666667
11,13,26,1,4,0.8400000000000005,7,11,50,28,27,97,3.249999999999993,5.399999999999929,0.5000000000000002,0.5800000000000003,12,10,5,2,20,13,5,2,2,0,16,7,Hc,0.16250000000000006,0.4153846153846156,0.1,0.29000000000000015
11,14,27,1,5,0.22000000000000006,2,3,47,115,52,116,1.1800000000000006,1.7800000000000014,0.2700000000000001,0.7700000000000005,4,5,2,4,6,9,2,4,5,0,13,7,Hc,0.19666666666666674,0.19777777777777786,0.13500000000000004,0.19250000000000006
11,14,28,1,9,0.7500000000000004,9,11,67,71,25,108,1.5000000000000009,2.7299999999999858,0.4100000000000002,0.21000000000000005,11,6,3,2,13,16,3,2,4,0,15,7,Hc,0.1153846153846154,0.17062500000000003,0.13666666666666671,0.10500000000000001
11,15,29,1,2,0.2900000000000001,2,4,53,41,48,49,1.8600000000000012,1.5900000000000012,0.09999999999999999,0.08,5,4,1,1,9,6,1,1,4,0,18,7,Hc,0.20666666666666672,0.2650000000000001,0.09999999999999999,0.08
11,15,30,1,1,0.5000000000000002,2,3,109,79,76,114,2.8899999999999935,0.6200000000000003,0.8300000000000005,0.5600000000000003,9,3,4,1,14,6,10,1,3,0,10,7,Hc,0.2064285714285715,0.10333333333333335,0.083,0.5600000000000003
11,16,31,1,6,0.2900000000000001,2,3,12,7,1,4,1.520000000000001,0.5000000000000002,0.23000000000000007,25.680000000001215,4,3,1,16,9,3,1,90,6,1,72,7,Hc,0.16888888888888892,0.16666666666666669,0.23000000000000007,0.28533333333333344
11,16,32,1,9,0.21000000000000005,2,3,64,81,82,68,2.4799999999999955,0.7900000000000005,2.4599999999999915,0.6400000000000003,8,4,5,3,16,8,7,3,4,0,14,7,Hc,0.15500000000000003,0.09875000000000002,0.35142857142857165,0.2133333333333334
11,17,33,1,9,0.3100000000000001,2,3,64,67,118,29,1.590000000000001,1.0800000000000007,0.22000000000000006,0.11999999999999998,5,4,2,1,6,5,3,1,4,0,15,7,Hc,0.2650000000000001,0.21600000000000005,0.07333333333333333,0.11999999999999998
11,17,34,1,2,0.2800000000000001,2,3,81,48,43,80,2.1000000000000014,1.6600000000000013,0.45000000000000023,0.11999999999999998,6,4,5,1,9,4,5,1,4,0,16,7,Hc,0.23333333333333342,0.41500000000000026,0.09,0.11999999999999998
11,18,35,1,8,0.5000000000000002,2,4,82,29,116,117,2.2300000000000013,0.5200000000000002,0.23000000000000007,0.15,5,2,1,1,13,3,1,1,2,0,12,7,Hc,0.17153846153846158,0.17333333333333337,0.23000000000000007,0.15
11,18,36,1,10,0.3200000000000001,2,3,87,40,85,101,2.0400000000000014,0.5900000000000003,4.259999999999954,0.6800000000000004,5,2,11,3,8,2,14,3,3,0,13,7,Hc,0.25500000000000006,0.2950000000000001,0.30428571428571444,0.22666666666666677
11,19,37,1,3,0.37000000000000016,2,3,103,106,32,97,2.9299999999999895,0.2900000000000001,0.26000000000000006,0.7800000000000005,8,2,3,3,10,3,3,4,5,0.5,11,7,Hc,0.2930000000000001,0.09666666666666669,0.08666666666666667,0.19500000000000006
11,19,38,1,5,0.36000000000000015,2,3,87,38,41,54,2.1600000000000015,0.8400000000000005,0.3200000000000001,0.5900000000000003,6,2,2,2,9,3,3,2,5,0,17,7,Hc,0.2400000000000001,0.2800000000000001,0.10666666666666667,0.2950000000000001
11,20,39,1,3,0.4000000000000002,2,5,27,36,78,82,3.089999999999987,0.16,1.1500000000000008,0.4000000000000002,7,1,3,1,20,1,5,1,5,0,16,7,Hc,0.15450000000000003,0.16,0.2300000000000001,0.4000000000000002
11,20,40,1,8,0.5300000000000002,3,5,117,92,58,87,1.4100000000000008,0.4200000000000002,0.9500000000000006,0.09,5,2,3,1,7,3,4,1,2,0,12,7,Hc,0.2014285714285715,0.14000000000000004,0.2375000000000001,0.09
11,21,41,1,8,0.17,2,3,109,27,117,35,1.0900000000000005,1.8900000000000015,1.280000000000001,0.5600000000000003,5,4,4,2,9,4,4,2,2,0,14,7,Hc,0.12111111111111113,0.47250000000000025,0.3200000000000001,0.28000000000000014
11,21,42,1,5,0.2700000000000001,2,3,51,47,58,1,3.1999999999999815,3.7299999999999645,0.09999999999999999,0.01,7,5,1,1,11,9,2,1,5,0,19,7,Hc,0.29090909090909106,0.4144444444444447,0.049999999999999996,0.01
12,1,1,0,2,0.34000000000000014,2,3,28,36,26,57,4.589999999999954,0.38000000000000017,0.2700000000000001,0.21000000000000005,10,1,1,1,24,1,1,1,4,0.5,19,7,Hc,0.19125000000000006,0.38000000000000017,0.2700000000000001,0.21000000000000005
12,1,2,0,10,0.3900000000000002,2,6,11,63,93,7,3.6599999999999744,1.2400000000000009,0.15,0.6500000000000004,7,3,1,3,19,9,1,3,3,0,19,7,Hc,0.1926315789473685,0.1377777777777778,0.15,0.2166666666666667
12,2,3,0,1,0.3200000000000001,2,4,3,69,72,66,3.989999999999966,0.8100000000000005,0.8300000000000005,0.6500000000000004,9,2,2,2,15,3,3,2,3,0.5,18,7,Hc,0.2660000000000001,0.27000000000000013,0.2766666666666668,0.3250000000000001
12,2,4,0,7,0.26000000000000006,3,3,13,40,92,115,9.169999999999854,0.05,0.11999999999999998,0.08,14,1,1,1,39,1,1,1,6,0,16,7,Hc,0.2351282051282052,0.05,0.11999999999999998,0.08
12,3,5,0,10,0.3300000000000001,2,3,116,20,111,96,4.349999999999959,1.400000000000001,0.37000000000000016,0.09999999999999999,9,4,2,1,22,6,3,1,3,0,13,7,Hc,0.19772727272727278,0.2333333333333334,0.12333333333333334,0.09999999999999999
12,3,6,0,9,0.15,2,2,1,71,106,6,7.459999999999889,0.12999999999999998,0.4200000000000002,0.07,11,2,1,1,26,2,1,1,4,0,18,7,Hc,0.28692307692307706,0.06499999999999999,0.4200000000000002,0.07
12,4,7,0,4,0.3100000000000001,2,3,90,99,91,102,4.999999999999945,1.490000000000001,0.16,0.09,10,4,1,1,19,4,1,1,2,0,10,7,Hc,0.2631578947368422,0.37250000000000016,0.16,0.09
12,4,8,0,2,0.2700000000000001,2,2,1,12,54,80,18.720000000000084,0.01,0.01,0.01,20,1,1,1,86,1,1,1,4,0,19,7,Hc,0.21767441860465123,0.01,0.01,0.01
12,5,9,0,5,0.5800000000000003,2,3,43,88,41,39,1.670000000000001,1.5100000000000011,0.5400000000000003,0.3300000000000001,4,5,2,1,5,10,2,1,5,0.5,18,7,Hc,0.3340000000000002,0.15100000000000002,0.2700000000000001,0.3300000000000001
12,5,10,0,7,0.17,2,3,19,23,16,83,2.279999999999999,0.9400000000000006,2.479999999999991,0.18000000000000002,5,3,5,1,13,6,12,1,6,0.5,21,7,Hc,0.17538461538461542,0.1566666666666667,0.20666666666666675,0.18000000000000002
