Subject,Round,Phase,afterbreak,Schema,Schema_RT,Schema_OB,Schema_AS,Cho_1,Cho_2,Cho_3,Cho_4,RT_1,RT_2,RT_3,RT_4,OB_1,OB_2,OB_3,OB_4,AS_1,AS_2,AS_3,AS_4,schema_payoff,AC,performance,breakR,type,dwellmean_1,dwellmean_2,dwellmean_3,dwellmean_4
1,1,1,0,9,0.5900000000000003,2,5,66,44,37,108,2.8799999999999955,1.2200000000000009,1.0300000000000007,0.35000000000000014,4,2,2,2,21,4,7,3,4,0,16,7,Lc,0.13714285714285718,0.3050000000000001,0.14714285714285716,0.11666666666666668
1,1,2,0,10,1.300000000000001,15,19,82,50,53,78,8.229999999999897,0.05,0.09,0.09,20,2,1,1,64,2,1,1,6,0,14,7,Lc,0.12859375000000003,0.025,0.09,0.09
1,2,3,0,5,1.300000000000001,3,11,6,36,35,9,7.939999999999904,0.05,0.08,0.9700000000000006,15,1,1,5,51,1,1,8,6,0,22,7,Lc,0.15568627450980396,0.05,0.08,0.12125000000000002
1,2,4,0,7,1.0700000000000007,10,12,92,111,38,24,3.259999999999998,2.8299999999999836,0.22000000000000006,0.10999999999999999,13,5,1,1,27,18,2,1,3,0,16,7,Lc,0.12074074074074076,0.15722222222222226,0.11000000000000001,0.10999999999999999
1,3,5,0,3,0.6600000000000004,2,4,39,119,23,53,5.199999999999948,0.21000000000000005,0.3000000000000001,0.7000000000000004,10,1,2,3,37,1,5,7,5,0,17,7,Lc,0.14054054054054058,0.21000000000000005,0.06,0.1
1,3,6,0,7,1.2100000000000009,12,15,90,72,86,61,4.159999999999982,0.7400000000000004,0.6000000000000003,0.2900000000000001,16,2,3,2,35,5,3,4,3,0,14,7,Lc,0.11885714285714287,0.14800000000000005,0.20000000000000004,0.07250000000000001
1,4,7,0,10,1.2300000000000009,2,9,15,110,56,35,4.379999999999978,0.6100000000000003,0.5300000000000002,0.6900000000000004,8,3,3,2,34,5,3,8,6,0,17,7,Lc,0.12882352941176473,0.12200000000000004,0.1766666666666667,0.08625
1,4,8,0,3,0.4100000000000002,5,5,37,96,67,106,3.4799999999999787,0.6400000000000003,0.7100000000000004,0.45000000000000023,9,1,4,2,24,1,5,3,5,0,14,7,Lc,0.14500000000000002,0.6400000000000003,0.14200000000000002,0.15000000000000002
1,5,9,0,10,0.17,2,2,14,31,97,35,8.559999999999865,0.01,0.060000000000000005,0.01,13,1,2,1,54,1,2,1,6,0,18,7,Lc,0.15851851851851856,0.01,0.03,0.01
1,5,10,0,9,0.5800000000000003,7,7,84,77,79,80,4.469999999999962,1.0300000000000007,1.260000000000001,0.3000000000000001,13,3,4,2,29,6,7,6,4,1,36,7,Lc,0.1541379310344828,0.17166666666666672,0.18000000000000005,0.05
1,6,11,0,6,0.6900000000000004,2,4,52,18,92,53,4.069999999999972,1.1600000000000008,0.2900000000000001,0.7700000000000005,8,2,1,3,26,9,1,4,4,0,17,7,Lc,0.15653846153846157,0.12888888888888891,0.2900000000000001,0.19250000000000006
1,6,12,0,5,1.1600000000000008,2,12,10,4,62,9,2.650000000000002,2.0300000000000007,0.9900000000000007,1.5900000000000012,7,5,3,4,20,14,9,8,6,0.5,40,7,Lc,0.13250000000000003,0.14500000000000002,0.11000000000000001,0.1987500000000001
1,7,13,1,3,0.9700000000000006,16,18,46,43,40,37,3.2799999999999954,0.8300000000000005,3.759999999999964,0.2700000000000001,20,4,12,3,44,8,20,3,5,1,60,7,Lc,0.07454545454545455,0.10375000000000002,0.18800000000000006,0.09000000000000001
1,7,14,1,8,1.5400000000000011,16,22,109,118,24,112,4.289999999999987,0.5100000000000002,0.49000000000000027,0.3300000000000001,20,4,3,2,32,5,5,2,2,0.5,18,7,Lc,0.13406250000000006,0.10200000000000002,0.098,0.165
1,8,15,1,8,0.9400000000000006,2,12,116,112,23,35,4.199999999999975,0.5800000000000003,1.7800000000000014,0.6500000000000004,8,2,6,3,31,4,9,5,2,0,15,7,Lc,0.13548387096774198,0.14500000000000002,0.19777777777777786,0.13
1,8,16,1,4,0.6700000000000004,16,16,106,108,49,104,4.9299999999999535,0.13999999999999999,3.279999999999974,0.02,20,2,9,1,48,3,22,1,2,0.5,16,7,Lc,0.10270833333333336,0.04666666666666666,0.14909090909090914,0.02
1,9,17,1,3,1.0900000000000007,16,20,43,38,47,24,3.070000000000002,0.9600000000000006,0.20000000000000004,0.23000000000000007,19,5,2,1,29,6,2,1,5,0.5,36,7,Lc,0.10586206896551727,0.16000000000000006,0.1,0.23000000000000007
1,9,18,1,6,0.8000000000000005,5,7,58,105,32,100,5.919999999999936,0.6600000000000004,0.5400000000000003,0.04,15,4,3,1,36,5,3,1,4,0,13,7,Lc,0.16444444444444448,0.13200000000000003,0.18000000000000005,0.04
1,10,19,1,2,1.310000000000001,13,20,11,60,75,53,7.64999999999991,0.07,0.4000000000000002,0.3900000000000002,20,1,2,3,61,1,2,4,3,0,17,7,Lc,0.1254098360655738,0.07,0.2000000000000001,0.0975
1,10,20,1,3,0.5900000000000003,11,11,22,103,16,105,10.61999999999983,0.01,0.03,1.5900000000000012,20,1,1,8,80,1,1,9,5,0,16,7,Lc,0.13275000000000003,0.01,0.03,0.17666666666666672
1,11,21,1,1,0.47000000000000025,3,4,30,27,16,19,2.270000000000002,1.0400000000000007,1.0900000000000007,0.21000000000000005,5,4,2,1,20,8,7,1,5,0,22,7,Lc,0.11350000000000002,0.13,0.15571428571428575,0.21000000000000005
1,11,22,1,7,0.9000000000000006,12,13,93,53,6,58,4.229999999999974,3.5399999999999685,0.5500000000000003,0.4400000000000002,18,10,4,2,30,19,5,5,3,0,17,7,Lc,0.14100000000000004,0.18631578947368427,0.11000000000000001,0.08800000000000002
1,12,23,1,10,1.0400000000000007,10,14,33,54,74,78,2.640000000000002,3.00999999999998,0.8100000000000005,0.4000000000000002,13,8,3,1,25,26,5,2,6,0,15,7,Lc,0.10560000000000003,0.11576923076923079,0.16200000000000003,0.2000000000000001
1,12,24,1,7,0.6500000000000004,2,7,95,88,7,94,3.1299999999999915,0.2800000000000001,1.6500000000000012,0.2700000000000001,4,1,3,2,27,1,9,3,3,0.5,24,7,Lc,0.11592592592592593,0.2800000000000001,0.1833333333333334,0.09000000000000001
1,13,25,1,2,0.2700000000000001,2,3,14,50,106,79,10.149999999999833,0.01,0.01,0.01,18,1,1,1,57,1,1,1,3,0,15,7,Lc,0.17807017543859655,0.01,0.01,0.01
1,13,26,1,3,0.3200000000000001,7,7,2,39,44,12,7.969999999999882,0.11999999999999998,0.02,0.05,20,2,1,1,48,2,1,1,5,0,22,7,Lc,0.1660416666666667,0.06,0.02,0.05
1,14,27,1,8,1.5500000000000012,14,21,117,15,18,78,3.3300000000000027,0.7900000000000005,1.400000000000001,0.34000000000000014,18,2,3,2,35,6,13,3,2,0,17,7,Lc,0.09514285714285715,0.1316666666666667,0.1076923076923077,0.11333333333333334
1,14,28,1,7,0.35000000000000014,2,3,46,102,92,105,4.389999999999959,1.6400000000000012,0.04,0.20000000000000004,10,2,1,2,29,11,1,2,3,0,12,7,Lc,0.15137931034482763,0.14909090909090914,0.04,0.09999999999999999
1,15,29,1,1,0.8600000000000005,3,11,29,15,18,19,3.2699999999999934,1.0900000000000007,0.7200000000000004,0.12999999999999998,6,4,2,1,35,9,8,2,5,0.5,41,7,Lc,0.09342857142857144,0.12111111111111113,0.09,0.065
1,15,30,1,9,0.12999999999999998,2,2,3,37,74,80,17.299999999999883,0.01,0.09999999999999999,0.01,20,1,2,1,106,1,2,1,4,0,17,7,Lc,0.16320754716981137,0.01,0.049999999999999996,0.01
1,16,31,1,2,0.8800000000000006,2,7,98,102,8,101,4.319999999999971,1.420000000000001,0.6500000000000004,0.20000000000000004,10,6,2,2,30,7,8,4,3,0.5,18,7,Lc,0.14400000000000004,0.2028571428571429,0.08125,0.049999999999999996
1,16,32,1,8,1.1900000000000008,3,8,13,52,118,47,9.559999999999867,0.02,0.01,0.02,13,1,1,2,68,1,1,2,2,0,17,7,Lc,0.14058823529411768,0.02,0.01,0.01
1,17,33,1,2,1.0800000000000007,3,17,9,78,43,45,4.5999999999999694,0.46000000000000024,0.3200000000000001,0.8600000000000005,7,2,1,5,40,5,1,5,3,0,19,7,Lc,0.11500000000000002,0.09200000000000001,0.3200000000000001,0.17200000000000004
1,17,34,1,8,0.6900000000000004,2,5,19,110,114,14,5.089999999999951,1.0400000000000007,0.2900000000000001,0.7600000000000005,12,6,2,5,43,10,3,5,2,0,16,7,Lc,0.11837209302325583,0.10400000000000001,0.09666666666666666,0.15200000000000005
1,18,35,1,1,0.6500000000000004,3,7,26,115,35,113,2.9299999999999957,1.2000000000000008,0.7500000000000004,0.6700000000000004,5,6,4,4,25,9,5,5,5,0,14,7,Lc,0.11720000000000001,0.13333333333333336,0.15000000000000005,0.13400000000000004
1,18,36,1,2,1.9400000000000015,4,12,44,74,39,99,4.959999999999981,0.38000000000000017,0.5800000000000003,0.9800000000000006,8,2,2,4,31,4,5,7,3,0,15,7,Lc,0.16000000000000003,0.09500000000000001,0.116,0.14000000000000004
1,19,37,1,9,0.7000000000000004,4,7,118,19,18,84,3.6199999999999823,0.9100000000000006,5.099999999999936,0.5300000000000002,11,2,11,3,20,2,32,3,4,0,17,7,Lc,0.18100000000000005,0.4550000000000002,0.15937500000000004,0.1766666666666667
1,19,38,1,4,2.1299999999999986,2,16,57,44,47,103,4.659999999999989,1.390000000000001,0.25000000000000006,0.11999999999999998,7,3,1,2,29,16,1,2,2,0,16,7,Lc,0.16068965517241385,0.08687500000000001,0.25000000000000006,0.06
1,20,39,1,1,0.7200000000000004,2,5,28,77,27,118,4.539999999999963,0.37000000000000016,0.08,0.4000000000000002,7,2,1,2,37,3,1,5,5,0,15,7,Lc,0.12270270270270273,0.12333333333333335,0.08,0.08000000000000002
1,20,40,1,7,1.1700000000000008,2,10,95,92,88,96,4.329999999999977,0.3200000000000001,0.36000000000000015,0.35000000000000014,9,2,2,2,31,2,4,4,3,1,36,7,Lc,0.13967741935483874,0.16000000000000003,0.09000000000000001,0.08750000000000001
1,21,41,1,6,0.8800000000000006,2,8,114,5,10,109,4.879999999999959,0.6400000000000003,0.25000000000000006,0.17,9,4,2,1,33,6,4,1,4,0,16,7,Lc,0.14787878787878792,0.10666666666666667,0.06249999999999999,0.17
1,21,42,1,10,1.500000000000001,9,15,100,97,101,18,4.08999999999999,0.9300000000000006,0.3200000000000001,0.4200000000000002,13,2,2,2,32,10,2,4,6,0.5,18,7,Lc,0.12781250000000002,0.09300000000000001,0.16000000000000003,0.10500000000000002
2,1,1,0,6,1.5300000000000011,2,9,4,6,38,46,5.919999999999952,0.5500000000000003,0.2700000000000001,0.2800000000000001,9,2,2,2,24,8,2,4,4,0,22,7,Lc,0.24666666666666676,0.06875,0.13500000000000004,0.06999999999999999
2,1,2,0,9,0.9900000000000007,2,8,117,111,69,28,4.389999999999972,0.5000000000000002,0.45000000000000023,0.45000000000000023,8,2,2,2,26,2,2,2,4,0,13,7,Lc,0.1688461538461539,0.2500000000000001,0.22500000000000006,0.22500000000000003
2,2,3,0,10,0.9200000000000006,5,6,114,37,19,21,5.649999999999944,0.38000000000000017,1.420000000000001,0.07,15,2,7,2,28,2,11,2,6,0,19,7,Lc,0.20178571428571435,0.19000000000000006,0.12909090909090912,0.035
2,2,4,0,5,1.7700000000000014,2,10,1,99,36,102,3.570000000000003,1.9600000000000015,0.5100000000000002,0.5800000000000003,5,3,1,2,20,14,1,4,6,0,15,7,Lc,0.17850000000000005,0.14000000000000004,0.5100000000000002,0.14500000000000002
2,3,5,0,7,1.0500000000000007,2,12,96,63,95,46,5.98999999999994,0.2800000000000001,0.08,0.26000000000000006,13,2,1,2,40,2,1,2,3,0,15,7,Lc,0.14975000000000005,0.14000000000000004,0.08,0.13000000000000003
2,3,6,0,6,0.9300000000000006,4,7,27,49,28,16,5.179999999999954,0.4300000000000002,0.5600000000000003,1.0300000000000007,11,3,2,4,32,5,3,7,4,0,20,7,Lc,0.16187500000000005,0.08600000000000001,0.1866666666666667,0.14714285714285716
2,4,7,0,7,2.010000000000001,3,14,89,95,119,115,6.04999999999996,0.38000000000000017,0.5300000000000002,0.2700000000000001,12,2,2,1,40,2,2,1,3,0,10,7,Lc,0.15125000000000002,0.19000000000000003,0.2650000000000001,0.2700000000000001
2,4,8,0,4,1.0800000000000007,2,9,71,69,39,97,3.1000000000000014,2.159999999999998,0.49000000000000027,0.11999999999999998,8,5,3,1,20,10,4,2,2,0,15,7,Lc,0.15500000000000003,0.21600000000000008,0.12250000000000001,0.05999999999999999
2,5,9,0,3,0.8300000000000005,2,8,37,57,41,55,4.279999999999971,1.7000000000000013,0.6400000000000003,0.09,8,4,2,1,24,7,2,1,5,0,18,7,Lc,0.1783333333333334,0.24285714285714294,0.3200000000000001,0.09
2,5,10,0,7,1.1400000000000008,3,7,93,98,87,99,4.979999999999963,0.6900000000000004,0.18000000000000002,0.3100000000000001,9,2,1,2,28,4,1,2,3,0,10,7,Lc,0.1778571428571429,0.17250000000000004,0.18000000000000002,0.15500000000000003
2,6,11,0,2,1.0100000000000007,3,10,80,54,74,97,2.5100000000000016,2.149999999999998,0.36000000000000015,0.6400000000000003,6,7,2,3,14,10,2,4,3,0,12,7,Lc,0.17928571428571435,0.21500000000000008,0.18000000000000002,0.16000000000000006
2,6,12,0,10,1.5400000000000011,6,12,93,92,46,88,5.07999999999997,0.5000000000000002,0.4300000000000002,0.24000000000000007,11,2,2,2,35,6,2,3,6,0.5,23,7,Lc,0.14514285714285718,0.08333333333333334,0.21500000000000002,0.07999999999999999
2,7,13,1,5,0.10999999999999999,2,2,3,4,106,69,10.009999999999833,0.01,0.01,0.05,15,1,1,1,62,1,1,1,6,0,18,7,Lc,0.16145161290322585,0.01,0.01,0.05
2,7,14,1,10,1.490000000000001,3,6,43,14,83,54,7.219999999999923,1.470000000000001,0.6300000000000003,0.04,16,5,3,1,40,12,3,1,6,0,18,7,Lc,0.18050000000000005,0.12250000000000001,0.21000000000000008,0.04
2,8,15,1,9,1.2500000000000009,3,10,61,38,9,104,5.679999999999951,0.9900000000000007,0.5200000000000002,1.480000000000001,13,6,2,3,33,8,2,8,4,0,17,7,Lc,0.17212121212121217,0.12375000000000003,0.2600000000000001,0.18500000000000008
2,8,16,1,2,1.1000000000000008,5,11,34,51,82,80,5.269999999999956,0.25000000000000006,0.09,0.17,11,2,1,1,31,3,1,1,3,0,15,7,Lc,0.17000000000000004,0.08333333333333333,0.09,0.17
2,9,17,1,7,0.37000000000000016,2,4,2,103,72,67,15.109999999999731,0.03,0.01,0.01,20,1,1,1,70,1,1,1,3,0,16,7,Lc,0.21585714285714294,0.03,0.01,0.01
2,9,18,1,10,1.2000000000000008,2,6,20,79,22,81,3.989999999999985,0.5400000000000003,1.320000000000001,0.9600000000000006,6,3,5,3,24,4,10,5,6,0,18,7,Lc,0.16625000000000004,0.13500000000000004,0.13200000000000003,0.1920000000000001
2,10,19,1,1,0.9200000000000006,2,7,36,101,35,84,3.4899999999999896,1.8000000000000014,0.6100000000000003,0.15,7,3,3,1,25,6,6,1,5,0,15,7,Lc,0.13960000000000003,0.3000000000000001,0.10166666666666668,0.15
2,10,20,1,8,0.9700000000000006,7,8,17,15,118,112,4.689999999999966,0.8100000000000005,0.16,0.10999999999999999,16,4,2,1,25,4,2,1,2,0,16,7,Lc,0.18760000000000007,0.20250000000000004,0.08,0.10999999999999999
2,11,21,1,6,1.260000000000001,2,10,59,9,60,8,4.879999999999968,1.360000000000001,3.569999999999968,0.4300000000000002,8,3,6,4,28,7,20,4,4,0,20,7,Lc,0.17428571428571432,0.1942857142857143,0.17850000000000005,0.10750000000000001
2,11,22,1,4,1.0700000000000007,4,8,68,67,63,19,4.159999999999979,0.9200000000000006,1.5100000000000011,0.5500000000000003,9,3,5,3,30,7,11,4,2,0.5,30,7,Lc,0.1386666666666667,0.13142857142857145,0.1372727272727273,0.13750000000000004
2,12,23,1,5,1.1300000000000008,2,9,3,1,10,99,3.0400000000000023,7.859999999999877,0.01,0.01,5,13,1,1,21,39,1,1,6,0.5,38,7,Lc,0.14476190476190479,0.2015384615384616,0.01,0.01
2,12,24,1,10,1.6300000000000012,3,14,64,19,112,111,5.299999999999967,0.5100000000000002,0.20000000000000004,0.37000000000000016,12,3,1,3,32,3,1,5,6,0,14,7,Lc,0.16562500000000005,0.17000000000000004,0.20000000000000004,0.07400000000000001
2,13,25,1,3,1.5500000000000012,3,10,67,20,72,43,3.8699999999999957,0.6900000000000004,0.4400000000000002,0.22000000000000006,9,2,4,1,26,2,5,1,5,0,19,7,Lc,0.14884615384615388,0.34500000000000014,0.08800000000000004,0.22000000000000006
2,13,26,1,5,0.9800000000000006,3,7,1,83,49,3,4.529999999999969,0.5500000000000003,1.5500000000000012,3.45999999999997,11,2,5,9,21,5,7,23,6,0,19,7,Lc,0.21571428571428578,0.11000000000000001,0.2214285714285715,0.1504347826086957
2,14,27,1,3,1.0900000000000007,2,8,43,17,21,82,3.19,2.7399999999999856,1.5800000000000012,0.3000000000000001,7,7,8,2,22,14,14,2,5,0,20,7,Lc,0.14500000000000005,0.19571428571428579,0.11285714285714288,0.15000000000000005
2,14,28,1,1,1.1800000000000008,14,17,35,29,7,1,3.110000000000002,0.8500000000000005,3.839999999999962,0.04,17,4,8,2,34,7,17,2,5,0,22,7,Lc,0.09147058823529412,0.12142857142857146,0.22588235294117656,0.02
2,15,29,1,4,0.9200000000000006,2,9,15,102,67,77,3.6899999999999853,0.6600000000000004,0.37000000000000016,0.16,7,2,2,1,15,3,4,1,2,0,15,7,Lc,0.2460000000000001,0.22000000000000006,0.09250000000000001,0.16
2,15,30,1,5,0.2800000000000001,3,4,4,9,6,7,3.489999999999976,0.18000000000000002,0.25000000000000006,2.8799999999999826,8,1,1,7,23,1,1,9,6,1,72,7,Lc,0.15173913043478263,0.18000000000000002,0.25000000000000006,0.3200000000000002
2,16,31,1,6,0.7700000000000005,3,5,81,76,57,84,2.800000000000001,0.8000000000000005,0.7300000000000004,0.16,8,3,3,1,16,5,7,1,4,0.5,22,7,Lc,0.17500000000000007,0.16000000000000003,0.10428571428571429,0.16
2,16,32,1,9,0.16,2,3,2,38,61,98,8.30999999999987,0.01,0.26000000000000006,0.13999999999999999,17,1,2,1,39,1,2,1,4,0,17,7,Lc,0.21307692307692316,0.01,0.13000000000000003,0.13999999999999999
2,17,33,1,3,2.3799999999999932,8,19,2,78,66,79,4.539999999999991,0.4100000000000002,2.020000000000001,0.2900000000000001,12,1,5,2,26,1,15,5,5,0,16,7,Lc,0.17461538461538467,0.4100000000000002,0.13466666666666668,0.058
2,17,34,1,1,0.9400000000000006,2,13,35,56,32,22,3.369999999999993,0.9200000000000006,0.2800000000000001,1.1100000000000008,6,2,2,6,33,6,3,10,5,0,20,7,Lc,0.10212121212121214,0.15333333333333335,0.09333333333333332,0.11100000000000002
2,18,35,1,6,1.310000000000001,2,10,78,9,58,55,5.439999999999957,0.22000000000000006,0.8400000000000005,0.34000000000000014,8,1,3,2,32,1,10,2,4,0,17,7,Lc,0.17000000000000004,0.22000000000000006,0.084,0.17000000000000004
2,18,36,1,10,0.7300000000000004,2,5,20,19,109,21,5.929999999999934,2.6599999999999873,0.03,0.9600000000000006,13,10,1,4,44,16,1,4,6,0.5,38,7,Lc,0.1347727272727273,0.16625000000000006,0.03,0.24000000000000007
2,19,37,1,4,0.7400000000000004,2,6,103,106,80,79,4.389999999999967,0.8400000000000005,0.7000000000000004,0.7000000000000004,10,4,4,3,25,5,5,5,2,0,10,7,Lc,0.17560000000000006,0.16800000000000004,0.14000000000000004,0.14
2,19,38,1,7,0.5800000000000003,4,7,87,8,7,58,2.2600000000000016,2.9799999999999804,0.25000000000000006,1.8200000000000014,8,8,2,4,13,22,2,9,3,0,19,7,Lc,0.1738461538461539,0.1354545454545455,0.125,0.20222222222222228
2,20,39,1,1,1.1400000000000008,11,15,34,95,87,70,3.2300000000000004,0.7700000000000005,2.899999999999982,0.060000000000000005,14,3,11,2,21,4,16,2,5,0,15,7,Lc,0.15380952380952387,0.19250000000000006,0.18125000000000005,0.03
2,20,40,1,2,0.5400000000000003,3,8,1,84,52,4,16.059999999999715,0.01,0.01,0.01,20,1,1,1,88,1,1,1,3,0,19,7,Lc,0.18250000000000005,0.01,0.01,0.01
2,21,41,1,8,0.6700000000000004,9,10,80,114,84,35,7.159999999999906,0.8100000000000005,0.7000000000000004,0.04,17,4,4,2,51,5,5,2,2,0,13,7,Lc,0.14039215686274512,0.16200000000000003,0.14000000000000004,0.02
2,21,42,1,10,0.3900000000000002,2,3,23,18,22,24,2.7199999999999944,2.7299999999999858,5.159999999999934,0.01,10,9,12,1,19,16,27,1,6,1,72,7,Lc,0.14315789473684215,0.17062500000000005,0.19111111111111118,0.01
3,1,1,0,3,0.6000000000000003,2,4,44,108,41,48,2.859999999999996,0.7500000000000004,0.08,0.15,6,2,1,2,18,8,1,2,5,0.5,32,7,Lc,0.15888888888888894,0.09375000000000001,0.08,0.075
3,1,2,0,5,0.8600000000000005,2,9,1,2,8,111,3.3999999999999906,0.5300000000000002,2.819999999999984,0.02,6,2,6,1,19,4,19,1,6,0.5,38,7,Lc,0.1789473684210527,0.13250000000000003,0.14842105263157898,0.02
3,2,3,0,4,0.7200000000000004,2,6,1,98,97,104,2.6300000000000017,0.7600000000000005,0.2900000000000001,0.8700000000000006,6,3,2,4,11,11,3,7,2,0.5,18,7,Lc,0.2390909090909092,0.06909090909090909,0.09666666666666668,0.12428571428571433
3,2,4,0,7,0.9600000000000006,2,8,89,113,117,65,3.1999999999999966,1.0500000000000007,0.16,0.4000000000000002,5,2,2,1,22,14,2,1,3,0,11,7,Lc,0.14545454545454548,0.075,0.07999999999999999,0.4000000000000002
3,3,5,0,4,0.7500000000000004,2,7,101,100,106,4,2.2500000000000018,0.5900000000000003,0.8700000000000006,0.3100000000000001,5,2,3,2,17,3,5,3,2,0.5,18,7,Lc,0.13235294117647062,0.1966666666666667,0.17400000000000002,0.10333333333333333
3,3,6,0,10,0.37000000000000016,2,3,15,13,117,65,1.680000000000001,9.489999999999842,0.01,0.15,5,19,1,2,7,72,1,2,6,0,18,7,Lc,0.24000000000000007,0.1318055555555556,0.01,0.075
3,4,7,0,8,0.8200000000000005,2,8,109,39,46,120,2.8400000000000016,2.1199999999999988,0.19000000000000003,0.5900000000000003,9,6,1,5,19,9,1,6,2,0,14,7,Lc,0.14947368421052634,0.23555555555555563,0.19000000000000003,0.09833333333333334
3,4,8,0,4,0.8400000000000005,2,5,68,103,69,30,3.9199999999999786,0.5500000000000003,0.11999999999999998,0.18000000000000002,10,4,1,1,27,4,1,1,2,0,15,7,Lc,0.14518518518518522,0.13750000000000004,0.11999999999999998,0.18000000000000002
3,5,9,0,4,0.6700000000000004,2,8,102,4,106,47,3.8899999999999757,1.1100000000000008,0.13999999999999999,0.17,13,8,2,2,29,11,2,2,2,0,15,7,Lc,0.1341379310344828,0.10090909090909092,0.06999999999999999,0.08499999999999999
3,5,10,0,1,1.0100000000000007,7,10,28,92,33,17,2.880000000000002,1.1200000000000008,0.13999999999999999,1.290000000000001,11,2,1,6,19,11,1,9,5,0,19,7,Lc,0.1515789473684211,0.10181818181818184,0.13999999999999999,0.14333333333333337
3,6,11,0,3,0.5700000000000003,2,5,39,89,103,106,5.889999999999931,0.03,0.11999999999999998,0.02,10,1,1,1,28,1,1,1,5,0,12,7,Lc,0.21035714285714294,0.03,0.11999999999999998,0.02
3,6,12,0,2,0.5600000000000003,6,7,20,77,17,33,3.049999999999991,1.480000000000001,0.07,0.36000000000000015,12,6,2,2,23,10,2,3,3,0,20,7,Lc,0.13260869565217395,0.14800000000000002,0.035,0.11999999999999998
3,7,13,1,8,0.9300000000000006,3,11,117,115,114,23,2.640000000000002,0.35000000000000014,0.3100000000000001,0.6900000000000004,5,2,2,2,23,3,3,6,2,0.5,18,7,Lc,0.1147826086956522,0.11666666666666667,0.10333333333333333,0.11499999999999999
3,7,14,1,4,0.6300000000000003,3,5,98,107,103,5,2.939999999999995,0.18000000000000002,0.26000000000000006,1.0500000000000007,7,1,2,3,23,1,2,11,2,0.5,18,7,Lc,0.12782608695652176,0.18000000000000002,0.13000000000000003,0.09545454545454546
3,8,15,1,7,0.4300000000000002,2,4,93,105,98,96,1.8700000000000012,1.410000000000001,0.3300000000000001,0.09,4,4,3,2,11,5,4,2,3,0,10,7,Lc,0.17000000000000004,0.28200000000000014,0.08249999999999999,0.045000000000000005
3,8,16,1,8,1.0700000000000007,2,11,46,112,45,19,3.3299999999999965,0.2700000000000001,0.3100000000000001,0.21000000000000005,6,2,2,1,22,2,3,1,2,0,18,7,Lc,0.1513636363636364,0.13500000000000004,0.10333333333333336,0.21000000000000005
3,9,17,1,10,0.7300000000000004,2,8,13,14,59,23,1.9000000000000012,1.6200000000000012,1.380000000000001,0.04,4,7,4,1,10,17,7,1,6,0.5,40,7,Lc,0.19000000000000009,0.09529411764705883,0.1971428571428572,0.04
3,9,18,1,4,0.8700000000000006,2,10,62,1,102,104,4.049999999999977,1.8700000000000014,0.45000000000000023,0.3100000000000001,10,4,2,2,27,8,3,2,2,0,14,7,Lc,0.15000000000000005,0.2337500000000001,0.15000000000000005,0.15500000000000005
3,10,19,1,7,0.9800000000000006,2,7,87,54,110,88,2.730000000000002,2.3099999999999947,0.21000000000000005,0.09,7,5,3,2,15,15,3,2,3,0,12,7,Lc,0.18200000000000005,0.15400000000000003,0.06999999999999999,0.045000000000000005
3,10,20,1,3,0.8800000000000006,7,11,70,16,78,19,6.28999999999993,2.5899999999999888,0.8700000000000006,0.08,16,11,6,2,38,22,7,3,5,0,19,7,Lc,0.16552631578947372,0.11772727272727275,0.1242857142857143,0.02666666666666667
3,11,21,1,5,0.6100000000000003,4,7,3,2,107,56,2.0400000000000014,7.019999999999895,0.01,0.01,8,15,1,1,17,44,1,1,6,0,18,7,Lc,0.12000000000000002,0.1595454545454546,0.01,0.01
3,11,22,1,10,2.9699999999999807,8,16,86,63,23,32,4.4099999999999815,1.300000000000001,0.11999999999999998,0.26000000000000006,11,4,2,1,24,4,2,1,6,0,18,7,Lc,0.18375000000000005,0.3250000000000002,0.060000000000000005,0.26000000000000006
3,12,23,1,8,0.4300000000000002,2,4,73,116,115,109,2.9499999999999904,0.11999999999999998,0.21000000000000005,1.0600000000000007,8,1,2,6,14,1,3,7,2,0.5,15,7,Lc,0.2107142857142858,0.11999999999999998,0.06999999999999999,0.15142857142857147
3,12,24,1,1,0.8300000000000005,2,8,4,107,71,102,10.239999999999844,0.01,0.01,0.11999999999999998,18,1,1,2,60,1,1,2,5,0,14,7,Lc,0.17066666666666672,0.01,0.01,0.05999999999999999
3,13,25,1,10,0.7300000000000004,2,9,89,93,42,16,2.9699999999999966,0.23000000000000007,0.7600000000000005,0.07,6,1,3,1,22,1,4,1,6,0,17,7,Lc,0.13500000000000004,0.23000000000000007,0.19000000000000006,0.07
3,13,26,1,2,0.4300000000000002,2,3,75,29,98,35,1.640000000000001,1.9200000000000015,0.13999999999999999,0.7900000000000005,5,3,1,2,9,12,2,5,3,0,15,7,Lc,0.18222222222222226,0.16000000000000003,0.06999999999999999,0.15800000000000003
3,14,27,1,1,1.2200000000000009,12,17,35,68,36,113,3.79999999999999,0.35000000000000014,0.45000000000000023,0.23000000000000007,15,2,2,2,46,3,3,2,5,0,16,7,Lc,0.08260869565217392,0.11666666666666668,0.15,0.115
3,14,28,1,4,0.9600000000000006,2,9,98,102,89,15,2.950000000000002,1.1200000000000008,0.45000000000000023,0.25000000000000006,5,4,2,1,15,8,2,1,2,0,13,7,Lc,0.19666666666666674,0.14,0.22500000000000006,0.25000000000000006
3,15,29,1,7,1.0000000000000007,2,12,88,85,16,70,2.580000000000002,0.7400000000000004,1.450000000000001,0.09,6,2,4,2,24,4,7,2,3,0,16,7,Lc,0.10750000000000001,0.18500000000000005,0.2071428571428572,0.045
3,15,30,1,4,0.6400000000000003,3,5,31,2,3,108,2.8699999999999966,1.8200000000000014,0.7700000000000005,0.5100000000000002,8,6,3,1,24,10,3,1,2,0,19,7,Lc,0.11958333333333335,0.18200000000000008,0.25666666666666677,0.5100000000000002
3,16,31,1,10,0.45000000000000023,2,4,23,63,36,17,2.3400000000000016,0.48000000000000026,0.3300000000000001,0.18000000000000002,6,3,2,2,15,4,3,4,6,0,21,7,Lc,0.15600000000000006,0.12000000000000002,0.11000000000000003,0.045
3,16,32,1,6,0.3200000000000001,2,3,3,53,92,8,2.909999999999989,0.2900000000000001,0.38000000000000017,0.21000000000000005,12,4,2,2,24,6,3,3,4,0,19,7,Lc,0.12125000000000004,0.04833333333333333,0.12666666666666668,0.06999999999999999
3,17,33,1,8,1.1800000000000008,3,9,110,92,18,65,3.479999999999996,0.20000000000000004,0.4000000000000002,0.25000000000000006,6,2,2,2,25,3,6,4,2,0,15,7,Lc,0.13920000000000002,0.06666666666666668,0.06666666666666667,0.0625
3,17,34,1,3,0.5400000000000003,2,6,37,101,108,81,1.590000000000001,1.480000000000001,0.3100000000000001,0.18000000000000002,6,3,1,2,12,10,1,2,5,0,12,7,Lc,0.13250000000000003,0.14800000000000005,0.3100000000000001,0.09
3,18,35,1,10,1.0400000000000007,2,10,22,40,43,41,2.2300000000000013,1.6900000000000013,0.09999999999999999,0.10999999999999999,4,8,1,1,16,12,2,1,6,0.5,36,7,Lc,0.13937500000000003,0.14083333333333334,0.05,0.10999999999999999
3,18,36,1,9,1.0100000000000007,2,10,6,67,102,106,2.880000000000002,2.020000000000001,0.03,0.05,8,6,1,1,21,15,1,1,4,0,14,7,Lc,0.13714285714285718,0.1346666666666667,0.03,0.05
3,19,37,1,9,1.1800000000000008,5,12,72,48,4,61,3.4099999999999975,0.20000000000000004,0.09,0.5200000000000002,9,1,1,3,28,1,1,4,4,0,19,7,Lc,0.1217857142857143,0.20000000000000004,0.09,0.13000000000000006
3,19,38,1,1,0.7700000000000005,2,6,32,29,20,19,3.179999999999993,0.45000000000000023,0.12999999999999998,0.26000000000000006,6,3,1,3,26,4,2,3,5,0,22,7,Lc,0.12230769230769233,0.1125,0.065,0.08666666666666667
3,20,39,1,7,0.7800000000000005,3,9,89,33,6,69,2.1200000000000014,0.4000000000000002,0.4100000000000002,0.4200000000000002,6,1,1,2,19,1,1,2,3,0,18,7,Lc,0.11157894736842107,0.4000000000000002,0.4100000000000002,0.21000000000000005
3,20,40,1,2,0.48000000000000026,3,5,74,47,24,98,1.4600000000000009,0.7400000000000004,1.0800000000000007,0.2900000000000001,6,3,4,2,13,5,11,2,3,0,16,7,Lc,0.11230769230769233,0.14800000000000005,0.09818181818181819,0.14500000000000005
3,21,41,1,3,0.5000000000000002,5,10,76,47,45,82,1.9700000000000013,0.6300000000000003,0.3100000000000001,0.19000000000000003,8,2,2,1,19,5,3,1,5,0,16,7,Lc,0.10368421052631581,0.12600000000000003,0.10333333333333335,0.19000000000000003
3,21,42,1,7,0.8600000000000005,3,9,95,96,107,14,2.9699999999999998,1.1000000000000008,0.4000000000000002,0.07,6,5,2,2,27,8,2,2,3,0,14,7,Lc,0.11000000000000001,0.1375,0.2,0.035
4,1,1,0,2,1.340000000000001,2,25,79,81,5,98,3.7099999999999946,1.6100000000000012,0.4100000000000002,0.35000000000000014,4,2,2,2,61,21,4,9,3,0,14,7,Lc,0.06081967213114754,0.07666666666666667,0.1025,0.03888888888888889
4,1,2,0,1,1.5900000000000012,2,33,35,50,19,20,3.889999999999996,2.2299999999999964,0.08,0.11999999999999998,5,4,2,2,73,43,2,3,5,0,21,7,Lc,0.05328767123287671,0.05186046511627907,0.04,0.04
4,2,3,0,8,2.2299999999999964,19,51,120,22,16,76,3.549999999999997,1.5100000000000011,1.2200000000000009,1.460000000000001,20,2,2,8,73,20,26,21,2,0,17,7,Lc,0.04863013698630137,0.0755,0.04692307692307692,0.06952380952380953
4,2,4,0,3,1.2400000000000009,2,21,8,48,1,9,4.429999999999977,0.11999999999999998,0.5800000000000003,0.21000000000000005,5,2,2,2,74,3,13,5,5,0.5,41,7,Lc,0.059864864864864864,0.04,0.04461538461538461,0.042
4,3,5,0,9,0.8000000000000005,4,10,67,1,33,61,2.7500000000000018,2.5599999999999894,0.3100000000000001,0.060000000000000005,7,5,3,2,50,46,7,2,4,0,19,7,Lc,0.055,0.05565217391304347,0.04428571428571428,0.030000000000000002
4,3,6,0,8,2.099999999999999,2,44,110,109,111,21,4.309999999999996,0.5000000000000002,1.6900000000000013,0.6700000000000004,4,4,6,5,88,9,32,12,2,0.5,18,7,Lc,0.04897727272727273,0.05555555555555556,0.0528125,0.05583333333333334
4,4,7,0,3,1.1600000000000008,2,25,37,83,112,82,4.619999999999971,1.380000000000001,0.3000000000000001,0.16,7,4,3,1,70,29,7,2,5,0,13,7,Lc,0.066,0.04758620689655172,0.04285714285714286,0.07999999999999999
4,4,8,0,1,1.340000000000001,2,27,34,20,24,22,3.0900000000000025,1.7200000000000013,0.35000000000000014,0.5400000000000003,5,9,3,2,45,32,5,9,5,0.5,41,7,Lc,0.06866666666666667,0.05375,0.06999999999999999,0.06
4,5,9,0,4,0.7600000000000005,2,15,104,97,100,25,3.6899999999999817,0.21000000000000005,1.8400000000000014,0.6500000000000004,11,2,13,7,59,3,32,17,2,0.5,17,7,Lc,0.06254237288135593,0.06999999999999999,0.057499999999999996,0.03823529411764706
4,5,10,0,6,0.6900000000000004,3,8,50,60,73,42,3.559999999999983,0.6700000000000004,0.6900000000000004,0.5200000000000002,6,3,4,2,62,11,12,5,4,0,16,7,Lc,0.05741935483870968,0.060909090909090906,0.057499999999999996,0.104
4,6,11,0,10,1.9100000000000015,3,36,24,47,82,52,3.6700000000000026,2.4999999999999907,0.5300000000000002,0.47000000000000025,6,4,3,2,58,43,13,11,6,0,18,7,Lc,0.06327586206896552,0.05813953488372093,0.04076923076923077,0.042727272727272725
4,6,12,0,1,0.7800000000000005,2,19,32,28,118,35,2.650000000000002,1.5200000000000011,2.1899999999999973,0.7600000000000005,6,6,12,7,45,31,44,12,5,0.5,32,7,Lc,0.05888888888888889,0.04903225806451613,0.049772727272727274,0.06333333333333334
4,7,13,1,2,1.1300000000000008,2,22,82,27,76,79,3.789999999999988,0.9300000000000006,0.20000000000000004,1.5300000000000011,8,2,2,5,76,18,3,35,3,0.5,23,7,Lc,0.049868421052631576,0.051666666666666666,0.06666666666666667,0.04371428571428571
4,7,14,1,9,1.5800000000000012,2,30,71,103,70,8,3.4000000000000026,2.9399999999999813,0.5500000000000003,0.20000000000000004,9,10,5,1,60,44,11,2,4,0,16,7,Lc,0.056666666666666664,0.06681818181818182,0.049999999999999996,0.1
4,8,15,1,5,1.370000000000001,2,24,8,100,71,5,4.079999999999988,1.0900000000000007,0.9200000000000006,0.12999999999999998,4,5,4,3,65,17,18,4,6,0,18,7,Lc,0.06276923076923077,0.06411764705882353,0.05111111111111111,0.0325
4,8,16,1,7,1.320000000000001,2,25,94,90,93,91,3.1700000000000026,1.6400000000000012,0.15,0.4400000000000002,8,7,2,4,49,22,3,9,3,1,36,7,Lc,0.0646938775510204,0.07454545454545454,0.049999999999999996,0.048888888888888885
4,9,17,1,2,1.490000000000001,8,31,82,77,72,67,3.699999999999998,0.4200000000000002,0.4300000000000002,0.45000000000000023,11,3,4,3,64,9,7,9,3,0,14,7,Lc,0.0578125,0.04666666666666666,0.06142857142857144,0.049999999999999996
4,9,18,1,7,1.6800000000000013,2,41,93,95,88,86,2.960000000000002,1.7400000000000013,1.2400000000000009,1.7300000000000013,6,8,3,14,65,39,19,38,3,1,36,7,Lc,0.04553846153846154,0.04461538461538462,0.06526315789473684,0.045526315789473686
4,10,19,1,4,1.270000000000001,3,30,106,102,24,105,3.83999999999999,0.12999999999999998,1.1000000000000008,0.18000000000000002,5,3,7,2,82,5,16,3,2,0.5,18,7,Lc,0.04682926829268293,0.026000000000000002,0.06875,0.060000000000000005
4,10,20,1,7,1.1100000000000008,2,20,4,64,94,71,4.479999999999973,0.5300000000000002,0.15,0.09,6,2,2,2,86,11,3,2,3,0,17,7,Lc,0.052093023255813956,0.04818181818181818,0.05,0.045000000000000005
4,11,21,1,1,0.7900000000000005,3,14,35,30,32,63,3.7999999999999803,0.5700000000000003,0.8500000000000005,0.16,5,4,7,2,62,9,13,2,5,0.5,34,7,Lc,0.061290322580645165,0.06333333333333334,0.06538461538461539,0.07999999999999999
4,11,22,1,6,1.410000000000001,3,24,54,108,52,78,4.059999999999988,1.400000000000001,0.13999999999999999,0.07,10,5,2,1,64,26,3,1,4,0,13,7,Lc,0.06343750000000001,0.05384615384615385,0.04666666666666667,0.07
4,12,23,1,6,1.0200000000000007,2,10,108,55,51,101,4.639999999999968,0.2900000000000001,0.5900000000000003,0.22000000000000006,7,6,3,3,69,11,10,6,4,0,12,7,Lc,0.0672463768115942,0.026363636363636363,0.059,0.03666666666666667
4,12,24,1,8,0.7600000000000005,4,9,70,115,64,39,3.809999999999979,0.7500000000000004,0.6000000000000003,0.5000000000000002,9,2,3,3,63,11,6,9,2,0,15,7,Lc,0.06047619047619048,0.06818181818181818,0.1,0.05555555555555555
4,13,25,1,3,0.49000000000000027,3,10,16,78,38,18,11.609999999999808,0.05,0.01,0.01,20,1,1,1,203,1,1,1,5,0,20,7,Lc,0.05719211822660099,0.05,0.01,0.01
4,13,26,1,7,0.7400000000000004,4,18,2,28,88,97,11.339999999999819,0.01,0.01,0.01,20,1,1,1,188,1,1,1,3,0,16,7,Lc,0.060319148936170214,0.01,0.01,0.01
4,14,27,1,7,2.4099999999999926,3,51,85,70,68,89,3.6999999999999935,1.5400000000000011,0.5700000000000003,0.47000000000000025,5,2,3,2,69,35,13,11,3,0,14,7,Lc,0.0536231884057971,0.044,0.04384615384615385,0.042727272727272725
4,14,28,1,5,1.0300000000000007,4,16,6,34,3,4,4.199999999999977,1.0400000000000007,0.8000000000000005,1.9100000000000015,9,5,6,10,68,16,16,48,6,0.5,41,7,Lc,0.061764705882352944,0.065,0.05,0.03979166666666667
4,15,29,1,3,2.1199999999999988,2,32,41,51,90,111,5.669999999999967,0.8000000000000005,0.24000000000000007,0.17,5,2,2,3,88,16,5,5,5,0,14,7,Lc,0.06443181818181819,0.049999999999999996,0.048,0.034
4,15,30,1,2,1.0600000000000007,3,24,80,13,82,84,3.539999999999992,3.1999999999999758,0.01,0.38000000000000017,11,11,1,3,68,57,1,4,3,0.5,24,7,Lc,0.05205882352941177,0.056140350877192984,0.01,0.09500000000000001
4,16,31,1,3,1.7300000000000013,2,28,39,92,38,37,4.829999999999979,0.38000000000000017,0.3000000000000001,0.26000000000000006,7,3,4,2,82,4,6,3,5,0.5,33,7,Lc,0.05890243902439025,0.09500000000000001,0.05,0.08666666666666667
4,16,32,1,1,1.340000000000001,2,19,32,33,25,58,3.1000000000000023,1.380000000000001,0.18000000000000002,0.6800000000000004,6,2,1,3,55,24,1,7,5,0.5,34,7,Lc,0.05636363636363636,0.057499999999999996,0.18000000000000002,0.09714285714285714
4,17,33,1,8,0.9600000000000006,2,17,25,30,117,28,4.649999999999966,0.13999999999999999,0.7600000000000005,0.08,8,1,7,1,65,1,10,1,2,0.5,32,7,Lc,0.07153846153846154,0.13999999999999999,0.076,0.08
4,17,34,1,4,1.360000000000001,2,30,99,101,1,106,2.720000000000002,5.81999999999992,1.310000000000001,0.01,4,8,8,1,52,96,25,1,2,0.5,18,7,Lc,0.052307692307692305,0.060625,0.0524,0.01
4,18,35,1,6,1.2000000000000008,2,20,55,28,101,107,4.549999999999973,0.7800000000000005,0.9800000000000006,0.19000000000000003,10,6,6,2,75,11,13,5,4,0,13,7,Lc,0.060666666666666674,0.07090909090909091,0.07538461538461538,0.038
4,18,36,1,7,1.470000000000001,2,27,92,65,71,39,3.1200000000000023,1.7900000000000014,0.2900000000000001,0.23000000000000007,6,5,3,2,53,19,4,2,3,0,16,7,Lc,0.05886792452830189,0.0942105263157895,0.07250000000000001,0.11499999999999999
4,19,37,1,10,0.6900000000000004,2,17,24,23,18,13,2.7400000000000007,0.9200000000000006,0.2800000000000001,0.12999999999999998,4,4,2,2,49,16,5,2,6,1,72,7,Lc,0.05591836734693877,0.0575,0.055999999999999994,0.065
4,19,38,1,5,0.45000000000000023,2,8,8,5,45,38,2.849999999999993,0.6300000000000003,1.1000000000000008,0.26000000000000006,5,2,7,2,50,8,15,3,6,0,22,7,Lc,0.057,0.07875,0.07333333333333333,0.08666666666666667
4,20,39,1,3,1.0500000000000007,2,18,67,39,44,45,3.60999999999999,1.1700000000000008,0.24000000000000007,0.060000000000000005,7,9,2,1,51,19,2,2,5,0.5,34,7,Lc,0.0707843137254902,0.061578947368421046,0.12,0.03
4,20,40,1,2,1.1400000000000008,2,18,78,33,84,105,2.940000000000002,1.6100000000000012,0.48000000000000026,0.4000000000000002,7,5,3,2,44,31,7,9,3,0,13,7,Lc,0.06681818181818182,0.05193548387096775,0.06857142857142857,0.044444444444444446
4,21,41,1,8,1.290000000000001,3,22,118,77,114,25,3.310000000000002,2.1299999999999986,0.20000000000000004,0.8500000000000005,9,7,2,8,52,39,6,17,2,0,12,7,Lc,0.06365384615384616,0.05461538461538462,0.03333333333333333,0.05
4,21,42,1,7,1.340000000000001,2,29,87,86,38,108,3.3000000000000025,1.260000000000001,2.709999999999986,0.09,5,5,9,2,63,27,45,2,3,0,13,7,Lc,0.05238095238095238,0.04666666666666667,0.060222222222222226,0.045000000000000005
5,1,1,0,10,0.5000000000000002,2,4,22,106,74,102,3.749999999999975,0.22000000000000006,0.5700000000000003,0.09,7,2,3,1,31,2,5,1,6,0,13,7,Lc,0.12096774193548387,0.11,0.11400000000000002,0.09
5,1,2,0,5,0.6400000000000003,2,6,5,55,53,11,2.999999999999994,1.490000000000001,0.19000000000000003,0.7100000000000004,5,2,2,4,20,12,3,4,6,0,20,7,Lc,0.15000000000000002,0.12416666666666668,0.06333333333333332,0.17750000000000005
5,2,3,0,7,0.2900000000000001,3,4,93,102,39,44,1.2400000000000007,1.2400000000000009,0.9200000000000006,0.46000000000000024,6,3,2,2,8,8,10,3,3,0,15,7,Lc,0.15500000000000003,0.15500000000000005,0.09200000000000001,0.15333333333333335
5,2,4,0,5,0.49000000000000027,2,7,7,5,83,8,1.2900000000000007,8.719999999999859,0.01,0.01,5,13,1,1,14,50,1,1,6,0.5,39,7,Lc,0.09214285714285717,0.17440000000000005,0.01,0.01
5,3,5,0,9,0.20000000000000004,2,5,15,46,110,64,7.749999999999884,0.01,0.060000000000000005,0.01,9,1,2,1,48,1,2,1,4,0,17,7,Lc,0.16145833333333337,0.01,0.03,0.01
5,3,6,0,6,0.4000000000000002,2,6,52,9,95,60,1.9500000000000013,2.0400000000000005,0.8600000000000005,0.09,8,7,2,2,22,15,7,2,4,0,17,7,Lc,0.08863636363636365,0.13600000000000004,0.12285714285714287,0.045
5,4,7,0,4,0.26000000000000006,1,2,108,98,104,38,1.9200000000000013,1.1100000000000008,0.5700000000000003,0.09,5,2,4,1,16,10,6,1,2,0.5,17,7,Lc,0.12000000000000001,0.111,0.095,0.09
5,4,8,0,7,0.3900000000000002,2,4,96,5,111,91,2.879999999999991,0.3100000000000001,0.6500000000000004,0.3300000000000001,4,1,4,2,14,1,6,2,3,0,14,7,Lc,0.2057142857142858,0.3100000000000001,0.10833333333333335,0.165
5,5,9,0,3,0.7800000000000005,5,12,48,44,21,94,2.610000000000002,0.2800000000000001,1.480000000000001,0.4400000000000002,7,1,6,3,25,1,10,5,5,0,19,7,Lc,0.1044,0.2800000000000001,0.14800000000000002,0.088
5,5,10,0,5,0.5500000000000003,2,7,2,3,8,115,2.4600000000000017,1.0200000000000007,0.5900000000000003,0.9900000000000007,7,3,3,5,24,7,3,8,6,0.5,38,7,Lc,0.10250000000000002,0.14571428571428574,0.19666666666666674,0.12375000000000001
5,6,11,0,6,0.5900000000000003,2,6,58,23,13,59,1.9800000000000013,2.159999999999998,0.2800000000000001,0.10999999999999999,4,4,2,2,16,11,3,2,4,0,20,7,Lc,0.12375000000000003,0.1963636363636364,0.09333333333333332,0.055
5,6,12,0,9,0.3100000000000001,2,4,71,10,67,72,2.0600000000000014,2.53999999999999,0.08,0.05,5,7,2,2,16,11,2,2,4,0.5,30,7,Lc,0.12875,0.23090909090909098,0.04,0.025
5,7,13,1,2,0.35000000000000014,2,7,75,58,54,3,1.4400000000000008,0.6900000000000004,0.5400000000000003,0.5700000000000003,4,4,3,2,15,6,3,3,3,0,17,7,Lc,0.09600000000000002,0.11500000000000003,0.18000000000000005,0.19000000000000006
5,7,14,1,8,0.35000000000000014,2,9,118,119,21,39,2.42,1.1200000000000008,0.4000000000000002,0.11999999999999998,4,5,2,1,20,7,2,1,2,0,15,7,Lc,0.12100000000000004,0.16000000000000003,0.20000000000000004,0.11999999999999998
5,8,15,1,4,0.4100000000000002,3,8,100,102,45,82,2.270000000000002,0.3200000000000001,0.6000000000000003,0.37000000000000016,5,2,2,3,23,5,4,5,2,0,12,7,Lc,0.09869565217391305,0.064,0.15000000000000002,0.074
5,8,16,1,1,0.4100000000000002,2,5,36,60,110,117,1.4300000000000008,1.5800000000000012,0.7000000000000004,0.22000000000000006,4,3,3,2,13,8,6,2,5,0,13,7,Lc,0.11000000000000003,0.19750000000000004,0.11666666666666667,0.11000000000000003
5,9,17,1,9,0.3100000000000001,2,4,72,38,6,61,0.7900000000000004,1.7600000000000013,0.9900000000000007,0.2800000000000001,4,4,2,2,7,14,6,2,4,0,19,7,Lc,0.11285714285714286,0.12571428571428575,0.16500000000000004,0.14
5,9,18,1,8,0.5400000000000003,2,8,113,112,55,60,2.3500000000000014,0.25000000000000006,0.9000000000000006,0.12999999999999998,7,1,2,1,18,1,8,1,2,0,12,7,Lc,0.1305555555555556,0.25000000000000006,0.1125,0.12999999999999998
5,10,19,1,3,0.37000000000000016,2,5,42,1,114,111,2.819999999999992,0.5300000000000002,0.4100000000000002,0.15,8,2,3,1,21,3,4,1,5,0,15,7,Lc,0.1342857142857143,0.17666666666666672,0.10250000000000001,0.15
5,10,20,1,1,0.34000000000000014,2,4,31,77,65,81,1.4500000000000008,2.0899999999999994,0.3300000000000001,0.8200000000000005,6,3,1,4,10,15,1,7,5,0,15,7,Lc,0.14500000000000005,0.13933333333333336,0.3300000000000001,0.11714285714285717
5,11,21,1,7,0.7300000000000004,3,10,94,88,92,4,1.9400000000000013,1.1600000000000008,0.6000000000000003,1.1200000000000008,5,2,3,2,20,11,3,10,3,0.5,24,7,Lc,0.09700000000000002,0.10545454545454547,0.20000000000000007,0.112
5,11,22,1,3,0.48000000000000026,3,5,101,79,64,62,3.6599999999999766,0.8200000000000005,0.5000000000000002,0.24000000000000007,8,4,2,2,15,5,2,2,5,0,13,7,Lc,0.2440000000000001,0.16400000000000003,0.2500000000000001,0.12000000000000002
5,12,23,1,8,0.21000000000000005,2,3,63,112,89,72,1.4400000000000008,1.5700000000000012,0.22000000000000006,0.4000000000000002,4,4,1,3,12,14,1,5,2,0,13,7,Lc,0.12000000000000001,0.11214285714285716,0.22000000000000006,0.08
5,12,24,1,10,0.4000000000000002,2,8,23,19,74,41,2.1600000000000015,0.23000000000000007,1.470000000000001,0.37000000000000016,4,1,3,1,22,1,8,1,6,0,20,7,Lc,0.09818181818181819,0.23000000000000007,0.18375000000000005,0.37000000000000016
5,13,25,1,10,0.4100000000000002,2,7,19,22,18,113,2.5899999999999976,0.17,0.5900000000000003,2.8799999999999826,4,1,5,8,25,1,5,22,6,0.5,38,7,Lc,0.10360000000000001,0.17,0.118,0.13090909090909092
5,13,26,1,3,0.5200000000000002,3,7,48,64,70,82,1.3600000000000008,0.6400000000000003,0.8200000000000005,1.8300000000000014,6,3,2,5,13,5,5,11,5,0,16,7,Lc,0.10461538461538464,0.12800000000000003,0.16400000000000003,0.1663636363636364
5,14,27,1,4,0.47000000000000025,2,7,97,104,101,94,2.3200000000000016,0.34000000000000014,0.9500000000000006,0.17,4,3,2,1,19,5,9,1,2,0.5,15,7,Lc,0.12210526315789474,0.068,0.10555555555555556,0.17
5,14,28,1,6,0.45000000000000023,3,6,48,84,60,78,3.6199999999999766,0.9000000000000006,0.5400000000000003,0.24000000000000007,9,4,3,1,24,7,3,2,4,0,15,7,Lc,0.15083333333333337,0.1285714285714286,0.18000000000000008,0.12000000000000002
5,15,29,1,7,0.24000000000000007,3,5,93,42,96,38,0.7300000000000003,0.7000000000000004,1.0900000000000007,0.7400000000000004,5,2,2,3,7,2,9,8,3,0,16,7,Lc,0.10428571428571431,0.3500000000000002,0.12111111111111111,0.0925
5,15,30,1,5,0.4300000000000002,2,7,3,2,1,80,1.2200000000000006,1.290000000000001,14.579999999999734,0.17,4,3,17,1,12,17,94,1,6,0.5,39,7,Lc,0.10166666666666668,0.07588235294117648,0.15510638297872345,0.17
5,16,31,1,7,0.36000000000000015,2,8,87,13,17,49,3.5299999999999767,0.6400000000000003,0.8500000000000005,0.05,6,4,3,1,18,5,8,1,3,0,19,7,Lc,0.1961111111111112,0.12800000000000003,0.10625,0.05
5,16,32,1,3,0.15,2,2,4,9,10,41,13.829999999999753,0.02,0.01,0.01,18,1,1,1,83,1,1,1,5,0.5,41,7,Lc,0.16662650602409643,0.02,0.01,0.01
5,17,33,1,7,0.19000000000000003,2,3,88,95,86,5,2.1600000000000015,0.2900000000000001,1.470000000000001,1.8900000000000015,9,3,8,5,16,4,10,7,3,0.5,24,7,Lc,0.135,0.0725,0.14700000000000005,0.2700000000000001
5,17,34,1,8,0.3100000000000001,2,6,111,114,70,20,1.670000000000001,0.47000000000000025,1.1600000000000008,0.2700000000000001,4,2,4,1,17,3,9,1,2,0,14,7,Lc,0.09823529411764706,0.15666666666666668,0.12888888888888891,0.2700000000000001
5,18,35,1,4,0.38000000000000017,2,3,98,103,67,63,1.1500000000000006,0.5900000000000003,0.7400000000000004,0.6900000000000004,4,2,3,2,5,6,5,4,2,0,12,7,Lc,0.23000000000000007,0.09833333333333334,0.14800000000000005,0.17250000000000004
5,18,36,1,2,0.2900000000000001,2,3,77,60,81,50,0.7900000000000003,0.8200000000000005,0.9600000000000006,0.8200000000000005,3,3,3,4,4,5,4,4,3,0,14,7,Lc,0.19750000000000006,0.16400000000000006,0.24000000000000007,0.20500000000000007
5,19,37,1,7,0.11999999999999998,2,2,16,88,102,19,17.679999999999946,0.10999999999999999,0.01,0.01,20,3,1,1,112,3,1,1,3,0,17,7,Lc,0.1578571428571429,0.03666666666666667,0.01,0.01
5,19,38,1,3,0.2900000000000001,4,7,45,46,116,53,1.4800000000000009,0.3000000000000001,0.7200000000000004,0.6700000000000004,6,1,2,2,15,1,5,4,5,0,16,7,Lc,0.09866666666666668,0.3000000000000001,0.14400000000000002,0.16750000000000004
5,20,39,1,2,0.4200000000000002,2,4,79,80,102,57,1.2200000000000006,0.7700000000000005,0.9700000000000006,1.2100000000000009,4,2,2,4,10,7,3,8,3,0,12,7,Lc,0.12200000000000001,0.11000000000000001,0.3233333333333335,0.15125000000000002
5,20,40,1,8,0.5700000000000003,2,4,69,68,114,112,3.1299999999999897,0.6100000000000003,0.060000000000000005,0.21000000000000005,6,4,1,2,17,5,1,4,2,0,12,7,Lc,0.18411764705882358,0.12200000000000003,0.060000000000000005,0.0525
5,21,41,1,6,0.3200000000000001,2,3,112,54,116,83,2.2100000000000017,0.24000000000000007,0.7300000000000004,0.5400000000000003,5,1,3,4,12,1,5,6,4,0,11,7,Lc,0.18416666666666673,0.24000000000000007,0.14600000000000005,0.09
5,21,42,1,7,0.4200000000000002,2,3,108,36,89,106,4.289999999999962,0.07,0.21000000000000005,0.4000000000000002,11,1,3,4,25,1,4,5,3,0,12,7,Lc,0.17160000000000003,0.07,0.0525,0.08
6,1,1,0,10,0.7300000000000004,2,5,44,21,84,114,4.939999999999955,0.09999999999999999,1.260000000000001,0.6400000000000003,8,2,2,3,27,2,11,6,6,0,16,7,Lc,0.18296296296296302,0.05,0.11454545454545455,0.10666666666666669
6,1,2,0,1,0.9000000000000006,2,8,30,103,54,31,2.0500000000000016,1.400000000000001,0.4000000000000002,0.37000000000000016,4,4,1,2,16,8,1,2,5,0,16,7,Lc,0.12812500000000002,0.17500000000000004,0.4000000000000002,0.18500000000000003
6,2,3,0,7,1.0800000000000007,2,12,120,41,66,47,4.57999999999997,0.19000000000000003,0.9100000000000006,2.579999999999989,8,1,1,6,36,3,2,14,3,0,16,7,Lc,0.12722222222222224,0.06333333333333332,0.4550000000000002,0.18428571428571436
6,2,4,0,6,0.5000000000000002,2,4,56,59,77,26,2.530000000000001,0.3300000000000001,0.3300000000000001,0.8300000000000005,5,1,1,2,14,1,2,9,4,0,16,7,Lc,0.18071428571428574,0.3300000000000001,0.165,0.09222222222222222
6,3,5,0,4,0.7000000000000004,2,8,106,107,101,48,2.1200000000000014,0.3200000000000001,0.8100000000000005,0.5600000000000003,4,1,2,2,18,1,7,4,2,0.5,17,7,Lc,0.1177777777777778,0.3200000000000001,0.11571428571428571,0.14
6,3,6,0,7,0.37000000000000016,3,5,91,96,119,110,1.8400000000000012,0.2800000000000001,0.6000000000000003,0.26000000000000006,5,1,3,1,16,1,5,1,3,0,10,7,Lc,0.11500000000000002,0.2800000000000001,0.12000000000000001,0.26000000000000006
6,4,7,0,10,0.48000000000000026,2,4,21,20,16,26,2.3000000000000016,0.6800000000000004,0.3000000000000001,1.6900000000000013,5,2,1,4,12,4,1,10,6,0.5,41,7,Lc,0.19166666666666674,0.17000000000000004,0.3000000000000001,0.16900000000000004
6,4,8,0,7,0.49000000000000027,2,3,57,97,91,93,2.0500000000000016,2.0400000000000005,0.13999999999999999,0.12999999999999998,4,4,2,2,8,12,2,2,3,0,12,7,Lc,0.2562500000000001,0.17000000000000004,0.06999999999999999,0.065
6,5,9,0,8,0.5600000000000003,2,6,42,37,2,115,3.5399999999999805,0.8800000000000006,0.47000000000000025,0.21000000000000005,9,3,2,2,27,7,4,3,2,0,18,7,Lc,0.13111111111111115,0.12571428571428572,0.11750000000000002,0.07
6,5,10,0,9,0.6900000000000004,2,8,68,65,88,22,2.3800000000000017,0.2700000000000001,1.0600000000000007,0.7100000000000004,4,1,3,2,18,1,4,4,4,0,17,7,Lc,0.13222222222222224,0.2700000000000001,0.2650000000000001,0.17750000000000005
6,6,11,0,10,0.35000000000000014,2,4,17,20,19,104,2.0200000000000014,1.9100000000000015,2.0000000000000013,0.5500000000000003,5,7,5,5,10,17,8,5,6,0.5,38,7,Lc,0.20200000000000007,0.11235294117647061,0.2500000000000001,0.11
6,6,12,0,7,0.9800000000000006,3,7,63,87,40,120,2.3900000000000015,0.7300000000000004,0.8500000000000005,0.9100000000000006,5,2,5,2,10,5,6,7,3,0,14,7,Lc,0.2390000000000001,0.14600000000000005,0.1416666666666667,0.13000000000000003
6,7,13,1,6,0.37000000000000016,2,4,53,49,73,51,0.9000000000000004,2.439999999999992,1.460000000000001,0.3000000000000001,4,7,4,2,6,12,10,2,4,0.5,27,7,Lc,0.15000000000000005,0.20333333333333342,0.14600000000000005,0.15000000000000002
6,7,14,1,5,0.6200000000000003,2,5,12,7,2,95,2.8799999999999963,5.769999999999921,0.5200000000000002,0.05,7,11,4,1,25,36,7,1,6,0.5,39,7,Lc,0.11520000000000002,0.16027777777777782,0.07428571428571429,0.05
6,8,15,1,4,0.19000000000000003,2,2,2,70,102,41,21.700000000000564,0.01,0.2700000000000001,0.09999999999999999,20,1,2,2,128,1,3,2,2,0,17,7,Lc,0.16953125000000005,0.01,0.09000000000000002,0.049999999999999996
6,8,16,1,6,0.6900000000000004,3,5,53,57,85,18,1.8800000000000012,1.440000000000001,0.24000000000000007,1.1600000000000008,5,3,1,2,11,11,1,11,4,0,17,7,Lc,0.17090909090909093,0.13090909090909092,0.24000000000000007,0.10545454545454548
6,9,17,1,6,0.9900000000000007,2,10,24,55,59,14,2.820000000000002,0.7800000000000005,0.5500000000000003,0.09,4,5,3,1,25,9,8,1,4,0,20,7,Lc,0.11280000000000003,0.08666666666666667,0.06875,0.09
6,9,18,1,9,0.5600000000000003,2,4,63,46,37,8,1.600000000000001,1.270000000000001,0.5100000000000002,0.25000000000000006,4,2,2,2,6,9,3,2,4,0,20,7,Lc,0.2666666666666668,0.14111111111111113,0.17,0.12500000000000003
6,10,19,1,1,0.46000000000000024,2,7,34,30,26,21,1.8400000000000012,0.2800000000000001,0.7200000000000004,3.8699999999999615,6,1,3,9,16,1,3,13,5,0.5,36,7,Lc,0.11500000000000002,0.2800000000000001,0.2400000000000001,0.2976923076923078
6,10,20,1,7,0.4400000000000002,3,5,8,88,42,51,2.5499999999999994,0.8000000000000005,0.35000000000000014,0.2900000000000001,5,2,2,1,20,4,2,1,3,0,18,7,Lc,0.12750000000000003,0.20000000000000004,0.17500000000000002,0.2900000000000001
6,11,21,1,9,0.25000000000000006,2,3,69,86,118,9,1.1900000000000006,2.010000000000001,1.6900000000000013,0.16,4,4,3,2,11,12,13,2,4,0,15,7,Lc,0.1081818181818182,0.16750000000000004,0.13000000000000003,0.08
6,11,22,1,2,0.5900000000000003,4,6,80,59,47,55,1.2800000000000007,1.9600000000000015,0.8300000000000005,0.13999999999999999,6,2,2,1,8,8,8,1,3,0,16,7,Lc,0.16000000000000003,0.24500000000000008,0.10375000000000001,0.13999999999999999
6,12,23,1,8,0.5600000000000003,2,11,119,34,91,1,1.8300000000000012,1.490000000000001,1.0400000000000007,0.3200000000000001,4,3,3,1,17,9,5,1,2,0,16,7,Lc,0.10764705882352944,0.1655555555555556,0.20800000000000007,0.3200000000000001
6,12,24,1,2,0.37000000000000016,2,6,77,56,58,75,2.0600000000000014,0.49000000000000027,0.7700000000000005,0.5900000000000003,5,2,2,2,13,3,5,4,3,0,14,7,Lc,0.15846153846153851,0.16333333333333339,0.15400000000000003,0.14750000000000002
6,13,25,1,2,0.09,2,2,1,84,53,54,23.720000000000894,0.01,0.02,0.01,20,1,1,1,124,1,1,1,3,0,17,7,Lc,0.19129032258064524,0.01,0.02,0.01
6,13,26,1,4,0.9500000000000006,2,7,103,89,94,23,3.50999999999999,0.7700000000000005,0.25000000000000006,0.5300000000000002,8,2,1,2,16,7,1,2,2,0,14,7,Lc,0.21937500000000007,0.11000000000000001,0.25000000000000006,0.26500000000000007
6,14,27,1,8,0.12999999999999998,2,3,3,7,80,35,14.289999999999743,0.02,0.09999999999999999,0.01,18,1,2,1,65,1,2,1,2,0,20,7,Lc,0.2198461538461539,0.02,0.049999999999999996,0.01
6,14,28,1,10,0.15,2,3,14,97,17,87,1.0100000000000005,0.7400000000000004,0.36000000000000015,1.5600000000000012,3,2,2,4,4,2,2,7,6,0,17,7,Lc,0.2525000000000001,0.37000000000000016,0.18000000000000005,0.22285714285714295
6,15,29,1,3,0.38000000000000017,2,8,44,78,47,74,1.600000000000001,0.9300000000000006,0.17,0.21000000000000005,4,3,1,1,13,7,1,1,5,0,16,7,Lc,0.12307692307692311,0.1328571428571429,0.17,0.21000000000000005
6,15,30,1,9,0.36000000000000015,2,4,61,30,117,67,0.9900000000000004,2.5099999999999905,0.9000000000000006,0.05,3,5,3,1,6,17,3,1,4,0,15,7,Lc,0.16500000000000004,0.14764705882352944,0.3000000000000001,0.05
6,16,31,1,7,1.1200000000000008,5,7,87,108,21,102,2.4400000000000017,0.6200000000000003,0.2700000000000001,0.2800000000000001,7,2,2,2,13,3,2,4,3,0,13,7,Lc,0.18769230769230774,0.20666666666666672,0.135,0.06999999999999999
6,16,32,1,8,0.47000000000000025,2,5,117,111,1,60,1.4500000000000008,2.259999999999996,0.20000000000000004,0.3000000000000001,4,4,1,2,7,11,1,3,2,0,14,7,Lc,0.2071428571428572,0.2054545454545455,0.20000000000000004,0.09999999999999999
6,17,33,1,1,0.6400000000000003,2,7,59,87,56,30,2.9099999999999957,0.9900000000000007,0.6200000000000003,0.3000000000000001,5,2,3,3,16,4,4,5,5,0,16,7,Lc,0.18187500000000006,0.24750000000000005,0.15500000000000003,0.06
6,17,34,1,9,0.3300000000000001,2,3,72,107,83,73,6.269999999999918,0.04,0.26000000000000006,0.5600000000000003,11,1,3,3,37,1,3,7,4,0,12,7,Lc,0.1694594594594595,0.04,0.08666666666666667,0.08
6,18,35,1,2,0.2800000000000001,2,3,51,120,76,13,2.9799999999999867,0.22000000000000006,0.48000000000000026,0.18000000000000002,7,1,2,2,17,2,6,3,3,0,15,7,Lc,0.17529411764705888,0.11000000000000003,0.08,0.05999999999999999
6,18,36,1,5,1.270000000000001,8,14,2,97,104,1,2.110000000000001,2.709999999999986,5.129999999999935,0.34000000000000014,10,4,8,2,18,17,20,2,6,0,16,7,Lc,0.11722222222222224,0.1594117647058824,0.2565000000000001,0.17000000000000007
6,19,37,1,7,0.8700000000000006,2,11,89,45,92,23,2.620000000000002,3.9099999999999606,0.8000000000000005,0.3900000000000002,5,8,2,5,23,24,5,6,3,0,17,7,Lc,0.11391304347826088,0.1629166666666667,0.16000000000000003,0.065
6,19,38,1,8,0.6200000000000003,2,3,75,32,35,74,1.9900000000000013,1.270000000000001,0.34000000000000014,0.16,4,5,2,1,8,11,2,1,2,0,16,7,Lc,0.2487500000000001,0.11545454545454546,0.17000000000000004,0.16
6,20,39,1,9,0.3100000000000001,2,3,64,120,71,85,2.3100000000000014,2.3199999999999945,0.5900000000000003,0.9100000000000006,8,9,3,4,17,13,3,4,4,0,13,7,Lc,0.1358823529411765,0.1784615384615385,0.19666666666666674,0.22750000000000012
6,20,40,1,2,0.4400000000000002,2,7,27,81,103,97,2.699999999999996,0.17,0.10999999999999999,0.5800000000000003,5,1,1,2,13,1,1,4,3,0,12,7,Lc,0.20769230769230776,0.17,0.10999999999999999,0.14500000000000002
6,21,41,1,1,0.5300000000000002,2,3,34,114,120,113,1.540000000000001,1.5900000000000012,0.6400000000000003,0.2700000000000001,5,3,2,2,9,14,4,2,5,0.5,17,7,Lc,0.17111111111111116,0.1135714285714286,0.16000000000000003,0.135
6,21,42,1,4,0.8000000000000005,2,7,98,99,77,47,2.0400000000000014,0.8300000000000005,1.460000000000001,0.25000000000000006,4,2,3,1,16,5,5,2,2,0,12,7,Lc,0.1275,0.16600000000000006,0.2920000000000001,0.12500000000000003
7,1,1,0,4,0.5100000000000002,2,6,104,25,4,105,1.8100000000000012,1.340000000000001,1.310000000000001,1.2400000000000009,4,3,4,5,8,5,14,7,2,0,15,7,Lc,0.2262500000000001,0.2680000000000001,0.09357142857142858,0.17714285714285719
7,1,2,0,6,0.5800000000000003,2,6,55,23,42,52,2.6000000000000014,1.6400000000000012,0.5600000000000003,0.13999999999999999,5,3,2,2,16,9,3,2,4,0,19,7,Lc,0.16250000000000003,0.18222222222222226,0.1866666666666667,0.06999999999999999
7,2,3,0,9,0.38000000000000017,2,3,68,21,30,61,2.92999999999999,0.45000000000000023,1.280000000000001,0.10999999999999999,5,2,4,1,20,3,9,1,4,0,19,7,Lc,0.14650000000000002,0.15000000000000005,0.14222222222222225,0.10999999999999999
7,2,4,0,4,0.7200000000000004,2,6,45,6,102,52,3.869999999999977,0.8200000000000005,2.849999999999983,0.05,8,4,7,1,18,5,7,1,2,0,17,7,Lc,0.21500000000000008,0.16400000000000003,0.40714285714285736,0.05
7,3,5,0,7,0.36000000000000015,2,3,8,49,104,95,3.1599999999999846,0.36000000000000015,0.8300000000000005,0.10999999999999999,8,1,3,1,14,1,4,1,3,0,15,7,Lc,0.22571428571428578,0.36000000000000015,0.20750000000000007,0.10999999999999999
7,3,6,0,10,0.4000000000000002,2,3,22,115,109,29,3.9199999999999693,0.47000000000000025,0.6600000000000004,0.20000000000000004,7,1,4,1,20,1,7,1,6,0,15,7,Lc,0.19600000000000006,0.47000000000000025,0.0942857142857143,0.20000000000000004
7,4,7,0,9,0.5300000000000002,5,7,71,68,107,18,1.4300000000000008,0.6200000000000003,0.6400000000000003,0.8800000000000006,7,2,3,4,12,5,3,6,4,0,16,7,Lc,0.11916666666666668,0.124,0.2133333333333334,0.14666666666666672
7,4,8,0,3,0.4400000000000002,2,5,7,48,11,91,13.039999999999775,0.01,0.01,0.04,16,1,1,1,57,1,1,1,5,0,20,7,Lc,0.2287719298245615,0.01,0.01,0.04
7,5,9,0,7,0.37000000000000016,2,3,91,44,56,89,1.9500000000000013,0.5400000000000003,1.8700000000000014,1.0400000000000007,4,2,7,3,13,2,8,3,3,0,15,7,Lc,0.15000000000000002,0.2700000000000001,0.23375000000000007,0.34666666666666685
7,5,10,0,2,0.2900000000000001,2,3,82,114,2,116,12.589999999999783,0.01,0.01,0.01,15,1,1,1,44,1,1,1,3,0,13,7,Lc,0.28613636363636374,0.01,0.01,0.01
7,6,11,0,9,0.3100000000000001,2,5,64,11,12,65,1.4600000000000009,0.9700000000000006,0.6900000000000004,0.2700000000000001,4,2,3,2,11,3,4,2,4,0,20,7,Lc,0.13272727272727275,0.32333333333333353,0.17250000000000007,0.13500000000000004
7,6,12,0,2,0.6400000000000003,2,5,77,84,112,25,3.2499999999999885,0.35000000000000014,0.25000000000000006,2.5499999999999896,5,2,1,5,27,3,1,11,3,0,13,7,Lc,0.12037037037037039,0.11666666666666667,0.25000000000000006,0.23181818181818192
7,7,13,1,7,0.6100000000000003,2,3,6,95,88,89,2.640000000000001,1.8000000000000014,0.23000000000000007,0.9200000000000006,6,7,1,3,10,8,1,3,3,0.5,24,7,Lc,0.2640000000000001,0.22500000000000006,0.23000000000000007,0.30666666666666675
7,7,14,1,4,0.5600000000000003,2,5,98,71,65,83,1.1200000000000006,1.460000000000001,0.7200000000000004,0.3000000000000001,3,3,2,1,6,6,3,1,2,0,13,7,Lc,0.1866666666666667,0.24333333333333346,0.2400000000000001,0.3000000000000001
7,8,15,1,7,0.46000000000000024,2,4,94,85,31,35,3.0399999999999894,0.4100000000000002,0.5600000000000003,0.5500000000000003,7,1,1,2,16,1,1,2,3,0,16,7,Lc,0.19000000000000006,0.4100000000000002,0.5600000000000003,0.27500000000000013
7,8,16,1,9,0.5300000000000002,3,5,73,6,1,102,2.8499999999999948,0.8000000000000005,1.1200000000000008,0.38000000000000017,8,2,4,2,18,3,6,3,4,0,17,7,Lc,0.15833333333333335,0.26666666666666683,0.18666666666666673,0.1266666666666667
7,9,17,1,10,0.38000000000000017,2,3,13,14,69,104,2.3200000000000016,2.3199999999999945,0.6700000000000004,0.17,6,5,2,1,7,13,3,1,6,0,18,7,Lc,0.33142857142857157,0.17846153846153853,0.22333333333333338,0.17
7,9,18,1,6,0.15,2,3,59,55,94,117,0.8600000000000004,0.2800000000000001,2.6499999999999875,1.1900000000000008,4,1,6,4,8,1,13,8,4,0,13,7,Lc,0.10750000000000001,0.2800000000000001,0.2038461538461539,0.14875000000000002
7,10,19,1,6,0.37000000000000016,2,5,59,49,50,24,1.3000000000000007,4.019999999999959,0.36000000000000015,0.05,5,8,3,1,9,13,3,1,4,0.5,30,7,Lc,0.14444444444444446,0.30923076923076936,0.12,0.05
7,10,20,1,5,0.22000000000000006,2,4,8,4,25,90,1.8600000000000012,0.3100000000000001,1.1200000000000008,0.9900000000000007,4,2,2,4,17,3,5,6,6,0,20,7,Lc,0.10941176470588236,0.10333333333333335,0.22400000000000006,0.16500000000000004
7,11,21,1,7,0.4400000000000002,3,4,19,85,90,49,1.640000000000001,0.7600000000000005,3.7699999999999636,0.11999999999999998,5,2,9,1,6,4,12,1,3,0,16,7,Lc,0.27333333333333343,0.19000000000000006,0.3141666666666668,0.11999999999999998
7,11,22,1,8,0.3000000000000001,2,6,112,31,116,29,0.8400000000000003,1.7100000000000013,0.4400000000000002,2.53999999999999,3,6,3,8,7,8,3,11,2,0,14,7,Lc,0.12000000000000004,0.21375000000000005,0.1466666666666667,0.23090909090909098
7,12,23,1,3,0.4000000000000002,2,4,18,37,55,44,3.469999999999979,0.37000000000000016,2.159999999999998,1.460000000000001,12,2,6,4,20,3,9,4,5,0,20,7,Lc,0.17350000000000004,0.12333333333333334,0.2400000000000001,0.3650000000000002
7,12,24,1,7,0.5900000000000003,2,5,108,101,32,90,3.3399999999999856,0.3100000000000001,0.26000000000000006,0.20000000000000004,10,1,2,1,20,1,2,1,3,0,12,7,Lc,0.16700000000000007,0.3100000000000001,0.13000000000000003,0.20000000000000004
7,13,25,1,5,0.45000000000000023,3,6,10,94,11,4,1.2100000000000006,2.109999999999999,0.3100000000000001,1.9500000000000015,5,5,2,4,11,7,2,6,6,0.5,39,7,Lc,0.11000000000000001,0.30142857142857155,0.155,0.3250000000000002
7,13,26,1,8,0.2700000000000001,2,3,51,113,22,28,1.610000000000001,0.9400000000000006,0.38000000000000017,1.0200000000000007,5,3,1,2,6,4,1,3,2,0,17,7,Lc,0.2683333333333335,0.23500000000000007,0.38000000000000017,0.34000000000000014
7,14,27,1,4,0.47000000000000025,2,5,45,40,91,21,2.350000000000002,1.5300000000000011,0.26000000000000006,0.7200000000000004,5,4,2,2,11,7,2,3,2,0,19,7,Lc,0.2136363636363637,0.21857142857142864,0.13000000000000003,0.24000000000000007
7,14,28,1,2,0.25000000000000006,2,3,74,3,7,12,3.4599999999999755,0.8300000000000005,0.25000000000000006,0.4100000000000002,9,3,1,1,20,6,1,2,3,0.5,39,7,Lc,0.17300000000000004,0.13833333333333336,0.25000000000000006,0.20500000000000004
7,15,29,1,7,0.5700000000000003,3,6,62,70,32,26,2.7999999999999967,1.0100000000000007,0.26000000000000006,0.7500000000000004,7,3,1,2,14,4,1,4,3,0,18,7,Lc,0.20000000000000007,0.2525000000000001,0.26000000000000006,0.18750000000000003
7,15,30,1,6,0.4200000000000002,2,4,60,42,38,58,3.2399999999999842,1.420000000000001,0.9300000000000006,0.6000000000000003,7,3,2,1,19,9,2,1,4,0,18,7,Lc,0.17052631578947372,0.15777777777777782,0.46500000000000025,0.6000000000000003
7,16,31,1,10,0.23000000000000007,2,5,22,18,77,81,3.789999999999968,2.5899999999999888,0.6300000000000003,0.4300000000000002,11,6,3,2,19,11,3,2,6,0,18,7,Lc,0.1994736842105264,0.23545454545454556,0.21000000000000005,0.21500000000000008
7,16,32,1,6,0.6100000000000003,2,7,57,52,49,53,1.8800000000000012,0.5100000000000002,0.7600000000000005,0.2800000000000001,5,3,3,2,11,5,6,2,4,1,48,7,Lc,0.17090909090909095,0.10200000000000001,0.1266666666666667,0.14
7,17,33,1,2,0.6800000000000004,2,5,82,84,14,63,1.2100000000000006,3.979999999999959,4.9199999999999395,0.03,4,8,9,1,8,19,17,1,3,0,16,7,Lc,0.15125000000000002,0.2094736842105264,0.2894117647058825,0.03
7,17,34,1,1,0.3900000000000002,2,4,27,56,30,25,1.610000000000001,2.0400000000000005,0.18000000000000002,1.310000000000001,6,5,1,4,13,7,1,5,5,0.5,34,7,Lc,0.12384615384615387,0.29142857142857154,0.18000000000000002,0.26200000000000007
7,18,35,1,5,0.6100000000000003,3,8,4,3,12,5,1.570000000000001,10.50999999999982,0.060000000000000005,0.01,5,13,2,1,12,51,2,1,6,1,72,7,Lc,0.13083333333333336,0.20607843137254908,0.03,0.01
7,18,36,1,9,0.36000000000000015,4,5,64,61,65,13,2.5599999999999974,0.47000000000000025,0.5400000000000003,0.3000000000000001,6,2,2,2,22,3,2,2,4,0.5,30,7,Lc,0.11636363636363639,0.15666666666666668,0.2700000000000001,0.15
7,19,37,1,5,0.4400000000000002,2,3,7,12,94,88,3.6799999999999753,0.5600000000000003,0.3200000000000001,0.22000000000000006,8,3,3,2,22,4,5,3,6,0,18,7,Lc,0.1672727272727273,0.14,0.064,0.07333333333333332
7,19,38,1,8,0.46000000000000024,2,3,115,117,119,13,3.239999999999985,3.569999999999968,0.03,14.139999999999743,6,6,1,17,13,16,1,67,2,0.5,18,7,Lc,0.24923076923076934,0.22312500000000007,0.03,0.21104477611940306
7,20,39,1,5,0.35000000000000014,2,4,7,81,3,1,1.660000000000001,1.5600000000000012,0.3300000000000001,2.6599999999999873,5,3,2,6,12,4,2,12,6,0.5,39,7,Lc,0.13833333333333336,0.3900000000000002,0.16500000000000004,0.22166666666666673
7,20,40,1,6,0.2900000000000001,3,5,55,53,50,36,0.7600000000000003,0.3100000000000001,1.9300000000000015,0.34000000000000014,5,1,6,1,8,2,6,1,4,0.5,29,7,Lc,0.095,0.15500000000000003,0.32166666666666677,0.34000000000000014
7,21,41,1,6,0.2700000000000001,2,4,54,76,8,50,1.2700000000000007,2.3199999999999945,1.5600000000000012,0.09999999999999999,5,8,4,2,8,14,7,2,4,0,17,7,Lc,0.15875000000000003,0.16571428571428576,0.22285714285714292,0.05
7,21,42,1,4,0.34000000000000014,2,4,97,98,106,107,1.1300000000000006,2.3699999999999934,1.260000000000001,0.09,4,8,8,1,8,10,11,1,2,1,24,7,Lc,0.14125000000000004,0.23700000000000007,0.11454545454545456,0.09
8,1,1,0,1,0.46000000000000024,2,3,30,36,8,7,2.0600000000000014,0.26000000000000006,0.5600000000000003,0.2700000000000001,4,2,2,2,23,5,5,3,5,0,22,7,Lc,0.08956521739130435,0.052000000000000005,0.112,0.09
8,1,2,0,3,1.1900000000000008,2,14,44,19,38,24,1.620000000000001,1.0500000000000007,0.8300000000000005,0.13999999999999999,4,3,4,2,16,5,7,2,5,0,22,7,Lc,0.10125,0.21000000000000008,0.11857142857142859,0.06999999999999999
8,2,3,0,6,1.1200000000000008,2,11,44,52,3,56,3.2699999999999987,0.2900000000000001,0.08,0.09,7,4,2,2,30,6,3,3,4,0,19,7,Lc,0.10900000000000001,0.04833333333333333,0.02666666666666667,0.03
8,2,4,0,9,0.9000000000000006,2,12,61,69,64,21,1.620000000000001,0.4000000000000002,0.36000000000000015,0.46000000000000024,4,2,2,3,17,3,3,5,4,0.5,30,7,Lc,0.09529411764705883,0.13333333333333333,0.12,0.09200000000000001
8,3,5,0,9,0.5700000000000003,2,5,67,104,70,68,1.3300000000000007,0.8000000000000005,0.4000000000000002,0.12999999999999998,4,4,2,2,15,5,4,2,4,0.5,26,7,Lc,0.08866666666666669,0.16000000000000003,0.09999999999999999,0.06499999999999999
8,3,6,0,8,0.5000000000000002,2,5,120,118,39,47,2.3000000000000016,0.34000000000000014,0.24000000000000007,0.11999999999999998,4,2,2,1,27,3,3,1,2,0,14,7,Lc,0.08518518518518518,0.11333333333333333,0.08,0.11999999999999998
8,4,7,0,8,0.7200000000000004,2,7,66,41,37,120,2.5500000000000016,0.6500000000000004,0.09999999999999999,0.09,9,5,1,2,21,7,1,3,2,0,16,7,Lc,0.12142857142857144,0.09285714285714286,0.09999999999999999,0.03
8,4,8,0,6,0.6500000000000004,2,7,26,23,58,59,2.7899999999999987,0.5100000000000002,0.10999999999999999,0.04,6,2,2,1,22,5,2,1,4,0,19,7,Lc,0.12681818181818183,0.102,0.055,0.04
8,5,9,0,6,1.1100000000000008,2,17,57,60,13,20,1.9200000000000013,0.15,0.9800000000000006,0.5700000000000003,4,1,2,4,24,1,11,7,4,0,20,7,Lc,0.08,0.15,0.08909090909090908,0.08142857142857145
8,5,10,0,3,0.5200000000000002,2,4,45,38,48,65,1.4400000000000008,1.6400000000000012,0.10999999999999999,0.5000000000000002,7,9,2,3,14,15,3,4,5,0.5,34,7,Lc,0.10285714285714287,0.10933333333333335,0.03666666666666667,0.125
8,6,11,0,9,1.0300000000000007,2,13,67,61,64,22,1.2700000000000007,2.3599999999999937,0.07,0.4400000000000002,3,7,1,3,14,22,1,5,4,0.5,30,7,Lc,0.09071428571428572,0.1072727272727273,0.07,0.08800000000000001
8,6,12,0,6,0.6000000000000003,2,5,59,55,57,58,2.490000000000002,0.3100000000000001,0.45000000000000023,0.060000000000000005,11,3,4,1,23,4,5,1,4,1,48,7,Lc,0.10826086956521741,0.07749999999999999,0.09000000000000001,0.060000000000000005
8,7,13,1,2,0.6800000000000004,2,12,80,74,15,79,1.9100000000000013,1.370000000000001,0.34000000000000014,0.26000000000000006,5,9,1,4,22,16,1,4,3,0.5,24,7,Lc,0.08681818181818182,0.08562500000000002,0.34000000000000014,0.065
8,7,14,1,3,0.21000000000000005,2,4,4,86,11,60,17.85999999999996,0.10999999999999999,0.01,0.19000000000000003,20,2,1,2,144,2,1,2,5,0,19,7,Lc,0.1240277777777778,0.055,0.01,0.095
8,8,15,1,2,0.7600000000000005,2,11,73,83,116,55,1.610000000000001,0.16,0.6100000000000003,0.5100000000000002,4,1,3,2,19,1,6,6,3,0,12,7,Lc,0.08473684210526315,0.16,0.10166666666666667,0.085
8,8,16,1,3,0.4200000000000002,2,5,38,47,42,65,0.9200000000000004,1.0500000000000007,0.23000000000000007,0.47000000000000025,5,3,2,2,9,10,3,2,5,0.5,34,7,Lc,0.10222222222222224,0.10500000000000001,0.07666666666666667,0.23500000000000004
8,9,17,1,2,1.5700000000000012,2,18,58,78,34,54,1.8400000000000012,1.360000000000001,0.9800000000000006,0.4300000000000002,3,2,5,4,19,12,9,7,3,0,16,7,Lc,0.0968421052631579,0.11333333333333334,0.10888888888888891,0.06142857142857142
8,9,18,1,4,0.46000000000000024,2,4,105,108,47,45,1.4500000000000008,0.20000000000000004,0.9500000000000006,0.3200000000000001,4,1,3,4,12,2,10,6,2,0,14,7,Lc,0.12083333333333335,0.09999999999999999,0.095,0.05333333333333334
8,10,19,1,1,0.4100000000000002,5,7,91,17,85,30,5.039999999999946,0.24000000000000007,0.01,0.01,17,4,1,1,53,6,1,1,5,0,17,7,Lc,0.09509433962264152,0.04,0.01,0.01
8,10,20,1,2,0.9200000000000006,2,3,78,39,100,76,3.46999999999999,0.060000000000000005,0.04,0.45000000000000023,8,1,1,5,14,1,1,7,3,0,13,7,Lc,0.24785714285714294,0.060000000000000005,0.04,0.0642857142857143
8,11,21,1,7,0.9900000000000007,10,14,15,112,87,26,2.7700000000000022,0.47000000000000025,0.12999999999999998,0.07,13,4,2,1,32,5,3,1,3,0,16,7,Lc,0.08656250000000001,0.094,0.043333333333333335,0.07
8,11,22,1,4,0.8900000000000006,2,10,105,108,43,100,1.1900000000000006,1.6800000000000013,0.6800000000000004,0.20000000000000004,4,6,2,2,12,16,2,2,2,0.5,17,7,Lc,0.09916666666666668,0.10500000000000002,0.34000000000000014,0.1
8,12,23,1,2,0.9200000000000006,2,12,81,58,117,49,1.4900000000000009,1.5400000000000011,0.07,0.11999999999999998,4,4,2,1,18,12,2,1,3,0,13,7,Lc,0.08277777777777778,0.12833333333333335,0.035,0.11999999999999998
8,12,24,1,9,0.7700000000000005,14,16,21,37,14,20,5.329999999999948,0.7600000000000005,1.7400000000000013,1.8400000000000014,20,6,7,9,50,11,12,14,4,0.5,41,7,Lc,0.10660000000000001,0.06909090909090909,0.14500000000000005,0.13142857142857145
8,13,25,1,2,0.6900000000000004,3,6,78,81,49,58,1.8800000000000012,0.5300000000000002,0.3200000000000001,0.19000000000000003,5,2,2,2,24,9,3,3,3,0,14,7,Lc,0.07833333333333334,0.058888888888888886,0.10666666666666667,0.06333333333333334
8,13,26,1,4,0.46000000000000024,2,6,101,104,108,67,1.2000000000000006,0.7400000000000004,0.25000000000000006,0.4400000000000002,4,2,2,2,14,13,5,5,2,0.5,16,7,Lc,0.08571428571428572,0.056923076923076917,0.05,0.088
8,14,27,1,3,0.46000000000000024,9,9,37,46,39,95,1.510000000000001,0.4200000000000002,0.4300000000000002,0.6900000000000004,11,2,3,3,24,3,6,4,5,0.5,33,7,Lc,0.06291666666666666,0.14,0.07166666666666668,0.17250000000000004
8,14,28,1,4,0.5500000000000003,6,8,101,102,107,29,2.4400000000000017,0.09,2.8799999999999826,4.069999999999958,8,1,8,15,27,1,21,33,2,0.5,17,7,Lc,0.09037037037037038,0.09,0.13714285714285718,0.12333333333333335
8,15,29,1,5,0.22000000000000006,5,5,1,9,12,2,0.9900000000000005,0.22000000000000006,0.5100000000000002,1.2200000000000009,7,1,4,6,12,1,4,10,6,1,72,7,Lc,0.0825,0.22000000000000006,0.1275,0.12200000000000003
8,15,30,1,1,1.260000000000001,2,16,29,26,50,58,1.560000000000001,1.460000000000001,0.6200000000000003,0.21000000000000005,4,3,2,2,18,13,4,3,5,0,18,7,Lc,0.08666666666666667,0.11230769230769232,0.15500000000000003,0.07
8,16,31,1,2,0.8800000000000006,2,7,78,103,80,83,1.3800000000000008,1.350000000000001,0.16,0.3300000000000001,4,3,2,2,11,11,2,2,3,0.5,20,7,Lc,0.12545454545454549,0.12272727272727274,0.07999999999999999,0.165
8,16,32,1,8,0.26000000000000006,2,3,7,59,53,60,11.079999999999814,0.03,0.01,0.01,20,2,1,1,97,2,1,1,2,0.5,30,7,Lc,0.11422680412371136,0.015,0.01,0.01
8,17,33,1,1,1.1600000000000008,14,24,36,34,62,84,1.4400000000000008,1.260000000000001,3.369999999999972,0.01,16,4,7,1,26,7,38,1,5,0,17,7,Lc,0.055384615384615386,0.18000000000000005,0.0886842105263158,0.01
8,17,34,1,6,0.4300000000000002,2,4,51,58,20,22,1.0700000000000005,0.9100000000000006,1.9500000000000015,0.6200000000000003,4,2,7,4,7,9,17,4,4,0,20,7,Lc,0.1528571428571429,0.10111111111111112,0.1147058823529412,0.15500000000000003
8,18,35,1,6,0.37000000000000016,2,3,50,53,38,47,1.680000000000001,0.7300000000000004,0.09,0.3900000000000002,6,2,1,2,17,11,1,4,4,0,18,7,Lc,0.09882352941176473,0.06636363636363636,0.09,0.09750000000000002
8,18,36,1,1,0.9800000000000006,15,20,101,77,108,19,5.609999999999946,1.360000000000001,0.8000000000000005,0.8400000000000005,19,7,7,7,69,9,9,9,5,0,13,7,Lc,0.08130434782608696,0.15111111111111114,0.08888888888888889,0.09333333333333334
8,19,37,1,7,0.25000000000000006,1,2,91,93,19,103,0.5500000000000002,0.6100000000000003,0.9100000000000006,0.21000000000000005,3,2,7,1,4,5,9,1,3,0,14,7,Lc,0.1375,0.12200000000000001,0.10111111111111112,0.21000000000000005
8,19,38,1,6,0.6900000000000004,3,14,44,52,40,80,1.8800000000000012,0.22000000000000006,0.3300000000000001,0.4000000000000002,6,2,2,2,28,2,4,3,4,0,17,7,Lc,0.06714285714285714,0.11000000000000001,0.0825,0.13333333333333336
8,20,39,1,7,1.1800000000000008,2,16,88,5,95,2,2.0000000000000013,0.8000000000000005,0.3300000000000001,0.5500000000000003,5,4,3,5,26,5,6,6,3,0,18,7,Lc,0.07692307692307693,0.16000000000000003,0.055,0.09166666666666667
8,20,40,1,6,0.5100000000000002,2,5,60,50,104,81,0.7900000000000003,1.390000000000001,0.5200000000000002,0.8600000000000005,4,4,2,2,7,14,9,7,4,0,13,7,Lc,0.11285714285714288,0.0992857142857143,0.05777777777777778,0.12285714285714287
8,21,41,1,6,0.6700000000000004,2,9,58,57,106,59,1.0400000000000005,1.260000000000001,0.6100000000000003,0.05,5,2,2,1,13,15,3,1,4,0.5,26,7,Lc,0.08,0.084,0.20333333333333337,0.05
8,21,42,1,8,0.6000000000000003,2,5,111,19,34,120,2.4200000000000017,0.4200000000000002,0.46000000000000024,0.060000000000000005,7,2,3,2,23,5,4,2,2,0,15,7,Lc,0.10521739130434783,0.084,0.115,0.03
9,1,1,0,7,0.4100000000000002,2,4,92,94,104,26,1.9700000000000013,0.8200000000000005,0.9900000000000007,0.2900000000000001,6,2,2,1,11,3,10,1,3,0,13,7,Lc,0.17909090909090913,0.27333333333333343,0.09900000000000002,0.2900000000000001
9,1,2,0,3,0.7900000000000005,2,9,112,24,44,115,4.319999999999969,0.26000000000000006,0.10999999999999999,0.35000000000000014,8,2,2,2,29,2,2,2,5,0,15,7,Lc,0.14896551724137935,0.12999999999999998,0.05500000000000001,0.17500000000000002
9,2,3,0,2,0.4400000000000002,2,4,73,34,83,23,1.8400000000000012,0.9300000000000006,0.4300000000000002,0.35000000000000014,5,2,4,2,12,4,4,2,3,0,17,7,Lc,0.15333333333333338,0.2325000000000001,0.10750000000000001,0.17500000000000004
9,2,4,0,9,1.0600000000000007,3,6,61,97,71,66,1.7900000000000011,1.9300000000000015,0.25000000000000006,0.10999999999999999,5,4,2,1,8,12,2,1,4,0.5,26,7,Lc,0.22375000000000006,0.16083333333333338,0.12499999999999997,0.10999999999999999
9,3,5,0,1,0.5100000000000002,2,4,33,97,28,104,2.4800000000000018,0.24000000000000007,0.20000000000000004,0.18000000000000002,7,1,2,1,22,1,2,1,5,0,14,7,Lc,0.11272727272727275,0.24000000000000007,0.1,0.18000000000000002
9,3,6,0,6,0.5200000000000002,2,5,55,87,9,39,2.530000000000001,0.9600000000000006,0.4300000000000002,0.17,6,3,1,1,16,9,1,1,4,0,18,7,Lc,0.15812500000000004,0.10666666666666669,0.4300000000000002,0.17
9,4,7,0,9,0.5100000000000002,2,4,7,69,82,102,3.389999999999983,8.509999999999863,0.5700000000000003,0.16,7,15,3,3,14,35,3,3,4,0,15,7,Lc,0.24214285714285724,0.24314285714285724,0.19000000000000006,0.05333333333333334
9,4,8,0,10,0.48000000000000026,2,4,16,17,21,109,1.9700000000000013,4.339999999999952,0.02,0.18000000000000002,6,11,1,1,17,25,1,1,6,0.5,38,7,Lc,0.11588235294117649,0.17360000000000006,0.02,0.18000000000000002
9,5,9,0,5,0.9500000000000006,2,9,50,74,97,98,11.119999999999829,0.01,0.01,0.05,19,1,1,1,47,1,1,1,6,0,11,7,Lc,0.23659574468085115,0.01,0.01,0.05
9,5,10,0,9,0.5300000000000002,4,5,92,95,109,14,13.95999999999976,0.05,0.04,0.25000000000000006,20,1,2,2,65,1,2,2,4,0,14,7,Lc,0.21476923076923085,0.05,0.02,0.12500000000000003
9,6,11,0,1,1.0500000000000007,3,10,104,17,89,15,2.780000000000002,0.7200000000000004,0.36000000000000015,0.2700000000000001,6,2,2,2,16,6,3,3,5,0,17,7,Lc,0.17375000000000004,0.12000000000000001,0.12000000000000001,0.09
9,6,12,0,5,0.36000000000000015,2,5,6,116,43,4,1.8700000000000012,1.470000000000001,0.7600000000000005,0.5600000000000003,7,6,3,4,11,12,4,8,6,0,19,7,Lc,0.17000000000000004,0.12250000000000001,0.19000000000000003,0.07000000000000002
9,7,13,1,1,0.5000000000000002,2,5,56,26,15,102,2.809999999999995,0.34000000000000014,0.19000000000000003,0.10999999999999999,5,2,1,1,16,4,1,1,5,0,17,7,Lc,0.17562500000000003,0.08500000000000002,0.19000000000000003,0.10999999999999999
9,7,14,1,9,0.7600000000000005,2,6,62,92,120,90,1.620000000000001,3.1099999999999777,0.09999999999999999,0.35000000000000014,4,7,1,2,13,14,1,2,4,0,12,7,Lc,0.12461538461538464,0.2221428571428572,0.09999999999999999,0.17500000000000004
9,8,15,1,5,0.3100000000000001,2,6,12,4,6,2,1.4800000000000009,0.8800000000000006,0.26000000000000006,6.709999999999901,5,4,2,11,14,10,2,43,6,1,72,7,Lc,0.10571428571428575,0.08800000000000001,0.13,0.156046511627907
9,8,16,1,9,0.7100000000000004,2,5,67,20,106,93,2.4800000000000018,2.9699999999999807,0.46000000000000024,0.21000000000000005,8,12,4,2,15,25,5,2,4,0,15,7,Lc,0.16533333333333336,0.11880000000000002,0.09200000000000004,0.10499999999999998
9,9,17,1,5,0.16,2,4,1,41,11,40,0.8500000000000004,3.799999999999963,0.12999999999999998,0.08,3,8,2,1,5,20,3,1,6,0,22,7,Lc,0.17000000000000007,0.19000000000000006,0.04333333333333333,0.08
9,9,18,1,1,0.5000000000000002,3,7,34,52,95,30,1.0200000000000005,0.8100000000000005,1.0300000000000007,0.09,4,3,2,1,8,6,7,1,5,0,17,7,Lc,0.12750000000000003,0.13500000000000004,0.14714285714285716,0.09
9,10,19,1,3,0.6400000000000003,2,7,38,37,16,40,2.520000000000002,1.0200000000000007,1.260000000000001,0.07,6,3,6,1,15,3,6,1,5,0.5,36,7,Lc,0.16800000000000004,0.3400000000000002,0.21000000000000008,0.07
9,10,20,1,6,0.3900000000000002,2,5,57,54,11,87,2.0100000000000016,1.1600000000000008,0.4400000000000002,1.6500000000000012,6,3,2,6,13,8,3,6,4,0,17,7,Lc,0.15461538461538465,0.14500000000000002,0.1466666666666667,0.27500000000000013
9,11,21,1,3,0.48000000000000026,2,4,108,107,42,46,4.189999999999965,0.9200000000000006,0.03,0.04,10,5,1,1,28,5,1,1,5,0,14,7,Lc,0.1496428571428572,0.18400000000000005,0.03,0.04
9,11,22,1,2,0.7100000000000004,2,5,80,32,73,69,2.929999999999997,0.3200000000000001,1.0500000000000007,0.2900000000000001,9,2,3,2,19,2,5,3,3,0,15,7,Lc,0.1542105263157895,0.16,0.21000000000000008,0.09666666666666668
9,12,23,1,8,0.9900000000000007,10,15,112,7,10,39,1.530000000000001,1.6500000000000012,0.26000000000000006,0.2700000000000001,11,4,2,1,17,12,2,1,2,0,19,7,Lc,0.09000000000000001,0.13750000000000004,0.13,0.2700000000000001
9,12,24,1,10,0.37000000000000016,2,4,17,16,76,69,0.8900000000000003,7.659999999999881,0.01,0.22000000000000006,4,11,1,2,7,50,1,2,6,0,19,7,Lc,0.12714285714285717,0.15320000000000003,0.01,0.11000000000000003
9,13,25,1,10,0.4100000000000002,2,6,14,24,20,39,2.0100000000000016,0.3900000000000002,3.1999999999999758,1.0800000000000007,5,2,10,5,16,6,17,8,6,0.5,41,7,Lc,0.12562500000000001,0.065,0.1882352941176471,0.13500000000000004
9,13,26,1,7,0.3300000000000001,2,5,90,2,10,91,1.8800000000000012,0.3900000000000002,0.09999999999999999,0.5600000000000003,5,2,1,3,15,3,1,7,3,0,18,7,Lc,0.12533333333333335,0.13,0.09999999999999999,0.07999999999999999
9,14,27,1,9,0.3000000000000001,3,5,72,20,69,71,1.2600000000000007,1.0800000000000007,0.15,0.4200000000000002,5,5,1,3,14,5,1,4,4,0.5,30,7,Lc,0.09000000000000001,0.21600000000000005,0.15,0.105
9,14,28,1,5,2.479999999999991,4,11,4,87,38,51,12.63999999999982,0.02,0.02,0.02,20,1,2,1,70,1,2,1,6,0,18,7,Lc,0.1805714285714286,0.02,0.01,0.02
9,15,29,1,7,0.5600000000000003,12,14,3,91,92,90,5.899999999999931,0.03,0.02,0.6800000000000004,20,1,1,5,41,1,1,5,3,0.5,24,7,Lc,0.1439024390243903,0.03,0.02,0.13600000000000004
9,15,30,1,6,0.6100000000000003,2,3,50,49,75,45,1.620000000000001,1.410000000000001,1.5700000000000012,0.09999999999999999,5,6,4,2,7,9,6,2,4,0,16,7,Lc,0.2314285714285715,0.15666666666666673,0.26166666666666677,0.05
9,16,31,1,4,1.450000000000001,4,13,102,40,39,105,3.1200000000000023,0.7500000000000004,0.060000000000000005,0.35000000000000014,9,3,1,2,19,7,1,3,2,0,14,7,Lc,0.16421052631578953,0.10714285714285716,0.060000000000000005,0.1166666666666667
9,16,32,1,10,0.34000000000000014,2,3,16,15,57,89,1.8700000000000012,2.149999999999998,0.02,0.25000000000000006,5,5,1,2,13,11,1,2,6,0,19,7,Lc,0.14384615384615387,0.19545454545454552,0.02,0.12500000000000003
9,17,33,1,2,0.8000000000000005,2,5,102,83,2,78,2.1200000000000014,0.24000000000000007,1.7100000000000013,0.25000000000000006,4,1,3,2,16,1,8,2,3,0,14,7,Lc,0.1325,0.24000000000000007,0.21375000000000005,0.125
9,17,34,1,7,0.5800000000000003,3,7,93,85,41,40,3.509999999999982,0.23000000000000007,0.4200000000000002,0.5200000000000002,12,2,4,4,22,2,5,4,3,0,16,7,Lc,0.1595454545454546,0.11499999999999999,0.084,0.13000000000000003
9,18,35,1,8,0.4200000000000002,2,5,112,114,92,37,1.740000000000001,0.7200000000000004,1.2400000000000009,0.8700000000000006,7,2,4,3,15,5,5,3,2,0,12,7,Lc,0.116,0.14400000000000002,0.24800000000000008,0.2900000000000001
9,18,36,1,1,0.23000000000000007,2,3,32,99,101,49,0.6500000000000002,0.4100000000000002,1.1400000000000008,0.8300000000000005,4,1,2,4,5,1,5,6,5,0,13,7,Lc,0.13000000000000003,0.4100000000000002,0.22800000000000006,0.13833333333333336
9,19,37,1,10,0.9100000000000006,4,7,23,52,107,57,1.540000000000001,0.7300000000000004,0.9900000000000007,0.8900000000000006,6,2,5,3,11,4,6,5,6,0,16,7,Lc,0.14000000000000004,0.18250000000000002,0.16500000000000004,0.17800000000000005
9,19,38,1,7,0.6000000000000003,10,11,96,92,72,26,2.370000000000002,2.5199999999999902,0.03,0.5400000000000003,13,11,1,5,21,14,1,6,3,0,15,7,Lc,0.11285714285714289,0.18000000000000005,0.03,0.09
9,20,39,1,4,0.18000000000000002,3,3,5,63,96,61,8.909999999999858,0.01,0.01,0.01,15,1,1,1,40,1,1,1,2,0,17,7,Lc,0.2227500000000001,0.01,0.01,0.01
9,20,40,1,2,0.19000000000000003,2,3,76,56,78,50,0.8900000000000005,1.300000000000001,0.09,0.20000000000000004,4,5,1,1,7,7,1,1,3,0,14,7,Lc,0.12714285714285717,0.18571428571428578,0.09,0.20000000000000004
9,21,41,1,7,0.9900000000000007,2,16,60,86,56,7,2.0000000000000013,0.45000000000000023,0.10999999999999999,1.380000000000001,5,2,1,6,22,3,1,7,3,0,17,7,Lc,0.09090909090909093,0.15,0.10999999999999999,0.1971428571428572
9,21,42,1,2,0.20000000000000004,2,3,76,82,78,32,0.7800000000000004,0.37000000000000016,3.00999999999998,0.060000000000000005,4,2,7,1,5,2,21,1,3,0.5,23,7,Lc,0.15600000000000003,0.18500000000000003,0.14333333333333337,0.060000000000000005
10,1,1,0,10,1.2300000000000009,2,16,18,109,119,111,2.2200000000000015,0.9400000000000006,2.259999999999996,0.08,4,3,3,2,30,6,32,2,6,0.5,18,7,Lc,0.074,0.1566666666666667,0.07062500000000001,0.04
10,1,2,0,6,1.1900000000000008,3,16,54,52,100,45,2.2000000000000015,1.1700000000000008,0.5500000000000003,0.37000000000000016,6,2,2,2,26,12,9,3,4,0,15,7,Lc,0.08461538461538462,0.0975,0.06111111111111111,0.12333333333333334
10,2,3,0,7,0.5200000000000002,2,6,89,93,110,91,1.730000000000001,0.34000000000000014,1.470000000000001,0.16,4,2,2,2,18,7,18,2,3,0.5,20,7,Lc,0.09611111111111112,0.04857142857142857,0.08166666666666667,0.08
10,2,4,0,1,0.8100000000000005,2,9,32,28,105,29,2.370000000000002,0.15,0.5200000000000002,0.16,4,1,3,2,34,1,11,2,5,0.5,32,7,Lc,0.06970588235294117,0.15,0.04727272727272727,0.07999999999999999
10,3,5,0,8,0.9100000000000006,2,17,118,116,3,112,2.070000000000001,0.8000000000000005,0.3900000000000002,0.16,6,3,2,3,31,7,2,3,2,0.5,18,7,Lc,0.0667741935483871,0.11428571428571428,0.19500000000000006,0.05333333333333333
10,3,6,0,10,1.0300000000000007,2,12,19,16,20,30,2.1000000000000014,8.65999999999986,0.4100000000000002,0.02,4,17,3,2,21,75,3,2,6,0.5,41,7,Lc,0.1,0.11546666666666668,0.13666666666666671,0.01
10,4,7,0,1,1.310000000000001,2,19,30,56,55,58,1.700000000000001,1.9900000000000015,0.2900000000000001,0.24000000000000007,4,4,2,3,23,24,4,7,5,0.5,29,7,Lc,0.07391304347826087,0.08291666666666667,0.0725,0.03428571428571429
10,4,8,0,3,1.1100000000000008,2,14,47,39,44,4,2.870000000000002,0.22000000000000006,0.4000000000000002,0.8100000000000005,6,2,2,2,32,8,3,7,5,0.5,36,7,Lc,0.0896875,0.0275,0.13333333333333336,0.11571428571428573
10,5,9,0,7,1.0000000000000007,3,14,91,96,58,88,3.4899999999999913,0.22000000000000006,1.0800000000000007,0.02,8,2,6,1,44,2,13,1,3,0.5,22,7,Lc,0.07931818181818183,0.10999999999999999,0.08307692307692308,0.02
10,5,10,0,9,0.8600000000000005,2,17,69,99,23,37,2.490000000000002,1.2100000000000009,1.1300000000000008,0.12999999999999998,5,2,4,1,35,15,15,1,4,0,17,7,Lc,0.07114285714285715,0.08066666666666666,0.07533333333333334,0.12999999999999998
10,6,11,0,4,1.5600000000000012,4,28,103,101,39,106,2.1000000000000014,1.5100000000000011,0.34000000000000014,0.47000000000000025,7,3,2,2,32,14,5,8,2,0.5,17,7,Lc,0.065625,0.10785714285714286,0.068,0.05875
10,6,12,0,1,0.8500000000000005,2,12,32,26,92,88,2.720000000000002,1.280000000000001,0.8400000000000005,0.15,5,3,3,2,34,12,8,5,5,0,16,7,Lc,0.08,0.10666666666666669,0.10500000000000001,0.030000000000000002
10,7,13,1,6,0.7500000000000004,2,10,51,59,28,52,2.0800000000000014,0.5900000000000003,0.36000000000000015,0.23000000000000007,4,2,3,3,28,3,3,4,4,0.5,29,7,Lc,0.07428571428571429,0.19666666666666668,0.12000000000000002,0.057499999999999996
10,7,14,1,3,1.440000000000001,2,18,48,66,72,91,2.3400000000000016,1.420000000000001,1.0100000000000007,0.21000000000000005,4,3,3,3,28,15,10,6,5,0,16,7,Lc,0.08357142857142857,0.09466666666666668,0.10100000000000002,0.035
10,8,15,1,4,0.47000000000000025,2,8,104,24,96,38,0.8300000000000004,3.1099999999999777,0.20000000000000004,0.09,4,4,3,2,10,36,4,2,2,0,16,7,Lc,0.083,0.08638888888888889,0.05,0.045
10,8,16,1,8,1.440000000000001,18,29,113,57,58,35,2.3500000000000014,2.7399999999999856,1.420000000000001,1.1100000000000008,20,3,4,4,38,29,14,11,2,0,15,7,Lc,0.0618421052631579,0.09448275862068967,0.10142857142857145,0.10090909090909092
10,9,17,1,7,1.1800000000000008,18,24,90,96,50,60,3.8399999999999883,0.08,0.05,0.17,20,1,1,2,61,1,1,3,3,0,14,7,Lc,0.06295081967213115,0.08,0.05,0.05666666666666666
10,9,18,1,9,0.5500000000000003,2,9,65,71,43,46,1.8700000000000012,1.1000000000000008,1.490000000000001,0.4100000000000002,4,4,5,2,17,12,15,7,4,0,18,7,Lc,0.11000000000000001,0.09166666666666667,0.09933333333333334,0.05857142857142858
10,10,19,1,5,0.6500000000000004,2,9,6,8,4,68,2.1800000000000015,0.12999999999999998,6.059999999999915,0.04,4,2,15,3,32,3,71,3,6,0.5,40,7,Lc,0.068125,0.043333333333333335,0.08535211267605634,0.013333333333333334
10,10,20,1,4,0.6900000000000004,2,6,97,102,99,47,2.2300000000000013,0.8500000000000005,0.09999999999999999,1.1700000000000008,5,2,1,3,20,16,2,13,2,0.5,17,7,Lc,0.11150000000000002,0.053125,0.05,0.09000000000000002
10,11,21,1,9,0.47000000000000025,7,8,38,48,83,1,7.619999999999893,0.01,0.01,0.02,15,1,1,2,81,1,1,2,4,0,19,7,Lc,0.09407407407407409,0.01,0.01,0.01
10,11,22,1,7,0.5800000000000003,2,7,86,50,49,88,2.1500000000000012,0.17,0.6200000000000003,0.23000000000000007,5,2,5,2,31,3,11,3,3,0,14,7,Lc,0.06935483870967742,0.056666666666666664,0.056363636363636366,0.07666666666666666
10,12,23,1,7,0.6900000000000004,2,13,93,89,101,14,2.1400000000000015,0.8700000000000006,1.0300000000000007,0.23000000000000007,7,5,3,1,27,9,12,1,3,0,14,7,Lc,0.07925925925925927,0.09666666666666666,0.08583333333333333,0.23000000000000007
10,12,24,1,8,0.8900000000000006,2,11,115,110,83,84,2.4800000000000018,1.0500000000000007,0.46000000000000024,0.3900000000000002,5,4,2,2,31,12,7,5,2,0,10,7,Lc,0.08,0.08750000000000001,0.06571428571428573,0.078
10,13,25,1,7,0.8300000000000005,2,10,93,55,99,91,1.8200000000000012,0.5700000000000003,0.7700000000000005,0.07,4,3,3,1,18,3,8,1,3,0,12,7,Lc,0.10111111111111112,0.19000000000000006,0.09625,0.07
10,13,26,1,9,1.0500000000000007,2,13,71,77,68,69,1.3700000000000008,2.489999999999991,0.15,0.19000000000000003,4,3,2,3,15,36,2,4,4,0.5,27,7,Lc,0.09133333333333334,0.06916666666666667,0.075,0.0475
10,14,27,1,10,1.270000000000001,2,18,23,13,98,91,2.3200000000000016,0.35000000000000014,1.500000000000001,0.2900000000000001,4,3,3,2,37,7,18,4,6,0,17,7,Lc,0.0627027027027027,0.05,0.08333333333333334,0.0725
10,14,28,1,2,1.1600000000000008,2,15,75,116,109,74,2.5000000000000018,1.0500000000000007,0.2700000000000001,0.23000000000000007,4,6,3,2,30,7,4,6,3,0,10,7,Lc,0.08333333333333334,0.15000000000000002,0.06749999999999999,0.03833333333333334
10,15,29,1,2,0.9700000000000006,8,16,82,74,47,37,2.070000000000001,4.8299999999999415,0.25000000000000006,0.03,10,4,2,2,35,63,3,2,3,0,16,7,Lc,0.05914285714285714,0.07666666666666667,0.08333333333333334,0.015
10,15,30,1,1,0.6100000000000003,2,7,30,36,92,14,1.4800000000000009,1.440000000000001,0.3900000000000002,0.24000000000000007,4,2,2,3,12,13,7,4,5,0,19,7,Lc,0.12333333333333335,0.11076923076923077,0.05571428571428571,0.06
10,16,31,1,1,1.1900000000000008,2,14,33,120,114,111,2.4600000000000017,0.4200000000000002,0.5500000000000003,0.3100000000000001,5,2,3,2,34,5,7,3,5,0.5,17,7,Lc,0.07235294117647059,0.084,0.07857142857142857,0.10333333333333333
10,16,32,1,4,1.6200000000000012,16,29,99,14,37,15,2.3800000000000017,1.9600000000000015,0.2900000000000001,0.49000000000000027,18,2,2,2,39,23,6,3,2,0,19,7,Lc,0.06102564102564102,0.08521739130434784,0.04833333333333333,0.16333333333333333
10,17,33,1,2,1.0400000000000007,2,17,75,113,115,22,2.7100000000000017,0.22000000000000006,0.37000000000000016,0.9700000000000006,5,1,2,6,39,1,4,16,3,0,13,7,Lc,0.06948717948717949,0.22000000000000006,0.0925,0.060625
10,17,34,1,5,0.4400000000000002,2,5,3,2,97,25,1.0600000000000005,6.549999999999905,0.01,0.45000000000000023,5,15,1,3,14,73,1,5,6,0,19,7,Lc,0.07571428571428572,0.08972602739726028,0.01,0.09000000000000001
10,18,35,1,1,1.5800000000000012,9,28,35,36,103,54,3.1200000000000023,0.3000000000000001,0.6400000000000003,0.09,11,2,2,2,44,3,7,2,5,0,16,7,Lc,0.07090909090909091,0.09999999999999999,0.09142857142857143,0.045
10,18,36,1,3,1.0000000000000007,2,11,41,48,45,119,2.1000000000000014,0.8400000000000005,0.21000000000000005,0.5400000000000003,4,2,2,2,25,9,7,6,5,0.5,32,7,Lc,0.08400000000000002,0.09333333333333334,0.030000000000000002,0.09
10,19,37,1,3,0.9300000000000006,14,19,46,37,40,42,1.670000000000001,0.2800000000000001,0.060000000000000005,0.48000000000000026,16,2,1,3,24,6,1,4,5,1,60,7,Lc,0.06958333333333334,0.04666666666666667,0.060000000000000005,0.12
10,19,38,1,5,0.37000000000000016,6,8,2,56,60,52,7.189999999999899,0.01,0.01,0.04,18,1,1,1,69,1,1,1,6,0.5,30,7,Lc,0.10420289855072466,0.01,0.01,0.04
10,20,39,1,10,0.46000000000000024,2,5,19,24,17,15,2.0600000000000014,0.12999999999999998,0.6200000000000003,4.2199999999999545,7,1,4,10,30,1,10,39,6,1,72,7,Lc,0.06866666666666667,0.12999999999999998,0.062000000000000006,0.10820512820512822
10,20,40,1,7,1.1800000000000008,2,15,92,8,32,88,3.2300000000000013,0.7300000000000004,0.17,0.08,6,2,2,2,39,9,3,3,3,0,17,7,Lc,0.08282051282051282,0.08111111111111112,0.05666666666666666,0.02666666666666667
10,21,41,1,5,0.8000000000000005,13,16,86,7,6,96,4.789999999999959,0.6500000000000004,0.3200000000000001,0.19000000000000003,19,5,3,2,54,8,4,3,6,0,18,7,Lc,0.08870370370370372,0.08125,0.08000000000000002,0.06333333333333334
10,21,42,1,9,0.5700000000000003,2,10,62,72,63,114,1.8100000000000012,0.2800000000000001,1.380000000000001,0.5500000000000003,4,2,4,4,24,5,19,9,4,0.5,26,7,Lc,0.07541666666666667,0.055999999999999994,0.07263157894736842,0.06111111111111112
11,1,1,0,4,0.5600000000000003,2,3,105,27,107,99,2.0400000000000014,1.0700000000000007,0.11999999999999998,0.6900000000000004,5,2,1,4,10,5,2,6,2,0.5,17,7,Lc,0.20400000000000004,0.21400000000000005,0.06,0.11500000000000002
11,1,2,0,5,0.8900000000000006,2,11,7,2,80,119,1.9200000000000013,4.609999999999946,0.03,0.02,5,9,1,1,15,32,1,1,6,0,17,7,Lc,0.12800000000000003,0.14406250000000004,0.03,0.02
11,2,3,0,7,0.5500000000000003,2,6,33,31,120,92,2.3900000000000015,1.2400000000000009,0.7800000000000005,0.3900000000000002,4,2,2,1,17,9,7,1,3,0,15,7,Lc,0.14058823529411768,0.1377777777777778,0.11142857142857145,0.3900000000000002
11,2,4,0,3,1.2300000000000009,2,9,41,43,6,8,2.2200000000000015,1.0800000000000007,0.5600000000000003,1.1700000000000008,4,4,2,4,15,7,4,5,5,0,22,7,Lc,0.14800000000000002,0.1542857142857143,0.14,0.2340000000000001
11,3,5,0,4,0.37000000000000016,2,4,3,82,34,104,14.769999999999738,0.04,0.02,0.01,20,1,1,1,93,1,1,1,2,0,16,7,Lc,0.15881720430107532,0.04,0.02,0.01
11,3,6,0,8,0.3900000000000002,2,4,109,92,88,111,2.2200000000000015,0.34000000000000014,0.46000000000000024,0.16,5,2,2,2,20,3,5,2,2,0,10,7,Lc,0.111,0.11333333333333337,0.09200000000000001,0.08
11,4,7,0,10,0.6100000000000003,12,12,108,33,107,56,2.6600000000000006,3.7399999999999642,0.6200000000000003,0.22000000000000006,17,9,2,2,25,27,2,2,6,0,13,7,Lc,0.10640000000000002,0.13851851851851854,0.31000000000000016,0.11000000000000001
11,4,8,0,3,0.7500000000000004,2,4,42,84,73,43,2.4300000000000015,0.5800000000000003,0.8000000000000005,0.060000000000000005,5,2,3,1,19,6,5,1,5,0,16,7,Lc,0.12789473684210528,0.09666666666666669,0.16000000000000006,0.060000000000000005
11,5,9,0,5,1.0200000000000007,3,11,11,80,48,58,2.660000000000002,1.7700000000000014,0.21000000000000005,0.13999999999999999,7,6,2,2,19,14,2,2,6,0,18,7,Lc,0.14000000000000004,0.12642857142857145,0.105,0.07
11,5,10,0,8,0.38000000000000017,2,3,110,32,30,26,1.8900000000000012,0.8800000000000006,1.1600000000000008,0.17,6,4,7,2,12,4,9,4,2,0.5,32,7,Lc,0.15750000000000003,0.22000000000000008,0.12888888888888891,0.0425
11,6,11,0,9,0.4100000000000002,3,4,4,66,69,98,2.5099999999999993,0.22000000000000006,0.7800000000000005,0.34000000000000014,5,2,4,1,19,2,6,1,4,0,16,7,Lc,0.13210526315789478,0.10999999999999999,0.13000000000000003,0.34000000000000014
11,6,12,0,10,0.6500000000000004,2,14,22,20,14,34,1.1600000000000006,1.9200000000000015,3.0699999999999785,0.4100000000000002,5,3,8,1,18,6,17,1,6,0.5,41,7,Lc,0.06444444444444446,0.3200000000000001,0.18058823529411772,0.4100000000000002
11,7,13,1,3,0.4200000000000002,2,4,47,64,46,98,2.350000000000002,0.5000000000000002,0.09999999999999999,0.4400000000000002,5,2,1,2,17,4,1,3,5,0,16,7,Lc,0.13823529411764707,0.125,0.09999999999999999,0.1466666666666667
11,7,14,1,6,0.9000000000000006,2,8,49,53,56,30,2.600000000000002,1.0200000000000007,0.18000000000000002,0.18000000000000002,4,2,2,1,18,10,4,1,4,0.5,29,7,Lc,0.1444444444444445,0.10200000000000001,0.045000000000000005,0.18000000000000002
11,8,15,1,2,0.5800000000000003,3,5,76,108,79,34,2.630000000000001,0.2800000000000001,0.5800000000000003,0.2900000000000001,6,2,2,2,19,2,6,3,3,0,13,7,Lc,0.13842105263157897,0.14,0.09666666666666668,0.09666666666666669
11,8,16,1,8,0.4300000000000002,2,7,115,112,111,94,1.7700000000000011,0.5300000000000002,0.5700000000000003,0.3900000000000002,4,2,3,2,17,2,5,4,2,0.5,15,7,Lc,0.10411764705882355,0.26500000000000007,0.114,0.0975
11,9,17,1,8,0.7900000000000005,2,6,118,112,93,114,1.710000000000001,1.460000000000001,0.15,0.2900000000000001,4,2,1,2,14,14,1,5,2,0.5,15,7,Lc,0.12214285714285715,0.1042857142857143,0.15,0.057999999999999996
11,9,18,1,9,0.6000000000000003,9,10,35,62,98,79,4.449999999999962,0.34000000000000014,0.060000000000000005,0.09999999999999999,14,2,2,2,25,2,2,2,4,0,14,7,Lc,0.17800000000000007,0.17000000000000004,0.03,0.05
11,10,19,1,4,0.4300000000000002,3,4,60,98,41,58,3.4099999999999806,0.060000000000000005,0.6600000000000004,0.2700000000000001,12,1,2,2,17,1,4,2,2,0,15,7,Lc,0.2005882352941177,0.060000000000000005,0.16500000000000004,0.13500000000000004
11,10,20,1,8,0.4100000000000002,2,3,75,62,35,30,1.550000000000001,1.420000000000001,0.3200000000000001,0.4300000000000002,4,4,2,1,8,12,2,1,2,0,17,7,Lc,0.1937500000000001,0.11833333333333336,0.16000000000000003,0.4300000000000002
11,11,21,1,4,0.8700000000000006,3,8,100,68,37,63,2.620000000000002,0.5100000000000002,0.3300000000000001,0.10999999999999999,5,3,2,1,21,5,2,1,2,0,15,7,Lc,0.12476190476190478,0.10200000000000004,0.16500000000000004,0.10999999999999999
11,11,22,1,5,0.6900000000000004,3,8,7,6,28,50,1.3900000000000008,5.639999999999924,0.07,0.01,5,8,2,1,12,33,2,1,6,0,21,7,Lc,0.11583333333333334,0.17090909090909095,0.035,0.01
11,12,23,1,3,1.5900000000000012,15,23,104,63,37,107,2.860000000000002,0.5100000000000002,0.7100000000000004,1.7800000000000014,18,2,2,6,34,3,7,14,5,0,13,7,Lc,0.08411764705882353,0.17000000000000004,0.10142857142857144,0.12714285714285717
11,12,24,1,1,1.440000000000001,4,13,112,33,60,53,3.2400000000000024,0.6600000000000004,0.10999999999999999,0.11999999999999998,8,2,2,1,25,9,2,1,5,0,15,7,Lc,0.12960000000000002,0.07333333333333333,0.05499999999999999,0.11999999999999998
11,13,25,1,2,0.5900000000000003,2,6,54,78,50,47,2.070000000000001,0.36000000000000015,1.0800000000000007,0.21000000000000005,5,4,4,1,14,4,7,1,3,0,16,7,Lc,0.14785714285714288,0.09,0.1542857142857143,0.21000000000000005
11,13,26,1,1,0.5700000000000003,2,5,29,70,101,62,2.0600000000000014,0.16,0.5500000000000003,0.4100000000000002,5,1,3,3,19,1,5,3,5,0,15,7,Lc,0.10842105263157896,0.16,0.11,0.1366666666666667
11,14,27,1,8,0.3900000000000002,2,5,113,109,25,79,1.530000000000001,1.0600000000000007,0.6400000000000003,1.7300000000000013,5,3,3,5,13,4,4,5,2,0,12,7,Lc,0.11769230769230771,0.26500000000000007,0.16,0.3460000000000002
11,14,28,1,3,0.8100000000000005,2,4,37,41,3,104,2.8200000000000016,1.310000000000001,0.22000000000000006,0.15,6,4,2,1,14,11,6,1,5,0,18,7,Lc,0.2014285714285715,0.1190909090909091,0.03666666666666667,0.15
11,15,29,1,1,0.23000000000000007,4,5,16,57,20,18,6.9099999999999024,0.01,0.05,0.060000000000000005,17,1,1,1,47,1,1,1,5,0.5,40,7,Lc,0.14702127659574474,0.01,0.05,0.060000000000000005
11,15,30,1,5,0.36000000000000015,2,6,8,4,100,38,2.400000000000001,8.979999999999853,0.01,0.01,5,17,1,1,20,57,1,1,6,0,19,7,Lc,0.12000000000000002,0.15754385964912285,0.01,0.01
11,16,31,1,1,0.3000000000000001,2,3,36,7,31,83,1.1900000000000006,1.370000000000001,0.17,0.16,4,4,2,1,7,13,2,1,5,0,19,7,Lc,0.17000000000000007,0.1053846153846154,0.08499999999999999,0.16
11,16,32,1,3,0.3900000000000002,7,7,19,54,38,23,8.899999999999864,0.01,0.5600000000000003,0.060000000000000005,20,1,3,3,46,1,3,3,5,0,21,7,Lc,0.1934782608695653,0.01,0.18666666666666676,0.02
11,17,33,1,7,0.4300000000000002,8,8,96,2,94,66,5.479999999999937,0.3900000000000002,0.01,0.01,14,2,1,1,48,4,1,1,3,0,16,7,Lc,0.11416666666666668,0.09750000000000002,0.01,0.01
11,17,34,1,4,0.2900000000000001,2,5,103,60,14,97,1.3900000000000008,2.2799999999999954,0.16,0.05,6,8,1,1,12,18,1,2,2,0,14,7,Lc,0.11583333333333336,0.1266666666666667,0.16,0.025
11,18,35,1,4,0.3100000000000001,2,3,96,69,18,15,2.6199999999999948,0.15,0.3100000000000001,0.6800000000000004,5,1,2,3,16,1,3,4,2,0,19,7,Lc,0.16375000000000003,0.15,0.10333333333333336,0.17000000000000004
11,18,36,1,8,0.22000000000000006,2,4,119,56,117,39,1.2100000000000006,2.0799999999999996,0.060000000000000005,0.16,4,5,1,2,12,14,1,2,2,0,13,7,Lc,0.10083333333333334,0.1485714285714286,0.060000000000000005,0.08
11,19,37,1,1,0.8500000000000005,9,12,50,56,28,10,2.9100000000000006,0.15,0.9300000000000006,0.4000000000000002,14,1,4,3,26,1,5,4,5,0,19,7,Lc,0.11192307692307694,0.15,0.18600000000000005,0.09999999999999999
11,19,38,1,3,0.7200000000000004,11,13,99,46,41,43,2.5100000000000016,0.5400000000000003,0.3000000000000001,0.18000000000000002,16,3,1,1,20,4,1,1,5,0.5,32,7,Lc,0.12550000000000003,0.135,0.3000000000000001,0.18000000000000002
11,20,39,1,8,0.4400000000000002,2,4,120,112,13,15,0.8300000000000004,0.8800000000000006,0.4300000000000002,0.5400000000000003,4,2,2,3,6,4,2,6,2,0,16,7,Lc,0.13833333333333336,0.22000000000000006,0.21500000000000008,0.09000000000000002
11,20,40,1,5,1.6300000000000012,10,15,105,108,107,100,4.2399999999999896,0.3200000000000001,2.289999999999995,1.0900000000000007,16,2,5,6,33,2,16,7,6,1,24,7,Lc,0.1284848484848485,0.16000000000000006,0.14312500000000003,0.15571428571428575
11,21,41,1,10,0.37000000000000016,2,3,23,41,24,43,1.4200000000000008,0.49000000000000027,3.749999999999964,0.3200000000000001,5,2,5,2,9,3,26,3,6,0,22,7,Lc,0.1577777777777778,0.16333333333333333,0.14423076923076927,0.10666666666666666
11,21,42,1,7,1.260000000000001,16,19,96,91,7,114,2.2000000000000015,0.21000000000000005,1.490000000000001,2.07,18,1,9,7,25,1,13,8,3,0,14,7,Lc,0.08800000000000001,0.21000000000000005,0.11461538461538462,0.2587500000000001
12,1,1,0,9,0.7300000000000004,2,11,62,37,11,84,1.9800000000000013,0.9000000000000006,0.13999999999999999,0.3200000000000001,4,3,1,1,19,8,1,1,4,0,18,7,Lc,0.10421052631578949,0.1125,0.13999999999999999,0.3200000000000001
12,1,2,0,6,0.7100000000000004,10,12,112,24,49,25,4.369999999999966,0.8800000000000006,0.01,0.03,16,5,1,1,40,10,1,1,4,0,17,7,Lc,0.10925000000000001,0.08800000000000002,0.01,0.03
12,2,3,0,2,0.4300000000000002,2,5,76,81,62,45,1.4400000000000008,0.13999999999999999,0.5200000000000002,0.8800000000000006,4,2,2,4,13,3,4,7,3,0,15,7,Lc,0.11076923076923077,0.04666666666666667,0.13,0.12571428571428572
12,2,4,0,10,0.7700000000000005,7,12,24,20,25,58,1.730000000000001,0.38000000000000017,1.0100000000000007,1.0100000000000007,9,2,3,4,19,5,6,5,6,0,21,7,Lc,0.09105263157894739,0.076,0.1683333333333334,0.20200000000000007
12,3,5,0,3,0.6500000000000004,2,9,39,44,98,49,1.0900000000000005,0.9700000000000006,1.2400000000000009,0.21000000000000005,5,6,4,3,13,14,11,3,5,0,16,7,Lc,0.08384615384615385,0.0692857142857143,0.11272727272727273,0.06999999999999999
12,3,6,0,9,2.53999999999999,4,17,15,36,115,72,6.199999999999956,0.01,0.04,0.02,9,1,1,1,43,1,1,1,4,0,17,7,Lc,0.14418604651162795,0.01,0.04,0.02
12,4,7,0,5,0.4000000000000002,2,4,97,78,66,36,1.520000000000001,0.7300000000000004,0.34000000000000014,0.9000000000000006,4,2,2,3,15,7,3,6,6,0,14,7,Lc,0.10133333333333336,0.10428571428571431,0.11333333333333333,0.15000000000000005
