Subject,Round,Phase,afterbreak,Schema,Schema_RT,Schema_OB,Schema_AS,Cho_1,Cho_2,Cho_3,Cho_4,RT_1,RT_2,RT_3,RT_4,OB_1,OB_2,OB_3,OB_4,AS_1,AS_2,AS_3,AS_4,schema_payoff,AC,performance,breakR,type,dwellmean_1,dwellmean_2,dwellmean_3,dwellmean_4
1,1,1,0,8,0.7800000000000005,2,6,119,44,43,63,2.760000000000002,0.9500000000000006,3.369999999999972,0.5300000000000002,5,1,6,1,14,1,13,1,2,0,16,7,L,0.1971428571428572,0.9500000000000006,0.2592307692307693,0.5300000000000002
1,1,2,0,7,0.6800000000000004,2,3,85,97,28,10,4.129999999999971,1.0800000000000007,0.4100000000000002,0.26000000000000006,6,2,2,2,12,8,2,2,3,0,16,7,L,0.34416666666666684,0.13500000000000004,0.20500000000000004,0.12999999999999998
1,2,3,0,10,0.49000000000000027,2,3,22,47,80,64,2.270000000000002,2.7299999999999858,0.7900000000000005,0.18000000000000002,4,6,1,1,7,9,1,1,6,0,18,7,L,0.32428571428571445,0.30333333333333345,0.7900000000000005,0.18000000000000002
1,2,4,0,5,0.8400000000000005,2,7,112,11,88,8,4.1599999999999735,0.4000000000000002,0.6500000000000004,0.37000000000000016,6,2,2,2,17,2,2,4,6,0,17,7,L,0.24470588235294127,0.20000000000000004,0.3250000000000001,0.0925
1,3,5,0,7,0.19000000000000003,2,2,3,64,85,37,9.74999999999984,0.01,0.01,0.01,15,1,1,1,28,1,1,1,3,0,18,7,L,0.34821428571428586,0.01,0.01,0.01
1,3,6,0,1,0.6000000000000003,2,4,119,28,112,29,4.759999999999956,0.24000000000000007,0.2700000000000001,0.12999999999999998,7,2,1,1,18,4,1,1,5,0,14,7,L,0.26444444444444454,0.06,0.2700000000000001,0.12999999999999998
1,4,7,0,9,0.6600000000000004,2,3,3,1,71,65,4.289999999999967,2.7399999999999856,0.46000000000000024,0.16,5,4,2,2,9,8,3,2,4,0,20,7,L,0.4766666666666669,0.34250000000000014,0.15333333333333338,0.07999999999999999
1,4,8,0,6,0.5600000000000003,2,5,54,113,46,53,1.9700000000000013,1.8600000000000014,1.6400000000000012,0.09,4,2,3,1,7,2,3,1,4,0,15,7,L,0.2814285714285716,0.9300000000000006,0.546666666666667,0.09
1,5,9,0,1,0.34000000000000014,4,5,1,28,69,61,10.059999999999837,0.01,0.36000000000000015,1.9300000000000015,15,1,2,4,36,1,2,4,5,0,19,7,L,0.2794444444444442,0.01,0.18000000000000008,0.4825000000000003
1,5,10,0,10,0.4200000000000002,2,3,116,37,13,16,3.6099999999999763,1.8300000000000014,5.019999999999937,0.5400000000000003,7,2,7,4,11,9,14,4,6,0,19,7,L,0.32818181818181835,0.2033333333333334,0.35857142857142876,0.13500000000000004
1,6,11,0,6,0.6000000000000003,2,5,16,13,50,55,2.8299999999999965,0.6400000000000003,0.36000000000000015,0.5100000000000002,7,2,1,2,14,4,1,2,4,0,20,7,L,0.2021428571428572,0.16000000000000003,0.36000000000000015,0.25500000000000006
1,6,12,0,9,1.5200000000000011,2,10,65,64,7,6,2.910000000000002,3.4399999999999706,0.26000000000000006,0.36000000000000015,3,4,1,2,11,19,1,3,4,0,20,7,L,0.2645454545454547,0.18105263157894744,0.26000000000000006,0.12000000000000004
1,7,13,1,4,0.37000000000000016,4,4,6,2,107,46,10.379999999999832,5.769999999999921,0.01,0.01,14,12,1,1,30,17,1,1,2,0,19,7,L,0.34600000000000014,0.3394117647058825,0.01,0.01
1,7,14,1,13,1.1500000000000008,18,19,27,28,115,118,6.939999999999921,0.22000000000000006,0.3300000000000001,1.290000000000001,20,2,2,2,47,2,2,2,6,0,14,7,L,0.14765957446808514,0.11000000000000001,0.16500000000000004,0.6450000000000005
1,8,15,1,7,0.5300000000000002,2,5,75,79,71,37,2.9099999999999935,1.8300000000000014,1.310000000000001,0.17,6,3,2,1,13,6,5,1,3,0,15,7,L,0.22384615384615394,0.3050000000000001,0.26200000000000007,0.17
1,8,16,1,4,1.1000000000000008,2,5,57,100,96,56,5.209999999999957,0.6600000000000004,0.6700000000000004,0.26000000000000006,9,2,2,1,14,4,4,1,2,0,13,7,L,0.37214285714285733,0.16500000000000004,0.16750000000000004,0.26000000000000006
1,9,17,1,11,0.9100000000000006,8,10,46,41,115,47,4.719999999999963,0.48000000000000026,1.380000000000001,0.9200000000000006,13,3,3,2,19,3,3,2,2,0.5,32,7,L,0.24842105263157904,0.16000000000000003,0.46000000000000024,0.4600000000000002
1,9,18,1,3,0.35000000000000014,2,3,26,31,107,101,2.1900000000000017,0.9200000000000006,0.5200000000000002,0.37000000000000016,4,2,1,1,11,3,2,1,5,0,14,7,L,0.19909090909090915,0.3066666666666668,0.2600000000000001,0.37000000000000016
1,10,19,1,14,0.9300000000000006,12,14,43,109,44,112,3.1299999999999977,2.3799999999999932,0.09,1.260000000000001,15,4,1,3,19,10,1,4,5,0,14,7,L,0.16473684210526324,0.23800000000000007,0.09,0.3150000000000001
1,10,20,1,3,0.37000000000000016,2,5,33,104,100,36,1.630000000000001,3.329999999999973,0.3100000000000001,0.060000000000000005,4,4,1,1,7,12,1,1,5,0,14,7,L,0.23285714285714296,0.2775000000000001,0.3100000000000001,0.060000000000000005
1,11,21,1,11,1.6000000000000012,18,22,61,5,70,112,6.1199999999999495,0.16,0.16,0.04,20,2,1,1,39,2,1,1,2,0,16,7,L,0.15692307692307697,0.08,0.16,0.04
1,11,22,1,12,0.5000000000000002,2,6,35,56,92,30,3.4399999999999817,0.5200000000000002,0.8300000000000005,1.0000000000000007,6,1,2,2,11,2,2,4,3,0,17,7,L,0.3127272727272729,0.26000000000000006,0.4150000000000002,0.25000000000000006
1,12,23,1,7,0.8400000000000005,13,13,76,62,41,21,2.800000000000002,4.189999999999955,0.6500000000000004,3.1599999999999766,15,5,2,6,20,11,2,10,3,0,18,7,L,0.14000000000000004,0.3809090909090911,0.3250000000000002,0.3160000000000001
1,12,24,1,10,0.3900000000000002,3,3,85,1,91,26,8.519999999999872,0.6700000000000004,0.05,0.01,13,3,1,1,31,3,1,1,6,0,17,7,L,0.27483870967741947,0.2233333333333334,0.05,0.01
1,13,25,1,6,0.5500000000000003,4,4,93,96,113,119,9.389999999999857,0.02,2.099999999999999,1.300000000000001,9,1,7,7,32,1,7,7,4,0,10,7,L,0.29343750000000013,0.02,0.3000000000000001,0.18571428571428578
1,13,26,1,15,0.3000000000000001,3,3,14,41,23,70,42.930000000000085,0.01,0.02,0.01,20,1,1,1,113,1,1,1,4,0,21,7,L,0.37991150442477895,0.01,0.02,0.01
1,14,27,1,10,0.2900000000000001,4,4,3,10,114,80,3.109999999999984,1.1900000000000008,0.5200000000000002,1.0600000000000007,7,2,2,3,11,4,2,5,6,0,17,7,L,0.2827272727272729,0.2975000000000001,0.2600000000000001,0.21200000000000005
1,14,28,1,4,0.7200000000000004,2,6,105,85,71,107,2.969999999999996,1.5500000000000012,0.6300000000000003,0.38000000000000017,6,2,2,2,14,6,2,2,2,0,11,7,L,0.21214285714285722,0.2583333333333334,0.3150000000000001,0.19000000000000006
1,15,29,1,14,0.6300000000000003,5,6,39,43,21,18,3.599999999999981,1.0100000000000007,0.35000000000000014,2.0300000000000007,10,3,1,6,15,3,1,8,5,0,22,7,L,0.2400000000000001,0.3366666666666668,0.35000000000000014,0.2537500000000001
1,15,30,1,3,1.5300000000000011,11,14,64,109,10,4,4.669999999999979,0.4300000000000002,0.3900000000000002,0.20000000000000004,15,2,2,1,34,3,2,1,5,0,18,7,L,0.13735294117647062,0.14333333333333337,0.19500000000000003,0.20000000000000004
1,16,31,1,7,0.5800000000000003,2,3,81,80,13,14,2.8699999999999957,1.340000000000001,1.0100000000000007,0.9200000000000006,5,4,2,3,9,5,2,5,3,0,18,7,L,0.31888888888888905,0.26800000000000007,0.5050000000000002,0.18400000000000005
1,16,32,1,11,0.6200000000000003,3,4,5,40,94,109,2.7399999999999993,1.280000000000001,0.7700000000000005,0.10999999999999999,6,2,2,1,11,4,3,1,2,0,16,7,L,0.24909090909090917,0.3200000000000001,0.25666666666666677,0.10999999999999999
1,17,33,1,3,1.0700000000000007,11,11,57,30,16,92,6.169999999999936,4.339999999999952,0.08,0.12999999999999998,17,7,2,3,28,13,2,3,5,0,18,7,L,0.22035714285714295,0.333846153846154,0.04,0.043333333333333335
1,17,34,1,4,0.7800000000000005,3,5,41,2,8,107,3.389999999999989,0.4300000000000002,0.3900000000000002,0.46000000000000024,6,2,2,1,13,3,2,1,2,0,19,7,L,0.26076923076923086,0.14333333333333337,0.195,0.46000000000000024
1,18,35,1,7,1.400000000000001,2,8,15,28,83,99,11.609999999999827,0.05,0.05,0.47000000000000025,18,1,1,2,36,1,1,2,3,0,16,7,L,0.3225000000000002,0.05,0.05,0.23500000000000013
1,18,36,1,11,0.6300000000000003,2,6,109,7,91,44,1.9300000000000013,2.6599999999999873,0.45000000000000023,0.16,4,3,1,1,9,7,1,1,2,0,16,7,L,0.21444444444444452,0.38000000000000017,0.45000000000000023,0.16
1,19,37,1,4,1.0000000000000007,3,5,90,107,49,60,3.889999999999983,0.35000000000000014,0.5700000000000003,0.9100000000000006,6,2,1,2,11,3,1,2,2,0,13,7,L,0.3536363636363638,0.11666666666666667,0.5700000000000003,0.4550000000000002
1,19,38,1,15,0.09999999999999999,2,2,13,68,16,63,6.439999999999909,0.02,0.4300000000000002,0.04,7,1,3,2,21,1,3,2,4,0,20,7,L,0.3066666666666668,0.02,0.14333333333333337,0.02
1,20,39,1,6,0.9300000000000006,12,13,53,105,58,74,2.450000000000002,3.6799999999999655,1.1400000000000008,0.8700000000000006,14,7,3,3,21,13,6,4,4,0,13,7,L,0.1166666666666667,0.2830769230769232,0.19000000000000006,0.21750000000000005
1,20,40,1,3,0.34000000000000014,2,3,35,28,29,93,2.2300000000000018,0.46000000000000024,0.3200000000000001,1.1700000000000008,4,2,1,1,11,3,1,1,5,0.5,33,7,L,0.20272727272727278,0.15333333333333338,0.3200000000000001,1.1700000000000008
1,21,41,1,6,0.2700000000000001,5,6,13,22,23,90,13.13999999999977,0.05,0.07,0.01,16,1,2,1,41,1,2,1,4,0.5,39,7,L,0.32048780487804895,0.05,0.035,0.01
1,21,42,1,14,0.5000000000000002,1,2,2,5,61,71,2.9899999999999913,1.8100000000000014,0.5100000000000002,1.330000000000001,5,5,1,6,12,6,1,7,5,0,20,7,L,0.24916666666666676,0.3016666666666668,0.5100000000000002,0.19000000000000006
2,1,1,0,9,0.46000000000000024,2,3,72,91,114,1,7.659999999999891,0.01,0.04,0.18000000000000002,12,1,1,2,21,1,1,2,4,0,15,7,L,0.36476190476190495,0.01,0.04,0.09
2,1,2,0,6,0.7200000000000004,2,5,50,24,104,19,2.9499999999999966,1.1500000000000008,0.7200000000000004,0.36000000000000015,4,2,2,2,9,2,3,2,4,0,18,7,L,0.32777777777777795,0.5750000000000003,0.24000000000000005,0.18000000000000005
2,2,3,0,8,1.5500000000000012,13,20,115,49,4,113,2.3100000000000014,3.429999999999971,0.18000000000000002,0.05,15,4,1,2,22,9,1,2,2,0,14,7,L,0.10500000000000002,0.3811111111111113,0.18000000000000002,0.025
2,2,4,0,4,0.38000000000000017,5,5,61,63,14,38,3.6599999999999744,0.6800000000000004,0.4200000000000002,0.2700000000000001,9,3,2,2,11,4,3,2,2,0,19,7,L,0.3327272727272729,0.17000000000000004,0.14,0.135
2,3,5,0,6,1.1500000000000008,2,6,59,4,50,55,2.800000000000002,0.8100000000000005,0.6900000000000004,0.46000000000000024,4,1,2,2,12,1,2,2,4,0.5,30,7,L,0.23333333333333342,0.8100000000000005,0.34500000000000014,0.23000000000000004
2,3,6,0,8,0.6900000000000004,2,5,111,120,95,88,2.8999999999999972,1.2000000000000008,0.8900000000000006,0.16,5,2,5,1,19,6,9,1,2,0,10,7,L,0.15263157894736845,0.20000000000000004,0.09888888888888889,0.16
2,4,7,0,5,0.7100000000000004,2,5,2,61,64,68,2.330000000000002,4.329999999999952,1.2100000000000009,0.16,5,4,4,3,11,10,4,3,6,0.5,30,7,L,0.2118181818181819,0.4330000000000003,0.30250000000000016,0.05333333333333333
2,4,8,0,10,0.7300000000000004,2,5,17,13,94,118,2.1300000000000017,9.789999999999836,0.9600000000000006,0.01,4,15,3,1,9,26,3,1,6,0,17,7,L,0.23666666666666675,0.3765384615384617,0.3200000000000002,0.01
2,5,9,0,2,0.3300000000000001,8,8,80,16,22,19,1.540000000000001,8.21999999999987,0.01,18.970000000000166,9,12,1,17,9,23,1,53,3,0.5,39,7,L,0.1711111111111112,0.3573913043478263,0.01,0.357924528301887
2,5,10,0,9,0.48000000000000026,2,3,113,118,64,115,3.49999999999998,0.20000000000000004,1.260000000000001,0.09999999999999999,5,1,3,2,12,1,4,2,4,0.5,16,7,L,0.2916666666666668,0.20000000000000004,0.31500000000000017,0.05
2,6,11,0,7,1.500000000000001,15,21,90,88,29,5,2.960000000000002,0.5000000000000002,4.649999999999945,1.270000000000001,18,2,5,3,26,3,9,3,3,0,17,7,L,0.11384615384615387,0.16666666666666669,0.5166666666666662,0.4233333333333336
2,6,12,0,10,0.7500000000000004,2,5,15,16,20,75,3.249999999999991,0.9100000000000006,0.6500000000000004,3.2199999999999753,7,3,2,6,20,3,2,7,6,0.5,39,7,L,0.16250000000000003,0.30333333333333345,0.3250000000000001,0.46000000000000024
2,7,13,1,6,0.9300000000000006,2,8,60,52,117,113,2.070000000000001,0.6200000000000003,2.2799999999999954,0.46000000000000024,5,1,2,2,12,1,7,3,4,0,12,7,L,0.17250000000000004,0.6200000000000003,0.32571428571428584,0.15333333333333338
2,7,14,1,14,0.2900000000000001,4,4,84,100,101,98,14.939999999999733,3.1099999999999777,0.9800000000000006,1.2500000000000009,20,8,3,4,37,10,4,6,5,0.5,15,7,L,0.4037837837837836,0.31100000000000017,0.24500000000000008,0.20833333333333343
2,8,15,1,11,1.1300000000000008,8,10,118,78,77,74,3.3499999999999974,0.22000000000000006,1.5500000000000012,1.1900000000000008,10,1,4,5,21,1,4,6,2,0.5,20,7,L,0.15952380952380957,0.22000000000000006,0.3875000000000002,0.1983333333333334
2,8,16,1,4,1.5700000000000012,2,7,98,65,31,5,3.3100000000000023,2.4699999999999913,0.5900000000000003,0.4000000000000002,6,3,2,2,13,13,3,2,2,0,17,7,L,0.2546153846153847,0.19000000000000006,0.1966666666666667,0.20000000000000004
2,9,17,1,3,0.5500000000000003,11,11,30,92,113,15,7.919999999999888,0.17,1.9500000000000015,0.01,20,2,3,1,31,2,4,1,5,0,16,7,L,0.25548387096774205,0.085,0.48750000000000027,0.01
2,9,18,1,14,0.49000000000000027,8,8,42,102,84,45,1.7900000000000011,1.9900000000000015,0.5500000000000003,0.22000000000000006,10,3,3,2,13,5,5,2,5,0,15,7,L,0.13769230769230772,0.3980000000000002,0.11000000000000001,0.10999999999999999
2,10,19,1,7,2.07,8,13,76,74,66,112,3.1600000000000006,1.9600000000000015,0.2900000000000001,0.08,10,3,2,1,15,8,3,1,3,0,12,7,L,0.21066666666666675,0.24500000000000008,0.09666666666666669,0.08
2,10,20,1,10,0.23000000000000007,3,3,33,3,92,6,10.859999999999818,0.8300000000000005,0.01,0.01,16,4,1,1,31,4,1,1,6,0,20,7,L,0.3503225806451615,0.20750000000000007,0.01,0.01
2,11,21,1,3,0.3100000000000001,2,3,31,87,33,32,2.7699999999999916,1.0500000000000007,0.08,1.470000000000001,7,2,1,4,12,3,1,6,5,0.5,33,7,L,0.23083333333333342,0.35000000000000014,0.08,0.2450000000000001
2,11,22,1,7,2.9799999999999804,12,18,5,106,63,37,4.329999999999981,0.7300000000000004,0.3900000000000002,2.4199999999999924,16,5,2,9,22,8,2,12,3,0,17,7,L,0.1968181818181819,0.09125,0.19500000000000006,0.20166666666666674
2,12,23,1,12,2.9699999999999807,10,15,45,49,92,54,3.599999999999981,4.199999999999955,0.12999999999999998,0.7200000000000004,12,7,2,2,18,11,3,4,3,0,16,7,L,0.20000000000000007,0.381818181818182,0.043333333333333335,0.18000000000000002
2,12,24,1,3,0.6200000000000003,2,3,29,27,66,77,2.3400000000000016,0.8200000000000005,1.0000000000000007,1.330000000000001,4,4,3,4,11,5,3,4,5,0,17,7,L,0.2127272727272728,0.16400000000000003,0.3333333333333335,0.33250000000000013
2,13,25,1,12,0.7400000000000004,4,6,86,5,61,96,1.9300000000000013,1.420000000000001,0.3000000000000001,0.8300000000000005,5,3,1,2,7,4,1,2,3,0,16,7,L,0.27571428571428586,0.3550000000000002,0.3000000000000001,0.4150000000000002
2,13,26,1,3,1.410000000000001,9,12,54,73,114,110,3.52,0.20000000000000004,0.5300000000000002,0.5000000000000002,12,1,2,2,19,1,4,3,5,0,11,7,L,0.1852631578947369,0.20000000000000004,0.1325,0.16666666666666669
2,14,27,1,6,0.7400000000000004,2,5,51,91,56,31,2.640000000000002,2.489999999999991,0.2800000000000001,0.8700000000000006,4,6,3,3,7,11,3,4,4,0,16,7,L,0.37714285714285734,0.22636363636363643,0.09333333333333334,0.21750000000000005
2,14,28,1,14,0.6200000000000003,2,3,48,79,40,119,2.0000000000000013,1.350000000000001,0.9700000000000006,1.0300000000000007,4,2,3,3,5,2,4,3,5,0,15,7,L,0.4000000000000002,0.6750000000000004,0.24250000000000008,0.34333333333333355
2,15,29,1,13,0.8100000000000005,2,6,15,118,39,17,2.1800000000000015,0.4300000000000002,0.9300000000000006,0.20000000000000004,4,1,2,1,12,1,2,1,6,0,19,7,L,0.18166666666666673,0.4300000000000002,0.4650000000000002,0.20000000000000004
2,15,30,1,3,0.9500000000000006,8,9,74,76,108,32,3.879999999999982,0.18000000000000002,1.350000000000001,0.25000000000000006,13,1,4,2,17,1,4,2,5,0,13,7,L,0.22823529411764715,0.18000000000000002,0.33750000000000013,0.125
2,16,31,1,7,0.7000000000000004,2,6,98,84,41,75,4.279999999999968,0.17,1.0400000000000007,0.7700000000000005,11,2,3,2,22,2,3,3,3,0,13,7,L,0.1945454545454546,0.08499999999999999,0.3466666666666668,0.2566666666666668
2,16,32,1,6,0.7700000000000005,3,4,12,85,59,119,4.439999999999966,0.23000000000000007,0.12999999999999998,0.23000000000000007,7,2,1,2,12,2,1,2,4,0,15,7,L,0.37000000000000016,0.11499999999999999,0.12999999999999998,0.11499999999999999
2,17,33,1,4,0.4100000000000002,3,5,104,90,11,88,1.9500000000000013,0.5400000000000003,1.1600000000000008,0.6800000000000004,7,1,6,3,12,1,8,3,2,0,14,7,L,0.16250000000000003,0.5400000000000003,0.14500000000000005,0.22666666666666677
2,17,34,1,7,0.9900000000000007,3,4,14,111,113,15,9.699999999999859,0.01,0.01,0.05,11,1,1,1,26,1,1,1,3,0,16,7,L,0.3730769230769233,0.01,0.01,0.05
2,18,35,1,3,0.49000000000000027,2,3,73,29,28,74,3.1499999999999875,0.3000000000000001,0.5900000000000003,0.16,5,2,2,1,11,2,4,1,5,0,16,7,L,0.2863636363636365,0.15000000000000002,0.14750000000000005,0.16
2,18,36,1,6,1.0200000000000007,6,7,46,89,4,39,3.2299999999999978,0.38000000000000017,0.7500000000000004,0.23000000000000007,9,1,2,2,14,1,3,2,4,0,19,7,L,0.23071428571428582,0.38000000000000017,0.2500000000000001,0.11500000000000002
2,19,37,1,4,0.12999999999999998,4,4,1,45,98,8,9.419999999999847,0.04,0.01,0.09999999999999999,11,1,1,2,21,1,1,2,2,0,19,7,L,0.4485714285714287,0.04,0.01,0.05
2,19,38,1,3,0.6600000000000004,2,3,25,28,59,115,2.6700000000000017,1.0800000000000007,1.350000000000001,0.49000000000000027,5,2,3,2,11,4,6,2,5,0,16,7,L,0.24272727272727282,0.2700000000000001,0.22500000000000006,0.24500000000000005
2,20,39,1,4,0.3100000000000001,2,4,98,3,43,72,1.9800000000000013,1.0500000000000007,1.1000000000000008,1.0800000000000007,4,3,2,2,10,4,2,3,2,0,17,7,L,0.19800000000000006,0.26250000000000007,0.5500000000000003,0.36000000000000015
2,20,40,1,3,1.0400000000000007,2,4,35,96,26,94,3.649999999999989,0.8400000000000005,0.37000000000000016,0.22000000000000006,6,2,3,1,12,4,4,1,5,0,16,7,L,0.3041666666666668,0.21000000000000005,0.09250000000000001,0.22000000000000006
2,21,41,1,12,1.290000000000001,5,7,18,96,45,54,5.199999999999962,0.19000000000000003,0.4400000000000002,0.19000000000000003,9,2,3,1,15,2,4,1,3,0,18,7,L,0.34666666666666685,0.095,0.11000000000000001,0.19000000000000003
2,21,42,1,7,0.4000000000000002,2,3,82,76,83,67,3.239999999999984,0.2700000000000001,0.5200000000000002,0.2800000000000001,5,1,2,2,13,1,3,4,3,0.5,22,7,L,0.2492307692307693,0.2700000000000001,0.17333333333333334,0.07
3,1,1,0,10,0.7900000000000005,2,6,14,59,37,47,15.879999999999724,0.01,0.01,0.01,15,1,1,1,46,1,1,1,6,0,20,7,L,0.345217391304348,0.01,0.01,0.01
3,1,2,0,5,1.480000000000001,2,10,3,1,6,100,3.4000000000000026,10.06999999999983,0.01,0.01,5,12,1,1,16,27,1,1,6,0.5,38,7,L,0.21250000000000008,0.37296296296296316,0.01,0.01
3,2,3,0,7,1.470000000000001,15,19,91,10,65,100,4.579999999999979,1.490000000000001,3.4999999999999694,0.02,18,2,3,1,35,5,8,1,3,0,15,7,L,0.1308571428571429,0.2980000000000001,0.4374999999999994,0.02
3,2,4,0,8,0.6400000000000003,2,5,46,119,20,18,4.779999999999957,0.6300000000000003,0.3300000000000001,1.1000000000000008,6,2,1,2,20,2,1,9,2,0,19,7,L,0.23900000000000007,0.3150000000000001,0.3300000000000001,0.12222222222222225
3,3,5,0,3,1.440000000000001,2,7,42,45,111,116,3.769999999999995,2.399999999999993,1.0600000000000007,0.25000000000000006,4,4,2,1,19,10,3,1,5,0,14,7,L,0.19842105263157903,0.24000000000000007,0.3533333333333335,0.25000000000000006
3,3,6,0,2,0.5900000000000003,2,6,76,20,75,14,4.409999999999963,0.5000000000000002,0.18000000000000002,0.17,7,2,1,1,22,3,1,1,3,0,18,7,L,0.20045454545454552,0.1666666666666667,0.18000000000000002,0.17
3,4,7,0,8,1.6400000000000012,10,14,16,112,22,38,4.469999999999985,0.46000000000000024,0.9800000000000006,0.24000000000000007,13,2,2,1,29,3,4,1,2,0,19,7,L,0.15413793103448278,0.15333333333333335,0.24500000000000005,0.24000000000000007
3,4,8,0,7,0.7600000000000005,2,5,94,95,5,91,4.789999999999959,0.6100000000000003,0.5400000000000003,0.5800000000000003,4,2,2,3,23,4,3,4,3,0.5,24,7,L,0.20826086956521744,0.15250000000000002,0.18000000000000005,0.14500000000000002
3,5,9,0,9,0.7000000000000004,10,11,6,5,4,106,9.599999999999856,1.440000000000001,0.5200000000000002,5.269999999999932,20,3,3,9,51,3,4,13,4,0.5,38,7,L,0.1882352941176471,0.4800000000000003,0.13000000000000003,0.4053846153846156
3,5,10,0,6,0.4100000000000002,2,5,59,50,58,18,2.7299999999999947,1.5300000000000011,0.2900000000000001,0.26000000000000006,4,2,2,1,15,9,2,1,4,0.5,30,7,L,0.18200000000000005,0.17000000000000004,0.14500000000000002,0.26000000000000006
3,6,11,0,7,0.5600000000000003,2,3,85,6,87,120,3.4399999999999826,4.40999999999995,1.500000000000001,0.7400000000000004,7,5,3,2,11,14,4,2,3,0,14,7,L,0.31272727272727285,0.3150000000000001,0.37500000000000017,0.37000000000000016
3,6,12,0,2,0.9200000000000006,5,7,41,73,74,44,3.839999999999982,2.0799999999999996,0.4100000000000002,1.450000000000001,8,8,3,3,15,8,4,4,3,0,16,7,L,0.2560000000000001,0.2600000000000001,0.10250000000000001,0.36250000000000016
3,7,13,1,6,0.8500000000000005,2,5,51,4,36,96,5.349999999999949,1.7100000000000013,0.49000000000000027,0.13999999999999999,7,4,2,1,17,7,2,1,4,0,18,7,L,0.31470588235294134,0.24428571428571436,0.2450000000000001,0.13999999999999999
3,7,14,1,14,0.8400000000000005,2,6,43,23,115,65,4.259999999999971,1.2000000000000008,0.47000000000000025,0.49000000000000027,4,2,2,1,18,2,3,1,5,0,17,7,L,0.23666666666666675,0.6000000000000004,0.15666666666666668,0.49000000000000027
3,8,15,1,15,0.5200000000000002,2,6,21,43,71,111,4.699999999999956,0.5400000000000003,0.09999999999999999,0.9500000000000006,6,2,1,2,18,2,1,4,4,0,17,7,L,0.26111111111111124,0.27000000000000013,0.09999999999999999,0.2375000000000001
3,8,16,1,3,1.5800000000000012,17,21,54,4,95,28,5.939999999999952,0.3000000000000001,0.4300000000000002,0.12999999999999998,20,1,2,1,43,1,3,2,5,0,18,7,L,0.13813953488372097,0.3000000000000001,0.14333333333333337,0.06499999999999999
3,9,17,1,12,0.6900000000000004,12,12,6,93,8,29,8.86999999999987,0.02,0.6700000000000004,0.5600000000000003,20,1,3,2,41,1,3,2,3,0,20,7,L,0.21634146341463423,0.02,0.2233333333333334,0.2800000000000001
3,9,18,1,11,0.6400000000000003,2,3,118,50,42,56,3.929999999999974,1.5700000000000012,0.21000000000000005,0.15,6,2,2,1,11,8,2,1,2,0,15,7,L,0.3572727272727274,0.19625000000000004,0.10500000000000002,0.15
3,10,19,1,4,0.24000000000000007,2,3,102,97,2,4,1.580000000000001,1.7600000000000013,1.2400000000000009,0.24000000000000007,4,2,2,2,10,7,4,3,2,0,16,7,L,0.15800000000000006,0.2514285714285715,0.3100000000000001,0.08
3,10,20,1,13,0.6200000000000003,2,3,91,16,15,14,3.889999999999975,0.8400000000000005,3.00999999999998,2.339999999999994,5,2,6,6,12,4,7,11,6,0.5,39,7,L,0.3241666666666668,0.21000000000000002,0.4300000000000002,0.2127272727272728
3,11,21,1,11,0.4000000000000002,4,4,16,35,109,22,6.73999999999991,0.060000000000000005,0.22000000000000006,0.11999999999999998,10,1,3,1,24,1,3,1,2,0,19,7,L,0.28083333333333343,0.060000000000000005,0.07333333333333333,0.11999999999999998
3,11,22,1,14,0.8000000000000005,3,5,37,43,56,60,3.759999999999981,0.6900000000000004,0.8200000000000005,0.19000000000000003,7,2,5,2,15,3,7,2,5,0,18,7,L,0.25066666666666676,0.23000000000000007,0.11714285714285715,0.095
3,12,23,1,10,0.2700000000000001,2,4,10,11,1,8,2.1800000000000015,1.6900000000000013,8.129999999999871,0.19000000000000003,4,5,13,2,10,11,29,2,6,1,72,7,L,0.21800000000000008,0.15363636363636368,0.280344827586207,0.09500000000000001
3,12,24,1,6,2.2799999999999954,12,16,40,42,20,113,5.06999999999998,0.22000000000000006,0.7800000000000005,1.290000000000001,16,1,3,2,30,1,5,5,4,0,18,7,L,0.16900000000000004,0.22000000000000006,0.15600000000000006,0.25800000000000006
3,13,25,1,13,0.4300000000000002,2,5,13,17,113,109,3.6999999999999744,25.890000000001248,0.19000000000000003,0.01,4,18,2,1,18,91,2,1,6,0,16,7,L,0.20555555555555563,0.2845054945054946,0.09500000000000001,0.01
3,13,26,1,4,0.5800000000000003,3,5,103,11,101,10,3.1599999999999895,1.2000000000000008,0.3000000000000001,0.9500000000000006,7,5,1,5,15,8,1,6,2,0,16,7,L,0.21066666666666672,0.15000000000000005,0.3000000000000001,0.15833333333333338
3,14,27,1,3,0.3300000000000001,2,3,34,25,112,119,2.5699999999999963,0.9800000000000006,1.350000000000001,0.2700000000000001,6,2,3,2,11,5,7,2,5,0,14,7,L,0.23363636363636373,0.19600000000000004,0.19285714285714292,0.13500000000000004
3,14,28,1,12,0.8200000000000005,13,14,52,85,94,42,3.5899999999999856,1.6100000000000012,0.35000000000000014,0.7000000000000004,16,3,3,1,20,7,3,1,3,0,15,7,L,0.17950000000000008,0.23000000000000007,0.11666666666666668,0.7000000000000004
3,15,29,1,4,0.37000000000000016,2,3,107,23,42,97,2.44,2.9799999999999804,1.5300000000000011,0.04,6,4,3,1,9,11,6,1,2,0,15,7,L,0.27111111111111125,0.270909090909091,0.25500000000000006,0.04
3,15,30,1,7,1.280000000000001,2,9,30,33,75,111,4.169999999999983,0.6100000000000003,0.16,0.7600000000000005,4,2,1,2,19,4,1,4,3,0,15,7,L,0.2194736842105264,0.15250000000000002,0.16,0.19000000000000003
3,16,31,1,6,0.7800000000000005,3,6,53,54,117,35,2.580000000000002,0.38000000000000017,2.0799999999999996,0.7100000000000004,6,2,3,3,13,3,7,3,4,0,15,7,L,0.19846153846153852,0.12666666666666668,0.29714285714285726,0.23666666666666675
3,16,32,1,4,0.8700000000000006,2,10,100,101,104,14,10.909999999999831,0.02,2.6499999999999875,2.9199999999999817,11,1,4,9,42,1,4,11,2,0.5,18,7,L,0.25976190476190486,0.02,0.6625000000000004,0.2654545454545456
3,17,33,1,10,0.4400000000000002,2,3,3,108,54,58,18.099999999999962,0.01,0.01,0.02,19,1,1,1,60,1,1,1,6,0,16,7,L,0.3016666666666668,0.01,0.01,0.02
3,17,34,1,11,1.2400000000000009,4,6,35,28,113,33,4.459999999999976,0.4000000000000002,0.3200000000000001,0.5700000000000003,8,2,1,2,16,2,1,3,2,0.5,32,7,L,0.2787500000000001,0.20000000000000007,0.3200000000000001,0.19000000000000006
3,18,35,1,12,0.47000000000000025,3,5,89,110,39,13,5.999999999999927,0.2800000000000001,0.2700000000000001,1.6600000000000013,11,1,1,4,23,1,1,5,3,0,16,7,L,0.2608695652173914,0.2800000000000001,0.2700000000000001,0.3320000000000002
3,18,36,1,4,1.7200000000000013,10,17,102,105,12,101,3.450000000000003,0.7600000000000005,0.45000000000000023,0.22000000000000006,12,2,2,2,25,3,3,3,2,0.5,18,7,L,0.13800000000000004,0.2533333333333334,0.15000000000000002,0.07333333333333333
3,19,37,1,15,0.6300000000000003,2,4,38,116,61,42,6.319999999999924,0.23000000000000007,0.2700000000000001,0.09999999999999999,8,1,2,1,25,1,2,1,4,0,16,7,L,0.2528000000000001,0.23000000000000007,0.135,0.09999999999999999
3,19,38,1,6,0.17,2,4,49,51,53,29,2.1500000000000017,0.18000000000000002,2.7899999999999845,2.0400000000000005,7,1,11,7,12,1,13,9,4,0.5,29,7,L,0.17916666666666675,0.18000000000000002,0.2146153846153847,0.22666666666666677
3,20,39,1,15,0.6200000000000003,2,3,91,6,64,98,7.229999999999904,1.7300000000000013,0.37000000000000016,0.46000000000000024,12,6,4,3,19,7,4,3,4,0,15,7,L,0.3805263157894739,0.24714285714285722,0.0925,0.1533333333333334
3,20,40,1,11,0.9400000000000006,2,7,120,21,109,114,5.329999999999951,0.5700000000000003,0.5800000000000003,0.5600000000000003,9,2,2,5,19,2,2,8,2,0.5,18,7,L,0.2805263157894738,0.2850000000000001,0.2900000000000001,0.06999999999999999
3,21,41,1,7,0.5300000000000002,3,4,81,109,112,11,2.7299999999999973,2.389999999999993,0.6000000000000003,0.5700000000000003,5,5,2,2,13,14,3,3,3,0,13,7,L,0.21000000000000008,0.17071428571428576,0.20000000000000004,0.19000000000000006
3,21,42,1,15,2.159999999999998,7,11,64,65,71,94,3.6599999999999993,1.2400000000000009,0.8900000000000006,0.45000000000000023,10,2,3,1,15,2,3,1,4,0.5,27,7,L,0.2440000000000001,0.6200000000000003,0.2966666666666668,0.45000000000000023
4,1,1,0,4,0.9600000000000006,2,7,7,2,41,39,4.399999999999971,0.47000000000000025,0.12999999999999998,1.5100000000000011,6,2,1,4,16,3,1,4,2,0,22,7,L,0.27500000000000013,0.1566666666666667,0.12999999999999998,0.3775000000000002
4,1,2,0,8,0.5600000000000003,2,5,109,120,87,92,2.2600000000000016,0.7800000000000005,0.5700000000000003,0.37000000000000016,4,2,2,2,8,4,2,2,2,0,10,7,L,0.28250000000000014,0.19500000000000006,0.28500000000000014,0.18500000000000005
4,2,3,0,5,1.0000000000000007,2,7,101,2,27,76,10.829999999999835,0.5200000000000002,0.01,0.01,15,2,1,1,31,2,1,1,6,0,16,7,L,0.3493548387096776,0.2600000000000001,0.01,0.01
4,2,4,0,6,0.7300000000000004,5,6,47,50,89,109,2.959999999999997,0.35000000000000014,1.0700000000000007,0.38000000000000017,7,1,2,2,13,1,5,3,4,0,14,7,L,0.22769230769230778,0.35000000000000014,0.21400000000000005,0.12666666666666668
4,3,5,0,2,0.2800000000000001,2,4,3,103,34,30,14.199999999999747,0.01,0.01,0.01,15,1,1,1,29,1,1,1,3,0,18,7,L,0.4896551724137934,0.01,0.01,0.01
4,3,6,0,9,0.8600000000000005,11,13,65,67,39,87,1.9200000000000013,0.5600000000000003,0.7000000000000004,6.559999999999905,13,1,2,4,15,1,4,10,4,0,16,7,L,0.12800000000000003,0.5600000000000003,0.17500000000000004,0.6559999999999978
4,4,7,0,4,0.5700000000000003,2,3,104,30,10,6,2.0900000000000016,1.0000000000000007,0.7100000000000004,0.3200000000000001,4,2,2,2,9,3,3,2,2,0,19,7,L,0.2322222222222223,0.3333333333333335,0.23666666666666672,0.16
4,4,8,0,7,0.5800000000000003,2,4,46,37,110,88,3.0099999999999927,0.37000000000000016,2.3699999999999934,0.03,7,3,6,1,12,3,6,1,3,0,15,7,L,0.2508333333333334,0.12333333333333336,0.3950000000000002,0.03
4,5,9,0,1,0.4300000000000002,2,4,21,14,86,35,5.299999999999941,1.8000000000000014,0.02,0.01,9,3,1,1,17,3,1,1,5,0,20,7,L,0.3117647058823531,0.6000000000000003,0.02,0.01
4,5,10,0,8,0.6600000000000004,11,11,120,70,114,83,1.8800000000000012,3.839999999999962,0.02,3.1699999999999764,12,6,1,7,12,7,1,8,2,0,11,7,L,0.15666666666666673,0.5485714285714288,0.02,0.3962500000000002
4,6,11,0,4,0.22000000000000006,2,4,14,25,26,85,26.790000000001353,0.01,0.01,0.01,20,1,1,1,65,1,1,1,2,0,19,7,L,0.41215384615384637,0.01,0.01,0.01
4,6,12,0,8,0.37000000000000016,5,5,118,4,2,43,3.759999999999972,5.1099999999999355,2.719999999999986,0.01,8,7,7,1,12,10,7,1,2,0,19,7,L,0.3133333333333335,0.5110000000000003,0.3885714285714286,0.01
4,7,13,1,15,0.48000000000000026,7,7,10,6,107,93,3.689999999999976,0.6900000000000004,2.9399999999999813,0.16,11,2,4,2,13,2,9,2,4,0,17,7,L,0.28384615384615397,0.34500000000000014,0.3266666666666668,0.08
4,7,14,1,13,0.8300000000000005,11,12,18,77,74,22,3.159999999999995,0.8300000000000005,0.7700000000000005,0.13999999999999999,13,1,2,2,20,1,2,2,6,0,18,7,L,0.15800000000000006,0.8300000000000005,0.3850000000000002,0.06999999999999999
4,8,15,1,11,0.5000000000000002,2,3,118,22,55,31,1.7800000000000011,1.450000000000001,1.1100000000000008,1.260000000000001,4,3,1,3,7,5,1,5,2,0,17,7,L,0.2542857142857144,0.2900000000000001,1.1100000000000008,0.2520000000000001
4,8,16,1,12,0.7600000000000005,2,5,85,47,70,99,2.4700000000000015,0.7000000000000004,1.0600000000000007,0.3900000000000002,5,2,2,2,9,3,2,2,3,0,14,7,L,0.27444444444444455,0.23333333333333342,0.5300000000000002,0.19500000000000003
4,9,17,1,6,0.7100000000000004,15,16,52,96,44,88,1.9600000000000013,1.8200000000000014,0.2900000000000001,0.4000000000000002,17,4,1,2,19,8,1,2,4,0,15,7,L,0.10315789473684214,0.22750000000000006,0.2900000000000001,0.20000000000000004
4,9,18,1,3,0.46000000000000024,2,5,36,35,118,70,2.1600000000000015,0.8200000000000005,0.5100000000000002,0.8800000000000006,4,2,2,4,10,5,2,6,5,0,16,7,L,0.21600000000000008,0.16400000000000003,0.2550000000000001,0.14666666666666672
4,10,19,1,4,1.2200000000000009,14,16,27,29,98,81,2.4800000000000018,1.6800000000000013,0.19000000000000003,2.1799999999999975,16,2,2,6,19,2,3,7,2,0,15,7,L,0.13052631578947374,0.8400000000000005,0.06333333333333334,0.31142857142857155
4,10,20,1,13,0.5300000000000002,2,5,39,22,94,17,4.3399999999999626,1.6300000000000012,0.060000000000000005,0.02,6,3,1,1,10,5,1,1,6,0,20,7,L,0.4340000000000001,0.3260000000000002,0.060000000000000005,0.02
4,11,21,1,6,0.47000000000000025,2,3,96,56,28,58,4.41999999999996,0.04,0.02,0.07,7,1,1,1,8,1,1,1,4,0,16,7,L,0.5525000000000003,0.04,0.02,0.07
4,11,22,1,10,0.6600000000000004,7,8,11,10,8,105,2.9199999999999964,1.2400000000000009,3.799999999999963,3.5399999999999685,9,2,5,6,13,5,8,10,6,0.5,38,7,L,0.2246153846153847,0.2480000000000001,0.47500000000000026,0.3540000000000002
4,12,23,1,4,0.5900000000000003,2,5,101,50,12,105,1.520000000000001,1.1700000000000008,0.8500000000000005,1.2200000000000009,4,2,2,3,7,2,2,3,2,0,14,7,L,0.21714285714285725,0.5850000000000003,0.4250000000000002,0.40666666666666695
4,12,24,1,13,0.47000000000000025,3,4,23,18,71,65,2.9799999999999907,0.26000000000000006,0.8700000000000006,0.8700000000000006,6,1,3,1,11,1,3,1,6,0,20,7,L,0.27090909090909104,0.26000000000000006,0.2900000000000001,0.8700000000000006
4,13,25,1,6,0.7500000000000004,1,2,52,7,55,54,2.8599999999999994,2.3799999999999932,0.08,0.09,4,4,1,1,8,6,1,1,4,0.5,30,7,L,0.35750000000000015,0.39666666666666683,0.08,0.09
4,13,26,1,14,0.5400000000000003,2,3,80,66,22,16,3.419999999999983,0.4400000000000002,0.8400000000000005,0.05,5,1,2,1,10,1,5,1,5,0,19,7,L,0.3420000000000002,0.4400000000000002,0.168,0.05
4,14,27,1,3,2.2199999999999966,13,19,81,22,26,14,5.499999999999971,0.08,0.6300000000000003,0.2700000000000001,19,1,3,2,25,1,4,2,5,0,20,7,L,0.22000000000000008,0.08,0.15750000000000003,0.13500000000000004
4,14,28,1,14,0.9400000000000006,14,14,6,45,56,5,2.8900000000000023,2.239999999999996,0.8500000000000005,1.0100000000000007,17,4,3,4,19,5,5,4,5,0,21,7,L,0.1521052631578948,0.44800000000000023,0.17000000000000007,0.2525000000000001
4,15,29,1,3,0.36000000000000015,3,4,25,13,24,16,1.730000000000001,0.7200000000000004,0.6200000000000003,0.2900000000000001,5,2,2,2,10,2,2,3,5,0.5,41,7,L,0.17300000000000004,0.3600000000000002,0.3100000000000001,0.09666666666666665
4,15,30,1,15,0.9600000000000006,2,7,72,62,11,63,2.3400000000000016,0.6100000000000003,0.7100000000000004,0.19000000000000003,5,2,2,1,12,3,2,1,4,0.5,30,7,L,0.19500000000000006,0.20333333333333342,0.35500000000000015,0.19000000000000003
4,16,31,1,6,0.6800000000000004,2,4,104,59,50,2,3.119999999999992,0.4300000000000002,0.10999999999999999,0.22000000000000006,4,3,1,1,7,4,1,1,4,0,16,7,L,0.44571428571428595,0.10750000000000001,0.10999999999999999,0.22000000000000006
4,16,32,1,11,0.6800000000000004,7,8,120,77,40,114,2.530000000000002,1.2000000000000008,1.9300000000000015,0.15,9,3,3,1,14,4,7,1,2,0,12,7,L,0.18071428571428577,0.30000000000000016,0.27571428571428586,0.15
4,17,33,1,11,0.7400000000000004,3,5,118,16,53,110,2.110000000000001,114.3600000000216,0.03,0.01,5,19,1,1,9,274,1,1,2,0,14,7,L,0.2344444444444445,0.4173722627737228,0.03,0.01
4,17,34,1,4,1.420000000000001,13,16,105,6,41,47,4.419999999999981,0.5100000000000002,0.25000000000000006,0.060000000000000005,17,3,2,1,23,4,2,1,2,0,18,7,L,0.19217391304347833,0.12750000000000003,0.12500000000000003,0.060000000000000005
4,18,35,1,7,0.49000000000000027,2,3,10,67,80,66,2.2200000000000015,0.6900000000000004,0.19000000000000003,0.3000000000000001,4,2,1,1,8,2,1,1,3,0,17,7,L,0.2775000000000001,0.34500000000000014,0.19000000000000003,0.3000000000000001
4,18,36,1,12,4.589999999999947,6,12,86,90,13,16,5.209999999999947,0.6800000000000004,0.35000000000000014,0.9100000000000006,8,2,1,3,14,2,1,5,3,0,18,7,L,0.37214285714285733,0.3400000000000002,0.35000000000000014,0.18200000000000002
4,19,37,1,4,1.1500000000000008,16,20,106,43,67,107,2.580000000000002,1.2200000000000009,0.3900000000000002,0.5100000000000002,18,3,1,2,25,4,1,2,2,0,13,7,L,0.10320000000000003,0.3050000000000001,0.3900000000000002,0.2550000000000001
4,19,38,1,11,0.9300000000000006,2,6,21,90,92,28,2.780000000000002,1.300000000000001,0.38000000000000017,0.6200000000000003,4,3,1,2,11,5,1,2,2,0,17,7,L,0.2527272727272728,0.26000000000000006,0.38000000000000017,0.3100000000000001
4,20,39,1,4,1.0500000000000007,12,14,98,103,44,92,2.2800000000000016,2.020000000000001,1.260000000000001,0.02,15,3,3,1,18,6,5,1,2,0,12,7,L,0.1266666666666667,0.33666666666666684,0.2520000000000001,0.02
4,20,40,1,11,0.8600000000000005,3,7,114,31,60,26,3.609999999999986,1.7300000000000013,0.25000000000000006,0.6400000000000003,6,3,1,2,18,4,1,2,2,0,16,7,L,0.20055555555555563,0.4325000000000002,0.25000000000000006,0.3200000000000002
5,1,1,0,4,0.6600000000000004,2,3,102,106,90,5,1.8100000000000012,0.3000000000000001,0.6100000000000003,0.9700000000000006,4,1,1,2,6,1,1,5,2,0,13,7,L,0.30166666666666675,0.3000000000000001,0.6100000000000003,0.19400000000000006
5,1,2,0,6,0.6300000000000003,2,3,54,58,84,50,1.1800000000000006,0.8600000000000005,2.5099999999999905,0.5400000000000003,3,1,2,2,4,1,4,5,4,0.5,27,7,L,0.2950000000000001,0.8600000000000005,0.6275000000000004,0.10800000000000001
5,2,3,0,7,0.18000000000000002,2,3,109,86,116,90,3.6899999999999693,8.379999999999866,0.48000000000000026,0.09,5,3,2,1,8,7,2,1,3,0,10,7,L,0.4612499999999998,1.1971428571428506,0.2400000000000001,0.09
5,2,4,0,2,0.6700000000000004,2,7,75,76,98,99,1.1300000000000006,1.350000000000001,0.03,0.46000000000000024,3,2,1,1,8,4,1,1,3,0,10,7,L,0.14125000000000004,0.33750000000000013,0.03,0.46000000000000024
5,3,5,0,1,0.4100000000000002,2,3,26,25,60,96,2.2200000000000015,0.5000000000000002,0.10999999999999999,3.749999999999964,4,2,1,2,7,2,1,9,5,0,17,7,L,0.3171428571428573,0.25000000000000006,0.10999999999999999,0.41666666666666685
5,3,6,0,5,0.16,2,2,4,12,109,48,0.8500000000000004,0.02,2.4099999999999926,0.5300000000000002,3,1,3,1,3,1,4,1,6,0,19,7,L,0.28333333333333344,0.02,0.6025000000000004,0.5300000000000002
5,4,7,0,9,0.3900000000000002,2,4,7,61,115,63,1.580000000000001,0.19000000000000003,0.7600000000000005,0.2700000000000001,3,1,1,1,5,1,1,1,4,0,16,7,L,0.31600000000000017,0.19000000000000003,0.7600000000000005,0.2700000000000001
5,4,8,0,4,0.3900000000000002,2,3,105,34,107,108,1.1900000000000006,1.8700000000000014,0.21000000000000005,0.8200000000000005,4,2,1,2,6,5,1,3,2,0.5,17,7,L,0.19833333333333342,0.37400000000000017,0.21000000000000005,0.27333333333333343
5,5,9,0,9,0.4300000000000002,2,4,71,63,3,38,1.1400000000000006,0.35000000000000014,1.430000000000001,0.9500000000000006,3,1,1,2,5,1,1,4,4,0,19,7,L,0.2280000000000001,0.35000000000000014,1.430000000000001,0.23750000000000013
5,5,10,0,6,0.5500000000000003,2,3,53,54,88,36,1.2600000000000007,0.25000000000000006,1.6000000000000012,3.749999999999964,3,1,2,2,4,1,6,2,4,0,16,7,L,0.3150000000000001,0.25000000000000006,0.2666666666666668,1.8749999999999984
5,6,11,0,5,0.5500000000000003,4,5,4,1,9,65,1.2300000000000006,0.7300000000000004,1.0500000000000007,0.5700000000000003,7,2,2,2,9,4,2,2,6,0.5,40,7,L,0.1366666666666667,0.18250000000000008,0.5250000000000002,0.28500000000000014
5,6,12,0,7,0.47000000000000025,1,2,94,20,60,58,2.2400000000000015,0.8700000000000006,0.21000000000000005,0.6000000000000003,3,2,1,2,4,3,1,2,3,0,17,7,L,0.5600000000000004,0.2900000000000001,0.21000000000000005,0.3000000000000001
5,7,13,1,14,0.5200000000000002,2,3,47,96,44,24,1.4600000000000009,1.0600000000000007,0.4000000000000002,1.0900000000000007,4,2,1,2,7,2,1,3,5,0,19,7,L,0.20857142857142863,0.5300000000000002,0.4000000000000002,0.3633333333333335
5,7,14,1,11,0.5000000000000002,2,3,111,5,29,3,2.110000000000001,0.38000000000000017,1.0900000000000007,0.46000000000000024,4,1,2,1,5,1,3,1,2,0,19,7,L,0.4220000000000002,0.38000000000000017,0.3633333333333335,0.46000000000000024
5,8,15,1,11,0.5900000000000003,2,4,111,73,72,3,2.3000000000000016,0.2700000000000001,1.320000000000001,0.25000000000000006,4,1,2,1,6,1,4,1,2,0,15,7,L,0.3833333333333335,0.2700000000000001,0.3300000000000001,0.25000000000000006
5,8,16,1,12,1.1800000000000008,16,16,89,96,45,85,4.559999999999973,0.7900000000000005,3.329999999999973,0.01,18,2,3,1,21,2,5,1,3,0.5,23,7,L,0.2171428571428568,0.3950000000000002,0.6660000000000005,0.01
5,9,17,1,4,0.4300000000000002,2,4,105,32,10,86,1.0100000000000005,1.6700000000000013,0.6800000000000004,0.6900000000000004,4,1,1,1,6,1,1,1,2,0,16,7,L,0.16833333333333336,1.6700000000000013,0.6800000000000004,0.6900000000000004
5,9,18,1,15,0.5600000000000003,2,3,37,111,14,44,2.819999999999996,0.5600000000000003,1.2500000000000009,0.03,4,2,2,1,8,3,2,1,4,0,18,7,L,0.35250000000000015,0.1866666666666667,0.6250000000000003,0.03
5,10,19,1,15,0.5200000000000002,3,6,69,119,61,17,1.0200000000000005,1.9500000000000015,0.3900000000000002,0.8100000000000005,4,3,2,2,7,4,2,4,4,0,16,7,L,0.14571428571428574,0.48750000000000027,0.195,0.20250000000000004
5,10,20,1,4,0.25000000000000006,2,3,108,99,106,7,0.5300000000000001,0.46000000000000024,0.8500000000000005,0.6700000000000004,3,1,2,2,4,2,2,3,2,0.5,18,7,L,0.1325,0.2300000000000001,0.4250000000000002,0.2233333333333334
5,11,21,1,6,0.8200000000000005,2,3,49,8,45,56,1.7600000000000011,1.5600000000000012,0.8300000000000005,1.2200000000000009,4,2,2,5,7,4,3,5,4,0,19,7,L,0.2514285714285715,0.3900000000000002,0.2766666666666668,0.2440000000000001
5,11,22,1,13,0.46000000000000024,2,5,16,87,61,34,1.700000000000001,0.35000000000000014,0.7900000000000005,2.0899999999999994,4,1,2,3,9,1,2,5,6,0,18,7,L,0.18888888888888894,0.35000000000000014,0.39500000000000024,0.4180000000000002
5,12,23,1,6,0.6400000000000003,2,3,49,57,110,36,1.580000000000001,0.6400000000000003,1.9500000000000015,0.15,4,1,1,1,5,1,1,1,4,0,15,7,L,0.3160000000000001,0.6400000000000003,1.9500000000000015,0.15
5,12,24,1,15,0.5400000000000003,2,3,64,85,22,61,1.1200000000000006,4.339999999999952,0.15,0.09,4,3,1,1,5,5,1,1,4,0,17,7,L,0.2240000000000001,0.8679999999999958,0.15,0.09
5,13,25,1,13,1.0800000000000007,2,3,15,18,31,27,2.2300000000000013,0.48000000000000026,0.6400000000000003,10.49999999999982,3,1,2,4,4,1,2,18,6,0,22,7,L,0.5575000000000003,0.48000000000000026,0.3200000000000001,0.5833333333333337
5,13,26,1,4,0.4300000000000002,3,4,104,47,95,5,0.9300000000000004,0.5400000000000003,0.4400000000000002,0.9800000000000006,5,1,1,1,8,1,1,1,2,0,16,7,L,0.11625,0.5400000000000003,0.4400000000000002,0.9800000000000006
5,14,27,1,13,0.5800000000000003,2,3,20,120,70,14,1.510000000000001,3.699999999999965,10.02999999999983,0.01,4,3,5,1,5,6,16,1,6,0,18,7,L,0.30200000000000016,0.616666666666667,0.6268750000000004,0.01
5,14,28,1,4,0.4000000000000002,3,4,103,97,60,41,1.0200000000000005,0.37000000000000016,1.6100000000000012,0.18000000000000002,4,1,2,1,5,1,3,1,2,0,13,7,L,0.20400000000000007,0.37000000000000016,0.536666666666667,0.18000000000000002
5,15,29,1,3,0.5400000000000003,2,3,36,57,49,107,1.3500000000000008,0.4300000000000002,0.3200000000000001,0.5900000000000003,4,2,1,2,5,3,1,3,5,0,15,7,L,0.27000000000000013,0.14333333333333337,0.3200000000000001,0.1966666666666667
5,15,30,1,11,0.4000000000000002,2,3,110,109,65,38,1.0000000000000004,0.7300000000000004,1.450000000000001,0.9400000000000006,4,2,1,3,5,3,1,4,2,0,13,7,L,0.20000000000000004,0.2433333333333334,1.450000000000001,0.23500000000000007
5,16,31,1,13,0.3200000000000001,2,3,23,55,24,13,1.4900000000000009,1.1500000000000008,0.7700000000000005,0.8500000000000005,4,3,2,2,5,3,2,2,6,0.5,40,7,L,0.29800000000000015,0.3833333333333335,0.3850000000000002,0.4250000000000002
5,16,32,1,7,0.36000000000000015,2,3,74,4,42,97,1.1700000000000006,1.0500000000000007,0.8900000000000006,2.5099999999999905,4,2,1,2,5,3,1,3,3,0,16,7,L,0.23400000000000007,0.3500000000000002,0.8900000000000006,0.8366666666666646
5,17,33,1,10,0.7300000000000004,2,3,10,9,7,40,1.4900000000000009,0.6600000000000004,0.01,0.6700000000000004,3,2,1,2,4,2,1,2,6,0.5,41,7,L,0.37250000000000016,0.3300000000000001,0.01,0.33500000000000013
5,17,34,1,12,0.3000000000000001,2,3,85,28,34,88,2.2400000000000015,0.8700000000000006,0.2700000000000001,4.519999999999948,4,2,1,6,7,2,1,6,3,0,16,7,L,0.3200000000000002,0.4350000000000002,0.2700000000000001,0.7533333333333339
5,18,35,1,7,0.5100000000000002,2,3,81,26,79,106,1.4400000000000008,1.0000000000000007,0.4100000000000002,0.04,4,2,2,1,5,4,2,1,3,0,13,7,L,0.28800000000000014,0.2500000000000001,0.20500000000000002,0.04
5,18,36,1,14,0.10999999999999999,2,3,46,44,115,52,4.339999999999955,2.4099999999999926,4.4499999999999496,0.5600000000000003,6,2,3,2,16,7,4,2,5,0,16,7,L,0.2712500000000001,0.3442857142857145,1.1124999999999972,0.2800000000000001
5,19,37,1,15,0.17,2,2,70,74,103,83,5.569999999999929,4.4499999999999496,0.45000000000000023,1.2300000000000009,5,4,2,2,10,7,2,2,4,0,12,7,L,0.5570000000000004,0.6357142857142861,0.22500000000000012,0.6150000000000004
5,19,38,1,11,0.34000000000000014,2,3,110,112,44,42,0.9600000000000004,0.38000000000000017,0.3900000000000002,2.3099999999999947,3,1,1,3,4,1,1,3,2,0,14,7,L,0.2400000000000001,0.38000000000000017,0.3900000000000002,0.7700000000000005
5,20,39,1,15,1.370000000000001,4,6,69,74,47,5,2.2500000000000018,2.6999999999999864,1.9200000000000015,0.7200000000000004,6,2,3,2,10,4,4,2,4,0,18,7,L,0.2250000000000001,0.6750000000000004,0.48000000000000026,0.36000000000000015
5,20,40,1,3,1.1200000000000008,5,9,35,15,13,112,1.8100000000000012,0.16,0.7400000000000004,0.5800000000000003,7,1,2,1,11,1,3,1,5,0,19,7,L,0.16454545454545458,0.16,0.24666666666666678,0.5800000000000003
5,21,41,1,10,2.629999999999988,12,16,4,1,6,44,2.819999999999988,11.169999999999806,7.049999999999894,0.5700000000000003,13,3,7,2,17,18,12,2,6,0.5,41,7,L,0.1658823529411765,0.6205555555555559,0.5875000000000004,0.2850000000000001
5,21,42,1,6,0.18000000000000002,2,3,57,59,30,105,0.7600000000000003,0.060000000000000005,0.8200000000000005,0.4200000000000002,4,1,2,1,5,1,4,1,4,0,15,7,L,0.15200000000000005,0.060000000000000005,0.20500000000000007,0.4200000000000002
6,1,1,0,5,0.6400000000000003,2,4,1,120,110,44,1.8000000000000012,0.11999999999999998,0.6100000000000003,0.17,4,1,1,1,6,1,1,1,6,0,15,7,L,0.3000000000000001,0.11999999999999998,0.6100000000000003,0.17
6,1,2,0,9,0.4200000000000002,2,3,64,94,22,106,0.8800000000000004,0.49000000000000027,0.8000000000000005,0.20000000000000004,4,1,1,1,5,1,1,1,4,0,15,7,L,0.17600000000000002,0.49000000000000027,0.8000000000000005,0.20000000000000004
6,2,3,0,1,0.47000000000000025,6,7,34,55,117,82,1.1700000000000006,0.8200000000000005,0.8600000000000005,1.0100000000000007,8,2,2,2,10,2,2,4,5,0,14,7,L,0.11700000000000002,0.4100000000000002,0.4300000000000002,0.25250000000000006
6,2,4,0,9,0.5000000000000002,2,3,62,100,16,21,0.9400000000000004,0.8400000000000005,0.6600000000000004,0.10999999999999999,4,2,2,1,5,2,2,1,4,0,18,7,L,0.18800000000000006,0.42000000000000015,0.3300000000000001,0.10999999999999999
6,3,5,0,2,0.6200000000000003,6,7,81,116,29,79,1.8100000000000012,0.05,0.5500000000000003,0.15,8,1,1,1,11,1,1,1,3,0,13,7,L,0.16454545454545458,0.05,0.5500000000000003,0.15
6,3,6,0,3,0.49000000000000027,2,3,46,38,100,89,1.2500000000000007,0.2800000000000001,0.7500000000000004,0.21000000000000005,4,1,2,1,5,1,2,1,5,0,15,7,L,0.25000000000000006,0.2800000000000001,0.3750000000000001,0.21000000000000005
6,4,7,0,2,0.46000000000000024,7,7,78,81,48,50,1.1000000000000005,0.17,0.5700000000000003,5.789999999999921,9,1,1,3,10,1,1,4,3,0,15,7,L,0.11000000000000003,0.17,0.5700000000000003,1.4474999999999956
6,4,8,0,1,0.5300000000000002,2,3,94,27,97,30,1.600000000000001,0.19000000000000003,0.3100000000000001,0.12999999999999998,3,1,2,1,4,1,2,1,5,0,15,7,L,0.4000000000000002,0.19000000000000003,0.15500000000000003,0.12999999999999998
6,5,9,0,6,0.6600000000000004,8,8,112,45,47,23,10.919999999999826,1.1800000000000008,0.01,6.069999999999915,12,2,1,4,20,2,1,5,4,0,18,7,L,0.5459999999999995,0.5900000000000004,0.01,1.214
6,5,10,0,2,0.3100000000000001,2,3,78,34,100,107,0.9600000000000004,0.5100000000000002,6.6599999999999024,3.47999999999997,4,1,6,3,5,1,6,3,3,0,12,7,L,0.19200000000000006,0.5100000000000002,1.11,1.1599999999999984
6,6,11,0,9,0.2700000000000001,2,3,72,71,99,101,0.5300000000000001,1.5200000000000011,0.11999999999999998,0.20000000000000004,3,3,1,1,4,3,1,1,4,0,12,7,L,0.1325,0.5066666666666669,0.11999999999999998,0.20000000000000004
6,6,12,0,10,0.7400000000000004,7,9,20,41,17,79,1.1700000000000006,0.5000000000000002,0.20000000000000004,1.0000000000000007,9,2,1,2,11,2,1,2,6,0,20,7,L,0.10636363636363638,0.2500000000000001,0.20000000000000004,0.5000000000000003
6,7,13,1,12,0.5000000000000002,2,4,111,92,88,113,1.4500000000000008,0.25000000000000006,0.5100000000000002,0.21000000000000005,3,1,2,1,5,1,2,1,3,0,10,7,L,0.29000000000000015,0.25000000000000006,0.25500000000000006,0.21000000000000005
6,7,14,1,7,0.4300000000000002,2,3,82,108,66,62,0.9500000000000004,0.8700000000000006,0.4300000000000002,0.3100000000000001,4,1,1,1,6,1,1,1,3,0,13,7,L,0.15833333333333335,0.8700000000000006,0.4300000000000002,0.3100000000000001
6,8,15,1,6,1.0300000000000007,19,20,55,56,49,58,1.520000000000001,0.34000000000000014,0.3000000000000001,0.11999999999999998,20,2,1,1,21,2,1,1,4,1,48,7,L,0.07238095238095239,0.17000000000000004,0.3000000000000001,0.11999999999999998
6,8,16,1,15,0.4400000000000002,2,3,68,71,62,12,1.5000000000000009,0.3300000000000001,0.4200000000000002,0.2800000000000001,4,1,2,1,5,1,2,1,4,0.5,30,7,L,0.3000000000000001,0.3300000000000001,0.21000000000000005,0.2800000000000001
6,9,17,1,13,0.36000000000000015,2,3,14,19,115,30,0.9700000000000004,0.25000000000000006,1.0100000000000007,0.13999999999999999,3,1,2,1,4,1,2,1,6,0,19,7,L,0.2425000000000001,0.25000000000000006,0.5050000000000002,0.13999999999999999
6,9,18,1,6,0.34000000000000014,2,3,54,56,108,42,1.1500000000000006,0.07,0.4000000000000002,1.1500000000000008,4,1,1,2,6,1,1,2,4,0,15,7,L,0.1916666666666667,0.07,0.4000000000000002,0.5750000000000003
6,10,19,1,4,0.5600000000000003,2,3,99,105,74,84,1.3400000000000007,0.35000000000000014,0.6500000000000004,0.4100000000000002,4,1,1,1,5,1,1,1,2,0,10,7,L,0.26800000000000007,0.35000000000000014,0.6500000000000004,0.4100000000000002
6,10,20,1,11,0.2700000000000001,3,3,43,113,70,118,8.489999999999869,0.01,1.2100000000000009,1.7600000000000013,7,1,3,3,12,1,3,3,2,0,13,7,L,0.7074999999999985,0.01,0.40333333333333354,0.586666666666667
6,11,21,1,10,0.3000000000000001,2,3,6,1,41,101,1.2400000000000007,4.659999999999945,0.01,0.01,4,3,1,1,5,4,1,1,6,0,19,7,L,0.24800000000000008,1.1650000000000003,0.01,0.01
6,11,22,1,11,0.37000000000000016,2,3,116,54,87,29,1.730000000000001,1.1300000000000008,0.20000000000000004,0.09,4,2,1,1,5,3,1,1,2,0,14,7,L,0.3460000000000002,0.3766666666666668,0.20000000000000004,0.09
6,12,23,1,11,0.46000000000000024,1,2,118,119,13,36,1.4900000000000009,0.12999999999999998,0.5500000000000003,0.17,3,1,1,2,5,1,1,2,2,0,15,7,L,0.2980000000000001,0.12999999999999998,0.5500000000000003,0.085
6,12,24,1,10,0.7000000000000004,7,10,7,6,106,62,1.3500000000000008,0.6300000000000003,13.229999999999762,1.0400000000000007,8,2,12,3,11,3,21,3,6,0,18,7,L,0.12272727272727275,0.21000000000000008,0.6300000000000004,0.3466666666666669
6,13,25,1,4,0.5800000000000003,2,3,107,105,89,93,1.550000000000001,0.16,1.410000000000001,0.07,4,1,2,1,6,1,3,1,2,0,10,7,L,0.2583333333333334,0.16,0.47000000000000025,0.07
6,13,26,1,7,0.4000000000000002,5,5,74,79,84,17,0.9100000000000004,0.19000000000000003,0.2800000000000001,6.1899999999999125,6,1,1,5,6,1,1,11,3,0.5,24,7,L,0.1516666666666667,0.19000000000000003,0.2800000000000001,0.5627272727272729
6,14,27,1,7,1.410000000000001,3,4,102,77,105,65,1.8100000000000012,0.6900000000000004,0.18000000000000002,0.3900000000000002,4,2,1,1,5,3,1,1,3,0,11,7,L,0.3620000000000002,0.23000000000000007,0.18000000000000002,0.3900000000000002
6,14,28,1,3,0.8900000000000006,8,8,34,18,15,91,4.169999999999975,5.739999999999922,7.129999999999892,0.46000000000000024,10,5,4,1,11,7,6,1,5,0,20,7,L,0.3790909090909081,0.8200000000000005,1.1883333333333252,0.46000000000000024
6,15,29,1,6,0.2700000000000001,1,2,54,15,21,50,1.4000000000000008,0.7300000000000004,0.7200000000000004,0.09,3,1,2,1,4,1,2,1,4,0,20,7,L,0.3500000000000002,0.7300000000000004,0.36000000000000015,0.09
6,15,30,1,7,0.47000000000000025,2,4,29,79,32,105,1.3500000000000008,0.2800000000000001,0.3300000000000001,0.24000000000000007,4,1,1,2,9,1,1,2,3,0,15,7,L,0.15000000000000002,0.2800000000000001,0.3300000000000001,0.12
6,16,31,1,4,1.0500000000000007,13,13,106,55,34,105,2.2200000000000015,4.189999999999955,2.0799999999999996,0.07,16,3,3,1,16,8,3,1,2,0,13,7,L,0.13875000000000004,0.5237499999999992,0.6933333333333338,0.07
6,16,32,1,14,0.4000000000000002,2,3,44,39,64,20,1.0900000000000005,0.2900000000000001,0.4000000000000002,0.7200000000000004,3,1,1,2,4,1,1,2,5,0,20,7,L,0.27250000000000013,0.2900000000000001,0.4000000000000002,0.36000000000000015
6,17,33,1,11,0.3900000000000002,3,4,115,59,40,78,2.3600000000000017,0.21000000000000005,0.2700000000000001,0.9600000000000006,5,1,1,2,6,1,1,3,2,0,14,7,L,0.3933333333333336,0.21000000000000005,0.2700000000000001,0.3200000000000001
6,17,34,1,10,0.4000000000000002,2,3,67,6,2,72,1.4200000000000008,0.19000000000000003,0.26000000000000006,0.5700000000000003,3,1,1,2,4,1,1,2,6,0,20,7,L,0.3550000000000002,0.19000000000000003,0.26000000000000006,0.2850000000000001
6,18,35,1,12,0.45000000000000023,4,5,94,64,35,89,1.2000000000000006,0.9800000000000006,0.34000000000000014,0.3900000000000002,6,2,1,1,7,2,1,1,3,0,15,7,L,0.17142857142857149,0.4900000000000002,0.34000000000000014,0.3900000000000002
6,18,36,1,11,0.4200000000000002,1,2,73,117,54,21,1.3000000000000007,0.16,1.500000000000001,0.38000000000000017,3,1,1,1,5,1,1,1,2,0,15,7,L,0.26000000000000006,0.16,1.500000000000001,0.38000000000000017
6,19,37,1,7,0.46000000000000024,2,5,78,112,56,74,1.0900000000000005,1.1200000000000008,0.49000000000000027,0.46000000000000024,4,2,2,2,7,2,2,3,3,0,12,7,L,0.15571428571428575,0.5600000000000003,0.24500000000000005,0.15333333333333338
6,19,38,1,15,0.3900000000000002,2,3,71,85,24,14,0.7200000000000003,1.1100000000000008,0.26000000000000006,0.8300000000000005,3,1,1,2,4,2,1,2,4,0,19,7,L,0.18000000000000005,0.5550000000000003,0.26000000000000006,0.4150000000000002
6,20,39,1,4,0.2900000000000001,2,3,103,55,39,107,0.9400000000000004,0.9600000000000006,0.10999999999999999,0.10999999999999999,4,2,2,1,5,3,2,1,2,0,13,7,L,0.18800000000000006,0.3200000000000001,0.05499999999999999,0.10999999999999999
6,20,40,1,12,0.4000000000000002,1,2,95,28,30,61,0.8900000000000005,1.0400000000000007,0.6100000000000003,0.12999999999999998,3,1,3,1,6,1,6,1,3,0,17,7,L,0.14833333333333337,1.0400000000000007,0.10166666666666667,0.12999999999999998
6,21,41,1,3,1.0600000000000007,2,4,64,34,33,112,1.560000000000001,1.7900000000000014,0.11999999999999998,0.07,3,2,1,1,5,2,1,1,5,0,16,7,L,0.3120000000000001,0.8950000000000006,0.11999999999999998,0.07
6,21,42,1,10,0.35000000000000014,2,5,49,9,39,81,1.4400000000000008,0.12999999999999998,2.7499999999999853,1.500000000000001,4,1,3,2,8,1,7,3,6,0,18,7,L,0.18000000000000008,0.12999999999999998,0.39285714285714307,0.5000000000000003
7,1,1,0,10,0.35000000000000014,2,4,19,47,38,54,0.5300000000000001,0.5000000000000002,0.2800000000000001,1.500000000000001,3,1,1,2,5,1,1,4,6,0,20,7,L,0.10600000000000001,0.5000000000000002,0.2800000000000001,0.37500000000000017
7,1,2,0,4,0.7800000000000005,9,10,102,7,107,1,1.1600000000000006,1.460000000000001,0.01,5.629999999999924,10,2,1,5,11,2,1,7,2,0,16,7,L,0.10545454545454548,0.7300000000000004,0.01,0.804285714285713
7,2,3,0,10,0.3200000000000001,1,2,59,55,22,46,0.9200000000000004,0.4200000000000002,0.03,0.19000000000000003,2,2,1,1,3,2,1,1,6,0,19,7,L,0.3066666666666668,0.21000000000000008,0.03,0.19000000000000003
7,2,4,0,9,0.46000000000000024,4,6,73,62,6,28,1.580000000000001,0.05,0.18000000000000002,0.38000000000000017,5,1,1,2,7,1,2,2,4,0,18,7,L,0.2257142857142858,0.05,0.09,0.19
7,3,5,0,2,0.4400000000000002,2,3,84,112,79,46,0.8600000000000004,0.7000000000000004,0.12999999999999998,0.11999999999999998,4,2,1,1,5,3,1,1,3,0,13,7,L,0.17200000000000001,0.23333333333333342,0.12999999999999998,0.11999999999999998
7,3,6,0,7,0.5000000000000002,2,4,92,30,49,97,0.7300000000000003,0.5900000000000003,0.11999999999999998,0.3900000000000002,4,2,1,2,6,3,1,2,3,0,14,7,L,0.12166666666666667,0.1966666666666667,0.11999999999999998,0.19500000000000003
7,4,7,0,4,0.5500000000000003,2,3,102,86,39,85,0.9300000000000004,0.5700000000000003,0.21000000000000005,0.3000000000000001,4,1,1,1,5,1,1,1,2,0,13,7,L,0.18600000000000003,0.5700000000000003,0.21000000000000005,0.3000000000000001
7,4,8,0,8,0.47000000000000025,2,4,80,109,82,78,0.9900000000000004,0.13999999999999999,0.25000000000000006,0.20000000000000004,3,1,1,1,5,1,1,1,2,0.5,20,7,L,0.19800000000000006,0.13999999999999999,0.25000000000000006,0.20000000000000004
7,5,9,0,9,0.3300000000000001,2,3,67,90,96,35,0.7600000000000003,0.7600000000000005,0.26000000000000006,0.19000000000000003,4,2,1,1,5,3,1,1,4,0,15,7,L,0.15200000000000002,0.25333333333333347,0.26000000000000006,0.19000000000000003
7,5,10,0,8,0.4300000000000002,2,4,116,110,74,60,0.8300000000000004,0.12999999999999998,0.45000000000000023,0.7900000000000005,3,1,1,1,5,1,1,1,2,0,11,7,L,0.16600000000000004,0.12999999999999998,0.45000000000000023,0.7900000000000005
7,6,11,0,3,0.37000000000000016,2,6,41,109,38,6,0.5500000000000002,0.5300000000000002,0.35000000000000014,0.3000000000000001,3,1,2,1,7,2,2,1,5,0,18,7,L,0.07857142857142857,0.26500000000000007,0.17500000000000002,0.3000000000000001
7,6,12,0,4,0.26000000000000006,2,3,101,106,26,21,0.6000000000000002,0.19000000000000003,0.6500000000000004,0.3200000000000001,4,1,2,1,5,1,4,1,2,0,15,7,L,0.12000000000000001,0.19000000000000003,0.16250000000000003,0.3200000000000001
7,7,13,1,3,0.34000000000000014,2,3,26,9,8,100,2.1700000000000017,0.12999999999999998,0.7800000000000005,0.07,4,1,2,1,5,1,2,1,5,0,19,7,L,0.4340000000000003,0.12999999999999998,0.39000000000000024,0.07
7,7,14,1,15,0.3200000000000001,2,3,65,85,90,72,0.6800000000000003,0.4100000000000002,0.3000000000000001,0.19000000000000003,4,1,1,2,5,1,1,2,4,0,14,7,L,0.136,0.4100000000000002,0.3000000000000001,0.095
7,8,15,1,6,0.36000000000000015,2,3,60,54,29,114,0.8000000000000004,0.15,0.3900000000000002,0.3000000000000001,3,1,2,1,4,1,2,1,4,0,15,7,L,0.20000000000000007,0.15,0.19500000000000006,0.3000000000000001
7,8,16,1,14,0.4000000000000002,2,3,48,20,92,99,0.9500000000000004,0.6200000000000003,0.19000000000000003,0.5100000000000002,4,1,1,2,5,1,1,2,5,0,16,7,L,0.19000000000000006,0.6200000000000003,0.19000000000000003,0.25500000000000006
7,9,17,1,6,0.5600000000000003,5,6,48,57,117,47,1.0800000000000005,0.12999999999999998,0.2700000000000001,0.2700000000000001,6,1,1,1,7,1,1,1,4,0,16,7,L,0.1542857142857143,0.12999999999999998,0.2700000000000001,0.2700000000000001
7,9,18,1,12,0.3200000000000001,2,3,96,33,68,91,0.7600000000000003,0.5100000000000002,0.5500000000000003,0.03,4,2,2,1,5,2,2,1,3,0,15,7,L,0.15200000000000002,0.2550000000000001,0.27500000000000013,0.03
7,10,19,1,14,0.3300000000000001,2,3,48,20,96,94,0.9200000000000004,0.5600000000000003,0.17,0.23000000000000007,4,2,1,2,5,2,1,2,5,0,17,7,L,0.18400000000000005,0.28000000000000014,0.17,0.11500000000000002
7,10,20,1,7,0.3900000000000002,2,3,81,32,35,12,0.5800000000000002,0.7700000000000005,0.26000000000000006,0.38000000000000017,4,2,1,1,5,2,1,2,3,0,19,7,L,0.116,0.3850000000000002,0.26000000000000006,0.19000000000000009
7,11,21,1,3,0.5000000000000002,4,5,30,28,15,53,0.9000000000000004,10.06999999999983,0.01,0.19000000000000003,6,6,1,1,7,10,1,1,5,0,20,7,L,0.1285714285714286,1.006999999999999,0.01,0.19000000000000003
7,11,22,1,7,0.4100000000000002,2,4,83,112,1,41,0.7400000000000003,0.2800000000000001,0.24000000000000007,0.20000000000000004,4,1,1,1,6,1,2,1,3,0,16,7,L,0.12333333333333334,0.2800000000000001,0.12000000000000002,0.20000000000000004
7,12,23,1,6,0.5300000000000002,2,6,59,44,15,16,1.2200000000000006,0.5100000000000002,0.22000000000000006,1.300000000000001,4,2,1,2,8,3,1,3,4,0,21,7,L,0.15250000000000005,0.17000000000000004,0.22000000000000006,0.43333333333333357
7,12,24,1,15,0.3100000000000001,2,3,69,110,82,29,0.7800000000000004,0.18000000000000002,0.20000000000000004,0.34000000000000014,4,1,1,2,5,1,1,2,4,0,14,7,L,0.15600000000000003,0.18000000000000002,0.20000000000000004,0.17000000000000004
7,13,25,1,15,0.23000000000000007,2,4,70,115,64,8,0.5600000000000002,0.6100000000000003,0.04,0.21000000000000005,4,2,1,1,6,2,1,1,4,0,16,7,L,0.09333333333333334,0.3050000000000001,0.04,0.21000000000000005
7,13,26,1,12,0.3200000000000001,1,2,93,60,97,94,0.8000000000000004,0.45000000000000023,0.09,0.12999999999999998,3,2,1,1,4,2,1,1,3,0,12,7,L,0.20000000000000004,0.2250000000000001,0.09,0.12999999999999998
7,14,27,1,12,0.48000000000000026,2,5,89,41,14,70,1.3800000000000008,0.48000000000000026,0.8800000000000006,0.04,4,1,2,1,7,1,2,1,3,0,18,7,L,0.1971428571428572,0.48000000000000026,0.4400000000000003,0.04
7,14,28,1,4,0.5000000000000002,2,3,107,12,104,74,0.8900000000000003,0.2800000000000001,0.37000000000000016,0.3100000000000001,4,1,1,1,5,1,1,1,2,0,13,7,L,0.17800000000000002,0.2800000000000001,0.37000000000000016,0.3100000000000001
7,15,29,1,12,0.10999999999999999,2,2,8,92,86,49,13.789999999999752,0.01,0.01,0.03,14,1,1,1,20,1,1,1,3,0,16,7,L,0.6894999999999993,0.01,0.01,0.03
7,15,30,1,11,0.5100000000000002,4,7,112,32,17,34,0.8100000000000003,0.3000000000000001,0.8700000000000006,0.04,6,1,2,1,9,1,4,1,2,0,18,7,L,0.09000000000000001,0.3000000000000001,0.21750000000000008,0.04
7,16,31,1,10,0.45000000000000023,2,3,12,2,69,26,0.9100000000000005,0.17,1.1400000000000008,4.40999999999995,3,1,2,4,4,1,2,7,6,0,21,7,L,0.22750000000000006,0.17,0.5700000000000003,0.6300000000000004
7,16,32,1,6,0.36000000000000015,2,3,105,55,22,17,0.7800000000000004,0.11999999999999998,0.8100000000000005,0.2700000000000001,3,2,2,2,4,3,2,2,4,0,18,7,L,0.19500000000000006,0.04,0.4050000000000002,0.13499999999999998
7,17,33,1,10,0.22000000000000006,2,2,3,10,111,68,0.8600000000000004,0.03,0.18000000000000002,0.7900000000000005,4,1,1,1,5,1,1,1,6,0,18,7,L,0.17200000000000001,0.03,0.18000000000000002,0.7900000000000005
7,17,34,1,6,0.34000000000000014,2,3,31,49,106,89,0.8200000000000004,0.09999999999999999,0.3300000000000001,0.12999999999999998,3,1,1,1,4,1,1,1,4,0,14,7,L,0.20500000000000007,0.09999999999999999,0.3300000000000001,0.12999999999999998
7,18,35,1,12,0.3900000000000002,2,3,92,90,117,87,0.7700000000000004,0.19000000000000003,0.3000000000000001,0.34000000000000014,4,1,1,2,5,1,1,2,3,0.5,20,7,L,0.15400000000000003,0.19000000000000003,0.3000000000000001,0.17
7,18,36,1,7,0.35000000000000014,2,3,82,80,4,33,0.7400000000000003,0.10999999999999999,0.36000000000000015,0.21000000000000005,3,1,1,1,4,1,1,1,3,0,17,7,L,0.18500000000000005,0.10999999999999999,0.36000000000000015,0.21000000000000005
7,19,37,1,6,0.3900000000000002,2,3,112,52,76,54,1.3300000000000007,0.01,0.24000000000000007,0.26000000000000006,4,1,2,1,6,1,2,1,4,0,13,7,L,0.22166666666666673,0.01,0.12,0.26000000000000006
7,19,38,1,14,0.9900000000000007,18,19,41,37,87,64,1.8200000000000012,1.470000000000001,1.9000000000000015,0.9000000000000006,20,2,2,2,21,2,2,2,5,0,17,7,L,0.08666666666666668,0.7350000000000005,0.9500000000000007,0.4500000000000003
7,20,39,1,6,0.4100000000000002,2,3,53,55,91,102,0.7800000000000004,0.10999999999999999,0.18000000000000002,0.5800000000000003,3,1,2,1,4,1,2,2,4,0,13,7,L,0.19500000000000006,0.10999999999999999,0.09,0.29000000000000015
7,20,40,1,11,1.0100000000000007,10,12,117,1,62,61,2.1700000000000017,0.6700000000000004,0.02,0.24000000000000007,12,2,1,2,14,6,1,2,2,0,16,7,L,0.15500000000000005,0.1116666666666667,0.02,0.12000000000000002
7,21,41,1,15,0.3900000000000002,3,4,72,62,2,92,0.8000000000000004,0.08,0.5300000000000002,0.6000000000000003,5,1,2,1,7,1,5,1,4,0,17,7,L,0.11428571428571431,0.08,0.10600000000000002,0.6000000000000003
7,21,42,1,6,0.3900000000000002,3,5,54,51,55,104,0.8400000000000004,0.5000000000000002,0.4200000000000002,0.7900000000000005,5,2,4,2,7,2,6,2,4,0.5,26,7,L,0.12000000000000002,0.25000000000000006,0.06999999999999999,0.39500000000000024
7,22,43,1,12,0.7100000000000004,3,5,87,91,67,31,1.1300000000000006,0.49000000000000027,0.15,0.25000000000000006,5,1,1,1,7,1,1,1,3,0,15,7,L,0.16142857142857145,0.49000000000000027,0.15,0.25000000000000006
7,22,44,1,11,0.3000000000000001,2,2,3,118,53,5,1.640000000000001,0.02,1.1500000000000008,0.01,5,1,2,1,7,1,2,1,2,0,18,7,L,0.23428571428571437,0.02,0.5750000000000003,0.01
8,1,1,0,9,0.36000000000000015,2,4,72,62,15,91,0.7700000000000004,0.3200000000000001,0.7000000000000004,0.37000000000000016,4,2,1,2,6,2,1,2,4,0,17,7,L,0.12833333333333335,0.16000000000000003,0.7000000000000004,0.18500000000000003
8,1,2,0,5,0.48000000000000026,2,3,10,48,58,51,1.0400000000000005,0.26000000000000006,0.38000000000000017,0.8100000000000005,4,1,1,2,5,1,1,2,6,0,19,7,L,0.20800000000000005,0.26000000000000006,0.38000000000000017,0.4050000000000002
8,2,3,0,6,0.48000000000000026,2,5,51,60,33,20,0.7800000000000004,0.4300000000000002,0.7800000000000005,0.6000000000000003,4,1,1,2,7,1,1,2,4,0,19,7,L,0.11142857142857145,0.4300000000000002,0.7800000000000005,0.3000000000000001
8,2,4,0,3,0.5000000000000002,2,3,43,64,89,93,1.0100000000000005,0.4100000000000002,0.4000000000000002,0.11999999999999998,4,1,2,1,7,1,2,1,5,0,15,7,L,0.1442857142857143,0.4100000000000002,0.20000000000000004,0.11999999999999998
8,3,5,0,5,0.4000000000000002,2,3,4,3,111,25,1.2700000000000007,21.320000000000533,0.01,0.01,4,15,1,1,5,28,1,1,6,0,19,7,L,0.2540000000000001,0.7614285714285715,0.01,0.01
8,3,6,0,4,0.5400000000000003,2,4,52,102,56,97,1.4200000000000008,0.21000000000000005,0.22000000000000006,0.20000000000000004,4,2,1,1,7,3,2,1,2,0,12,7,L,0.2028571428571429,0.06999999999999999,0.11000000000000003,0.20000000000000004
8,4,7,0,4,0.47000000000000025,2,5,11,105,3,104,1.510000000000001,0.7900000000000005,4.539999999999948,0.48000000000000026,3,2,4,2,6,3,10,2,2,0,16,7,L,0.2516666666666668,0.2633333333333334,0.45400000000000024,0.24000000000000007
8,4,8,0,2,0.36000000000000015,2,3,23,43,73,44,1.3400000000000007,0.6100000000000003,0.07,0.17,3,2,1,1,4,2,1,1,3,0,19,7,L,0.3350000000000002,0.30500000000000016,0.07,0.17
8,5,9,0,8,0.8900000000000006,17,18,112,72,14,16,1.1800000000000006,2.339999999999994,0.35000000000000014,1.410000000000001,18,2,2,2,19,4,2,2,2,0,18,7,L,0.06210526315789474,0.5850000000000004,0.17500000000000004,0.7050000000000005
8,5,10,0,4,0.45000000000000023,2,3,101,50,103,107,0.6400000000000002,1.290000000000001,0.13999999999999999,0.19000000000000003,3,2,1,1,4,4,1,1,2,0.5,16,7,L,0.16000000000000003,0.3225000000000001,0.13999999999999999,0.19000000000000003
8,6,11,0,9,0.6800000000000004,2,3,81,69,62,79,1.680000000000001,0.35000000000000014,0.7700000000000005,0.36000000000000015,3,1,2,2,4,1,2,2,4,0,14,7,L,0.4200000000000002,0.35000000000000014,0.3850000000000002,0.18000000000000005
8,6,12,0,3,0.48000000000000026,2,4,8,39,59,56,1.3400000000000007,0.19000000000000003,0.5500000000000003,0.5700000000000003,3,1,1,2,5,1,1,2,5,0,19,7,L,0.2680000000000001,0.19000000000000003,0.5500000000000003,0.28500000000000014
8,7,13,1,10,0.3300000000000001,2,5,47,4,85,56,1.0300000000000005,0.13999999999999999,1.7400000000000013,2.0300000000000007,3,1,2,2,6,1,5,5,6,0,18,7,L,0.17166666666666675,0.13999999999999999,0.3480000000000002,0.4060000000000002
8,7,14,1,7,0.2900000000000001,2,3,82,83,21,114,0.5900000000000002,0.15,0.8400000000000005,0.5400000000000003,3,1,1,2,4,1,1,3,3,0,14,7,L,0.14750000000000002,0.15,0.8400000000000005,0.18000000000000002
8,8,15,1,13,0.45000000000000023,4,5,13,19,61,71,0.8600000000000004,0.20000000000000004,1.1400000000000008,0.15,6,1,2,1,7,1,2,1,6,0,20,7,L,0.12285714285714287,0.20000000000000004,0.5700000000000003,0.15
8,8,16,1,6,0.5600000000000003,2,3,57,55,3,94,1.0900000000000005,0.20000000000000004,0.26000000000000006,0.5300000000000002,3,1,1,2,4,1,1,2,4,0,17,7,L,0.27250000000000013,0.20000000000000004,0.26000000000000006,0.2650000000000001
8,9,17,1,7,0.3300000000000001,2,3,80,72,118,22,1.0800000000000005,0.7800000000000005,0.12999999999999998,0.4000000000000002,4,2,1,1,5,2,1,1,3,0,15,7,L,0.21600000000000005,0.3900000000000002,0.12999999999999998,0.4000000000000002
8,9,18,1,6,0.34000000000000014,2,3,60,41,5,87,0.6200000000000002,0.9400000000000006,0.12999999999999998,0.25000000000000006,4,1,1,1,5,1,1,1,4,0,18,7,L,0.12400000000000001,0.9400000000000006,0.12999999999999998,0.25000000000000006
8,10,19,1,4,1.0700000000000007,12,13,102,101,100,59,1.570000000000001,0.11999999999999998,0.18000000000000002,0.45000000000000023,14,1,1,1,15,1,1,1,2,0.5,16,7,L,0.1046666666666667,0.11999999999999998,0.18000000000000002,0.45000000000000023
8,10,20,1,3,0.36000000000000015,2,3,27,31,85,112,0.5000000000000001,0.3000000000000001,1.0500000000000007,0.09999999999999999,4,1,2,1,5,1,4,1,5,0,15,7,L,0.1,0.3000000000000001,0.26250000000000007,0.09999999999999999
8,11,21,1,7,0.24000000000000007,1,2,77,98,67,19,0.9800000000000005,2.5099999999999905,0.05,0.08,3,3,1,1,4,3,1,1,3,0,15,7,L,0.24500000000000008,0.8366666666666672,0.05,0.08
8,11,22,1,14,0.4200000000000002,3,5,88,39,57,9,1.7900000000000011,0.08,0.5500000000000003,0.07,4,1,1,1,6,1,1,1,5,0,18,7,L,0.2983333333333335,0.08,0.5500000000000003,0.07
8,12,23,1,11,0.5700000000000003,9,9,31,56,88,52,7.999999999999886,0.02,0.01,0.01,15,1,1,1,18,1,1,1,2,0,16,7,L,0.4444444444444434,0.02,0.01,0.01
8,12,24,1,7,0.8100000000000005,8,9,8,84,2,37,1.2500000000000007,0.24000000000000007,0.26000000000000006,0.46000000000000024,9,1,2,1,10,1,2,1,3,0,20,7,L,0.12500000000000003,0.24000000000000007,0.13000000000000003,0.46000000000000024
8,13,25,1,4,0.3200000000000001,3,5,97,105,26,19,0.8000000000000004,0.09999999999999999,0.8100000000000005,0.7600000000000005,5,1,2,1,8,1,2,1,2,0,15,7,L,0.10000000000000002,0.09999999999999999,0.4050000000000002,0.7600000000000005
8,13,26,1,11,0.4000000000000002,2,4,114,111,118,11,0.8600000000000004,0.19000000000000003,0.2800000000000001,0.4200000000000002,3,1,1,1,5,1,1,1,2,0.5,18,7,L,0.17200000000000007,0.19000000000000003,0.2800000000000001,0.4200000000000002
8,14,27,1,11,0.37000000000000016,2,3,11,120,114,89,1.1400000000000006,0.11999999999999998,0.26000000000000006,0.3900000000000002,3,1,2,1,4,1,2,1,2,0,13,7,L,0.28500000000000014,0.11999999999999998,0.13,0.3900000000000002
8,14,28,1,7,0.37000000000000016,2,3,30,80,77,99,1.4700000000000009,0.09,0.36000000000000015,0.7200000000000004,3,1,2,2,4,1,2,2,3,0,13,7,L,0.3675000000000002,0.09,0.18000000000000002,0.36000000000000015
8,15,29,1,13,0.46000000000000024,2,4,32,16,115,96,1.3500000000000008,0.09,2.0799999999999996,0.5700000000000003,4,1,2,2,7,1,4,3,6,0,16,7,L,0.19285714285714292,0.09,0.5200000000000004,0.19000000000000006
8,15,30,1,7,0.4000000000000002,2,4,77,74,99,100,0.9100000000000004,0.2900000000000001,0.6600000000000004,0.4400000000000002,3,1,2,2,5,1,3,2,3,0,10,7,L,0.18200000000000005,0.2900000000000001,0.22000000000000008,0.22000000000000003
8,16,31,1,14,0.48000000000000026,2,4,46,117,61,114,1.4800000000000009,1.9200000000000015,0.13999999999999999,0.05,4,3,1,1,6,4,1,1,5,0,13,7,L,0.24666666666666676,0.48000000000000026,0.13999999999999999,0.05
8,16,32,1,3,0.48000000000000026,2,3,34,50,32,36,0.8100000000000004,1.330000000000001,0.09,0.15,4,2,1,1,5,2,1,1,5,0.5,34,7,L,0.16200000000000003,0.6650000000000005,0.09,0.15
8,17,33,1,7,0.6700000000000004,2,3,28,75,97,25,1.0900000000000005,0.15,0.6700000000000004,0.20000000000000004,3,1,1,1,4,1,1,1,3,0,15,7,L,0.27250000000000013,0.15,0.6700000000000004,0.20000000000000004
8,17,34,1,14,0.45000000000000023,2,3,93,47,38,119,1.0700000000000005,0.18000000000000002,0.5200000000000002,0.2900000000000001,3,1,2,1,4,1,2,1,5,0,15,7,L,0.2675000000000001,0.18000000000000002,0.26000000000000006,0.2900000000000001
8,18,35,1,13,1.1400000000000008,9,10,100,17,106,101,1.4200000000000008,0.21000000000000005,1.8800000000000014,0.6600000000000004,10,1,3,2,11,1,3,2,6,0.5,18,7,L,0.12909090909090912,0.21000000000000005,0.626666666666667,0.3300000000000002
8,18,36,1,11,0.49000000000000027,2,3,118,29,85,114,0.7400000000000003,0.3900000000000002,0.7300000000000004,0.5000000000000002,4,1,1,2,5,1,1,2,2,0,12,7,L,0.14800000000000002,0.3900000000000002,0.7300000000000004,0.2500000000000001
8,19,37,1,12,0.3900000000000002,2,4,118,88,47,95,0.9700000000000004,0.13999999999999999,0.47000000000000025,0.25000000000000006,3,1,1,2,5,1,1,2,3,0,13,7,L,0.19400000000000006,0.13999999999999999,0.47000000000000025,0.12500000000000003
8,19,38,1,7,1.410000000000001,2,4,17,78,108,84,1.9600000000000013,0.07,0.6600000000000004,0.13999999999999999,3,1,1,1,5,1,1,1,3,0,14,7,L,0.3920000000000002,0.07,0.6600000000000004,0.13999999999999999
8,20,39,1,3,0.5300000000000002,2,4,28,1,33,58,0.7600000000000003,0.6200000000000003,0.6600000000000004,0.2900000000000001,4,1,2,1,6,1,2,1,5,0,20,7,L,0.12666666666666668,0.6200000000000003,0.3300000000000001,0.2900000000000001
8,20,40,1,4,0.5500000000000003,2,3,98,17,15,22,2.759999999999997,0.6400000000000003,0.02,0.02,4,2,1,1,5,2,1,1,2,0.5,38,7,L,0.5520000000000003,0.3200000000000002,0.02,0.02
8,21,41,1,14,0.16,2,2,3,90,10,117,21.420000000000524,0.02,0.01,0.01,17,1,1,1,34,1,1,1,5,0,17,7,L,0.6299999999999989,0.02,0.01,0.01
8,21,42,1,6,0.6200000000000003,3,4,55,23,18,33,0.8700000000000003,1.2200000000000009,0.35000000000000014,0.13999999999999999,4,2,1,1,5,5,1,1,4,0,21,7,L,0.17400000000000002,0.24400000000000008,0.35000000000000014,0.13999999999999999
8,22,43,1,4,0.35000000000000014,3,5,103,7,4,102,0.6100000000000002,0.5200000000000002,0.09,0.22000000000000006,5,2,1,2,7,2,1,2,2,0,16,7,L,0.08714285714285715,0.26000000000000006,0.09,0.11
8,22,44,1,11,0.9100000000000006,5,6,118,114,21,110,1.3000000000000007,0.2800000000000001,0.21000000000000005,0.5800000000000003,6,1,1,2,7,1,1,2,2,0.5,18,7,L,0.18571428571428578,0.2800000000000001,0.21000000000000005,0.2900000000000001
9,1,1,0,3,1.320000000000001,2,7,94,47,114,118,6.8599999999999275,1.480000000000001,0.6200000000000003,0.5800000000000003,6,3,2,2,33,7,2,4,5,0,12,7,L,0.20787878787878794,0.2114285714285715,0.3100000000000001,0.145
9,1,2,0,1,2.0000000000000013,2,16,33,107,76,101,5.1799999999999775,0.6100000000000003,4.089999999999957,0.2800000000000001,4,3,2,2,30,5,14,2,5,0,12,7,L,0.17266666666666672,0.12200000000000003,0.29214285714285726,0.14
9,2,3,0,2,0.8700000000000006,2,8,84,100,80,79,6.5399999999999245,0.9200000000000006,0.21000000000000005,0.16,5,3,2,1,38,3,2,1,3,0.5,20,7,L,0.1721052631578948,0.3066666666666668,0.10500000000000001,0.16
9,2,4,0,1,0.9100000000000006,2,10,30,8,29,110,6.189999999999932,1.400000000000001,0.7300000000000004,0.25000000000000006,4,2,2,2,34,8,7,3,5,0,18,7,L,0.18205882352941183,0.17500000000000004,0.10428571428571429,0.08333333333333333
9,3,5,0,1,1.7300000000000013,2,17,25,88,104,8,6.929999999999935,0.8900000000000006,0.26000000000000006,0.5300000000000002,4,2,1,2,49,3,2,4,5,0,16,7,L,0.14142857142857146,0.29666666666666675,0.13000000000000003,0.1325
9,3,6,0,2,0.8900000000000006,2,4,81,112,21,82,4.779999999999962,3.569999999999968,0.4200000000000002,0.3900000000000002,4,3,2,2,28,21,4,2,3,0,14,7,L,0.17071428571428576,0.17000000000000004,0.10500000000000002,0.19500000000000006
9,4,7,0,10,0.5500000000000003,2,3,22,33,29,24,5.559999999999938,0.9000000000000006,1.1100000000000008,1.360000000000001,5,2,2,4,29,3,8,6,6,0,22,7,L,0.19172413793103454,0.3000000000000001,0.13875,0.22666666666666674
9,4,8,0,6,0.9300000000000006,2,6,56,41,7,54,4.4799999999999685,3.0799999999999783,0.34000000000000014,0.6600000000000004,4,2,2,2,30,22,2,7,4,0,19,7,L,0.14933333333333337,0.14,0.17000000000000007,0.09428571428571429
9,5,9,0,2,0.9800000000000006,2,7,21,77,78,13,7.409999999999908,0.21000000000000005,0.17,1.440000000000001,4,2,1,5,44,3,1,12,3,0,18,7,L,0.16840909090909095,0.06999999999999999,0.17,0.12000000000000002
9,5,10,0,7,0.8600000000000005,2,6,96,89,5,3,4.879999999999959,0.7600000000000005,1.1900000000000008,0.9200000000000006,4,2,2,3,20,5,11,11,3,0,18,7,L,0.24400000000000008,0.15200000000000005,0.1081818181818182,0.08363636363636365
9,6,11,0,7,0.5900000000000003,2,4,89,92,94,108,5.219999999999946,0.6800000000000004,0.25000000000000006,1.300000000000001,4,2,1,4,28,4,1,15,3,0.5,20,7,L,0.18642857142857147,0.17000000000000004,0.25000000000000006,0.08666666666666668
9,6,12,0,1,1.5100000000000011,3,12,29,25,7,110,5.4299999999999615,0.8900000000000006,0.5600000000000003,1.0500000000000007,5,2,1,2,34,6,1,7,5,0,18,7,L,0.1597058823529412,0.14833333333333334,0.5600000000000003,0.15000000000000005
9,7,13,1,15,1.1700000000000008,2,8,66,69,16,71,6.279999999999936,1.6600000000000013,0.9700000000000006,0.16,5,4,2,2,35,7,8,4,4,0.5,30,7,L,0.1794285714285715,0.23714285714285724,0.12125000000000002,0.04
9,7,14,1,4,0.9700000000000006,2,8,101,50,44,37,7.439999999999907,0.3000000000000001,0.37000000000000016,0.16,4,1,2,1,44,1,5,1,2,0,16,7,L,0.16909090909090913,0.3000000000000001,0.074,0.16
9,8,15,1,4,0.8000000000000005,2,4,101,96,19,102,4.699999999999961,2.389999999999993,0.5800000000000003,0.22000000000000006,5,3,3,1,24,11,5,1,2,0,13,7,L,0.1958333333333334,0.21727272727272734,0.116,0.22000000000000006
9,8,16,1,15,1.0400000000000007,2,8,43,117,66,115,5.749999999999945,2.1399999999999983,0.11999999999999998,0.3900000000000002,6,2,1,2,24,16,1,2,4,0,13,7,L,0.23958333333333343,0.13375000000000004,0.11999999999999998,0.19500000000000006
9,9,17,1,6,0.8900000000000006,2,9,59,50,57,114,6.5899999999999235,0.34000000000000014,6.859999999999898,0.20000000000000004,4,2,7,1,38,2,44,1,4,0.5,26,7,L,0.17342105263157898,0.17000000000000004,0.15590909090909094,0.20000000000000004
9,9,18,1,4,2.1799999999999975,2,20,99,78,38,68,5.52999999999997,1.8700000000000014,0.5100000000000002,1.410000000000001,4,2,2,3,46,9,4,13,2,0,14,7,L,0.12021739130434785,0.20777777777777784,0.12750000000000003,0.10846153846153847
9,10,19,1,11,0.7700000000000005,3,7,114,112,58,76,4.8199999999999585,0.6400000000000003,1.9600000000000015,0.46000000000000024,5,2,3,2,25,4,10,3,2,0,11,7,L,0.19280000000000005,0.16000000000000006,0.19600000000000006,0.15333333333333332
9,10,20,1,12,1.2400000000000009,2,6,96,90,105,63,4.629999999999972,3.0299999999999794,0.5200000000000002,0.47000000000000025,4,2,2,2,26,23,4,3,3,0,12,7,L,0.17807692307692313,0.13173913043478264,0.13,0.15666666666666668
9,11,21,1,11,0.7800000000000005,2,5,91,111,110,41,5.119999999999952,1.1100000000000008,0.3100000000000001,1.0600000000000007,4,2,1,3,26,10,1,6,2,0,12,7,L,0.19692307692307698,0.111,0.3100000000000001,0.17666666666666672
9,11,22,1,7,1.340000000000001,2,7,75,82,98,70,4.829999999999971,1.1000000000000008,1.370000000000001,2.199999999999997,4,2,2,3,31,7,8,14,3,0,12,7,L,0.15580645161290327,0.1571428571428572,0.17125000000000004,0.15714285714285717
9,12,23,1,15,1.7700000000000014,2,10,68,71,69,33,5.399999999999968,1.360000000000001,3.9099999999999606,0.6700000000000004,5,2,6,1,30,5,16,1,4,0.5,29,7,L,0.18000000000000005,0.2720000000000001,0.2443750000000001,0.6700000000000004
9,12,24,1,6,0.6100000000000003,3,5,56,40,55,86,4.229999999999967,2.06,0.25000000000000006,0.4200000000000002,6,3,1,2,21,12,1,2,4,0,16,7,L,0.2014285714285715,0.17166666666666672,0.25000000000000006,0.21000000000000005
9,13,25,1,6,1.370000000000001,2,10,58,59,40,41,4.44999999999998,0.8900000000000006,1.2000000000000008,0.6900000000000004,4,2,2,3,29,5,6,5,4,0,18,7,L,0.153448275862069,0.17800000000000005,0.20000000000000007,0.138
9,13,26,1,4,0.8700000000000006,2,8,102,100,19,88,5.519999999999946,0.4400000000000002,2.4599999999999915,0.08,4,2,5,1,34,3,12,1,2,0,13,7,L,0.16235294117647064,0.1466666666666667,0.20500000000000007,0.08
9,14,27,1,10,1.370000000000001,2,8,2,47,113,83,6.039999999999946,9.809999999999835,0.03,0.03,4,10,1,1,32,61,1,1,6,0,16,7,L,0.18875000000000006,0.16081967213114756,0.03,0.03
9,14,28,1,6,0.5900000000000003,2,4,59,106,19,50,6.259999999999923,1.0100000000000007,0.9300000000000006,0.3000000000000001,5,3,3,2,48,5,7,2,4,0,16,7,L,0.13041666666666668,0.20200000000000007,0.13285714285714287,0.15000000000000002
9,15,29,1,7,0.8500000000000005,2,13,99,72,77,25,5.059999999999955,1.8400000000000014,0.26000000000000006,0.8400000000000005,7,3,2,2,38,8,3,4,3,0,14,7,L,0.13315789473684214,0.2300000000000001,0.08666666666666667,0.21000000000000008
9,15,30,1,13,1.0100000000000007,2,5,16,15,89,50,7.4199999999999084,14.849999999999728,0.060000000000000005,0.01,4,18,1,1,47,81,1,1,6,0,19,7,L,0.15787234042553197,0.1833333333333334,0.060000000000000005,0.01
9,16,31,1,15,1.0100000000000007,2,9,61,105,71,81,5.239999999999955,2.3599999999999937,0.5700000000000003,0.16,4,3,3,1,33,11,3,1,4,0,13,7,L,0.15878787878787884,0.2145454545454546,0.19000000000000003,0.16
9,16,32,1,3,0.8100000000000005,2,4,32,35,114,52,5.289999999999949,0.7600000000000005,0.46000000000000024,0.47000000000000025,4,3,1,1,26,4,1,1,5,0,16,7,L,0.20346153846153853,0.19000000000000006,0.46000000000000024,0.47000000000000025
9,17,33,1,7,1.1200000000000008,2,5,73,13,118,14,4.3599999999999755,1.0500000000000007,2.9199999999999817,0.16,4,3,3,2,27,4,20,2,3,0,17,7,L,0.16148148148148153,0.2625000000000001,0.14600000000000002,0.07999999999999999
9,17,34,1,6,0.9100000000000006,2,8,54,59,57,101,5.029999999999957,1.260000000000001,0.3200000000000001,1.420000000000001,4,3,1,2,24,8,1,10,4,0.5,26,7,L,0.2095833333333334,0.15750000000000003,0.3200000000000001,0.14200000000000002
9,18,35,1,11,1.5500000000000012,2,17,110,55,111,26,5.489999999999961,1.9300000000000015,0.38000000000000017,0.9200000000000006,4,2,2,3,43,13,2,8,2,0,13,7,L,0.12767441860465117,0.1484615384615385,0.19000000000000006,0.11500000000000002
9,18,36,1,12,0.7100000000000004,2,5,89,106,39,38,5.309999999999947,1.8800000000000014,0.7700000000000005,0.35000000000000014,5,3,3,1,33,10,6,1,3,0,15,7,L,0.16090909090909095,0.18800000000000006,0.12833333333333335,0.35000000000000014
9,19,37,1,11,1.2000000000000008,2,6,119,113,14,53,5.649999999999951,1.400000000000001,0.47000000000000025,0.16,7,2,2,1,26,6,3,1,2,0,14,7,L,0.21730769230769237,0.23333333333333342,0.1566666666666667,0.16
9,19,38,1,4,0.8700000000000006,3,5,97,108,105,40,4.759999999999962,0.7100000000000004,1.0300000000000007,0.7700000000000005,5,2,2,3,20,3,6,6,2,0.5,17,7,L,0.23800000000000007,0.23666666666666675,0.17166666666666672,0.12833333333333335
9,20,39,1,14,0.5600000000000003,2,4,46,41,117,89,4.569999999999959,0.4300000000000002,0.8200000000000005,0.6600000000000004,4,1,2,2,28,1,6,3,5,0,15,7,L,0.16321428571428576,0.4300000000000002,0.13666666666666671,0.22000000000000006
9,20,40,1,3,0.6700000000000004,2,5,27,55,76,1,4.679999999999959,1.8900000000000015,0.2900000000000001,2.399999999999993,4,3,2,3,33,10,3,15,5,0,18,7,L,0.14181818181818184,0.18900000000000006,0.09666666666666665,0.16000000000000003
10,1,1,0,1,0.4200000000000002,2,3,26,49,3,11,4.109999999999966,1.6900000000000013,1.0200000000000007,0.35000000000000014,7,6,4,2,23,10,8,5,5,0,21,7,L,0.1786956521739131,0.16900000000000004,0.1275,0.07
10,1,2,0,9,1.1200000000000008,13,16,71,43,68,15,5.359999999999955,1.2500000000000009,0.6600000000000004,0.5900000000000003,20,4,4,1,40,7,6,2,4,0,19,7,L,0.13400000000000004,0.1785714285714286,0.10999999999999999,0.2950000000000001
10,2,3,0,7,0.5200000000000002,2,5,87,64,105,106,5.89999999999993,1.0500000000000007,0.16,0.24000000000000007,13,4,1,1,35,7,1,1,3,0,11,7,L,0.16857142857142862,0.15000000000000002,0.16,0.24000000000000007
10,2,4,0,8,1.280000000000001,12,17,112,115,1,10,5.23999999999996,0.5800000000000003,0.2700000000000001,1.480000000000001,18,4,1,7,47,5,1,18,2,0,16,7,L,0.11148936170212768,0.11600000000000003,0.2700000000000001,0.08222222222222224
10,3,5,0,3,1.2500000000000009,2,15,48,39,10,6,3.9399999999999875,0.9700000000000006,1.9400000000000015,0.5500000000000003,6,3,6,2,39,6,16,3,5,0,22,7,L,0.10102564102564103,0.1616666666666667,0.12125000000000002,0.18333333333333335
10,3,6,0,1,1.8500000000000014,8,14,28,18,70,30,3.0600000000000023,6.949999999999896,0.12999999999999998,0.7800000000000005,10,14,2,6,24,44,2,8,5,0,20,7,L,0.12750000000000003,0.15795454545454551,0.06499999999999999,0.0975
10,4,7,0,4,1.1700000000000008,3,12,100,99,13,24,4.019999999999984,2.299999999999995,1.0800000000000007,0.5700000000000003,8,8,4,3,33,20,5,3,2,0,16,7,L,0.12181818181818184,0.115,0.21600000000000005,0.19000000000000003
10,4,8,0,9,0.5400000000000003,2,5,63,7,119,10,4.749999999999955,0.35000000000000014,1.9300000000000015,0.060000000000000005,13,1,7,1,31,1,10,1,4,0,18,7,L,0.15322580645161293,0.35000000000000014,0.19300000000000006,0.060000000000000005
10,5,9,0,1,0.49000000000000027,4,5,6,35,49,5,5.589999999999936,0.36000000000000015,0.3200000000000001,0.3900000000000002,10,3,2,2,37,3,2,3,5,0,21,7,L,0.15108108108108112,0.12000000000000001,0.16000000000000003,0.12999999999999998
10,5,10,0,9,1.6100000000000012,2,17,98,70,106,65,5.529999999999962,0.3900000000000002,0.35000000000000014,0.4100000000000002,11,2,2,2,39,3,5,2,4,0,12,7,L,0.14179487179487182,0.13,0.07,0.20500000000000002
10,6,11,0,8,0.8600000000000005,3,9,61,110,69,64,4.769999999999961,0.38000000000000017,2.489999999999991,0.3100000000000001,11,3,7,3,35,5,11,3,2,0.5,26,7,L,0.13628571428571432,0.076,0.22636363636363643,0.10333333333333332
10,6,12,0,6,1.7000000000000013,15,20,53,10,3,52,2.870000000000002,2.7999999999999843,0.22000000000000006,0.34000000000000014,18,5,1,2,24,19,1,3,4,0,20,7,L,0.11958333333333337,0.14736842105263162,0.22000000000000006,0.11333333333333336
10,7,13,1,14,1.7600000000000013,13,21,44,45,40,43,4.80999999999998,0.24000000000000007,0.7900000000000005,1.1400000000000008,19,1,3,4,45,1,11,9,5,1,60,7,L,0.1068888888888889,0.24000000000000007,0.07181818181818182,0.12666666666666668
10,7,14,1,10,0.3900000000000002,2,3,4,8,30,10,4.239999999999962,0.6300000000000003,0.23000000000000007,0.5800000000000003,8,3,1,4,24,5,1,4,6,0.5,41,7,L,0.17666666666666672,0.126,0.23000000000000007,0.14500000000000002
10,8,15,1,3,0.15,2,5,13,59,18,106,9.419999999999847,0.03,0.26000000000000006,0.05,16,1,2,1,54,1,2,1,5,0,18,7,L,0.17444444444444449,0.03,0.13000000000000003,0.05
10,8,16,1,7,0.4300000000000002,2,4,74,119,42,41,5.509999999999937,2.9799999999999804,0.3200000000000001,0.3900000000000002,11,12,2,3,30,25,2,5,3,0,15,7,L,0.18366666666666673,0.11920000000000001,0.16000000000000003,0.078
10,9,17,1,3,0.24000000000000007,2,3,24,36,99,35,5.849999999999925,0.060000000000000005,1.360000000000001,0.7100000000000004,11,1,4,4,39,1,8,4,5,0,18,7,L,0.15000000000000002,0.060000000000000005,0.17000000000000007,0.17750000000000007
10,9,18,1,15,0.4200000000000002,6,7,41,68,3,81,8.55999999999987,0.19000000000000003,0.8500000000000005,0.05,19,2,4,1,68,2,5,1,4,0,18,7,L,0.1258823529411765,0.095,0.17000000000000004,0.05
10,10,19,1,12,1.1400000000000008,2,14,2,116,95,27,5.329999999999956,1.1500000000000008,0.12999999999999998,0.4400000000000002,10,3,2,2,34,9,4,5,3,0,16,7,L,0.15676470588235297,0.1277777777777778,0.0325,0.088
10,10,20,1,4,0.6900000000000004,2,7,97,22,19,21,3.659999999999981,0.6400000000000003,0.9500000000000006,0.21000000000000005,6,2,5,1,24,4,9,1,2,0.5,38,7,L,0.15250000000000005,0.16000000000000003,0.10555555555555557,0.21000000000000005
10,11,21,1,10,1.300000000000001,15,19,12,75,41,82,7.449999999999914,0.5300000000000002,1.440000000000001,0.02,20,2,6,1,64,3,8,1,6,0,17,7,L,0.11640625000000002,0.17666666666666672,0.18000000000000005,0.02
10,11,22,1,4,0.21000000000000005,2,2,16,33,91,36,14.48999999999974,0.01,0.03,0.2700000000000001,20,1,1,3,103,1,1,3,2,0,19,7,L,0.14067961165048548,0.01,0.03,0.09000000000000002
10,12,23,1,4,0.38000000000000017,2,5,98,95,99,105,4.2199999999999624,0.6000000000000003,0.5000000000000002,0.11999999999999998,11,2,3,2,27,3,4,2,2,0.5,15,7,L,0.15629629629629632,0.20000000000000004,0.125,0.060000000000000005
10,12,24,1,6,0.4200000000000002,2,5,2,59,80,25,3.7399999999999736,0.8200000000000005,0.9300000000000006,0.09999999999999999,7,2,2,1,25,5,9,1,4,0,18,7,L,0.14960000000000004,0.16400000000000003,0.10333333333333333,0.09999999999999999
10,13,25,1,12,0.5700000000000003,2,4,94,39,101,62,5.859999999999932,0.5400000000000003,0.6800000000000004,0.09,10,2,5,1,45,3,6,1,3,0,14,7,L,0.13022222222222224,0.18000000000000005,0.11333333333333336,0.09
10,13,26,1,3,0.3100000000000001,2,6,32,29,28,56,2.1400000000000015,3.3899999999999717,0.15,0.17,7,10,2,1,17,24,4,1,5,0.5,34,7,L,0.1258823529411765,0.14125000000000004,0.0375,0.17
10,14,27,1,7,0.9000000000000006,2,11,42,84,107,40,4.999999999999957,0.4300000000000002,0.5600000000000003,1.300000000000001,7,3,4,7,36,5,7,10,3,0,15,7,L,0.13888888888888892,0.08600000000000001,0.08,0.13000000000000003
10,14,28,1,6,0.8400000000000005,2,9,28,60,34,6,2.91,3.5299999999999687,0.04,0.48000000000000026,7,9,1,2,21,24,1,4,4,0,20,7,L,0.1385714285714286,0.14708333333333337,0.04,0.12000000000000002
10,15,29,1,13,0.3000000000000001,2,3,102,14,17,15,4.339999999999958,0.21000000000000005,0.8700000000000006,1.370000000000001,7,1,3,4,37,2,7,9,6,0.5,38,7,L,0.11729729729729732,0.10500000000000001,0.1242857142857143,0.15222222222222226
10,15,30,1,7,1.0200000000000007,3,10,83,74,46,47,5.609999999999947,0.18000000000000002,1.0000000000000007,0.2900000000000001,12,1,2,2,42,1,6,3,3,0,16,7,L,0.1335714285714286,0.18000000000000002,0.16666666666666669,0.09666666666666665
10,16,31,1,6,0.9700000000000006,3,8,49,26,8,55,4.859999999999962,0.3100000000000001,0.4000000000000002,4.649999999999945,10,3,2,12,46,4,3,29,4,0,19,7,L,0.10565217391304349,0.0775,0.13333333333333336,0.16034482758620694
10,16,32,1,13,0.5100000000000002,2,5,13,15,117,23,8.139999999999882,2.6599999999999873,0.5400000000000003,0.01,12,9,2,1,60,23,2,1,6,0.5,38,7,L,0.13566666666666669,0.1156521739130435,0.27000000000000013,0.01
10,17,33,1,10,0.5300000000000002,2,5,10,9,2,54,5.409999999999941,1.380000000000001,1.8200000000000014,0.7700000000000005,11,4,7,3,38,10,7,3,6,0.5,40,7,L,0.14236842105263162,0.13800000000000004,0.2600000000000001,0.25666666666666677
10,17,34,1,3,0.23000000000000007,2,3,34,36,26,31,4.339999999999957,0.17,0.4100000000000002,0.13999999999999999,10,1,3,2,35,1,3,2,5,1,60,7,L,0.12400000000000003,0.17,0.1366666666666667,0.06999999999999999
10,18,35,1,13,0.13999999999999999,2,2,13,17,19,41,8.739999999999862,0.01,0.2900000000000001,0.04,17,1,4,2,52,1,4,2,6,0.5,41,7,L,0.16807692307692312,0.01,0.0725,0.02
10,18,36,1,3,0.9100000000000006,3,10,30,36,7,33,2.8500000000000023,1.0200000000000007,2.479999999999991,0.24000000000000007,9,7,10,3,20,11,15,3,5,0.5,36,7,L,0.14250000000000004,0.09272727272727274,0.16533333333333336,0.08
10,19,37,1,14,0.6100000000000003,2,7,85,88,42,90,5.809999999999934,0.4000000000000002,0.21000000000000005,0.3100000000000001,12,3,2,3,44,4,2,3,5,0.5,23,7,L,0.13204545454545458,0.09999999999999999,0.10499999999999998,0.10333333333333335
10,19,38,1,11,2.9199999999999817,13,31,113,109,29,49,4.399999999999983,2.7999999999999843,0.7500000000000004,2.9899999999999802,17,11,3,10,39,16,5,18,2,0,13,7,L,0.11282051282051284,0.17500000000000004,0.15000000000000005,0.16611111111111115
10,20,39,1,14,0.4200000000000002,2,5,37,17,18,41,3.6399999999999757,1.8800000000000014,0.3000000000000001,0.12999999999999998,9,6,2,2,20,17,3,2,5,0,22,7,L,0.18200000000000005,0.11058823529411765,0.10000000000000002,0.06499999999999999
10,20,40,1,10,0.7300000000000004,7,10,12,7,98,8,2.3800000000000017,1.8700000000000014,2.010000000000001,0.09,10,4,4,2,23,11,8,2,6,0.5,38,7,L,0.10347826086956523,0.17000000000000004,0.2512500000000001,0.045000000000000005
10,21,41,1,4,0.6400000000000003,4,5,64,99,72,26,4.4199999999999635,0.2700000000000001,1.0300000000000007,0.20000000000000004,9,2,3,2,24,2,11,2,2,0,15,7,L,0.18416666666666673,0.13500000000000004,0.09363636363636364,0.09999999999999999
10,21,42,1,14,0.8600000000000005,2,11,4,58,116,50,6.069999999999934,1.0700000000000007,0.19000000000000003,0.34000000000000014,11,3,1,2,33,10,1,2,5,0,16,7,L,0.18393939393939399,0.10700000000000001,0.19000000000000003,0.17000000000000004
11,1,1,0,8,0.4400000000000002,2,8,112,113,52,89,2.839999999999993,0.5300000000000002,0.8900000000000006,0.17,6,2,3,3,54,13,17,4,2,0,11,7,L,0.052592592592592594,0.040769230769230766,0.05235294117647059,0.0425
11,1,2,0,9,0.4300000000000002,2,8,68,62,66,46,2.460000000000001,0.6400000000000003,0.37000000000000016,0.48000000000000026,7,2,2,3,39,11,6,6,4,0.5,29,7,L,0.06307692307692309,0.05818181818181818,0.06166666666666667,0.08
11,2,3,0,4,0.47000000000000025,2,9,103,102,88,101,2.5300000000000002,1.2400000000000009,0.6700000000000004,0.4000000000000002,7,5,8,5,28,26,17,5,2,0.5,15,7,L,0.09035714285714287,0.047692307692307694,0.039411764705882354,0.08
11,2,4,0,1,0.38000000000000017,3,4,32,27,3,53,2.6299999999999963,0.18000000000000002,1.6500000000000012,0.05,5,2,7,2,41,3,25,2,5,0,20,7,L,0.06414634146341464,0.06,0.066,0.025
11,3,5,0,10,0.4000000000000002,2,6,21,25,118,116,2.529999999999999,0.4400000000000002,0.6400000000000003,0.19000000000000003,6,4,4,1,33,9,9,1,6,0,15,7,L,0.07666666666666667,0.04888888888888889,0.07111111111111111,0.19000000000000003
11,3,6,0,4,0.35000000000000014,2,8,10,99,42,100,3.3799999999999795,0.12999999999999998,0.12999999999999998,0.11999999999999998,5,3,2,2,47,3,4,4,2,0,15,7,L,0.07191489361702127,0.043333333333333335,0.0325,0.030000000000000002
11,4,7,0,9,0.8700000000000006,14,19,102,38,22,68,2.800000000000002,0.6200000000000003,1.9700000000000015,1.0600000000000007,17,2,7,9,46,13,25,19,4,0,17,7,L,0.060869565217391314,0.047692307692307694,0.0788,0.05578947368421052
11,4,8,0,7,0.48000000000000026,2,11,89,85,90,26,2.5799999999999996,0.47000000000000025,0.20000000000000004,0.4100000000000002,6,2,2,5,41,7,3,10,3,0.5,23,7,L,0.06292682926829268,0.06714285714285714,0.06666666666666667,0.041
11,5,9,0,9,0.5100000000000002,2,9,39,61,96,90,3.2099999999999866,0.09,0.38000000000000017,0.15,6,2,2,3,48,3,7,3,4,0,15,7,L,0.066875,0.03,0.054285714285714284,0.05
11,5,10,0,10,0.5000000000000002,2,8,16,23,98,54,2.4800000000000018,1.0300000000000007,0.20000000000000004,0.05,7,5,2,2,40,18,4,3,6,0,18,7,L,0.062,0.05722222222222222,0.05,0.016666666666666666
11,6,11,0,8,0.3900000000000002,3,6,18,109,65,70,2.2800000000000016,0.6400000000000003,0.4400000000000002,0.18000000000000002,7,2,4,3,36,10,7,4,2,0,16,7,L,0.06333333333333334,0.064,0.06285714285714286,0.045
11,6,12,0,4,0.7900000000000005,2,16,58,44,50,102,2.8500000000000005,0.8300000000000005,0.21000000000000005,0.13999999999999999,7,5,2,2,43,13,4,4,2,0,15,7,L,0.06627906976744187,0.06384615384615386,0.0525,0.035
11,7,13,1,4,0.9700000000000006,2,13,108,50,25,52,3.6099999999999883,0.48000000000000026,0.25000000000000006,0.09,6,2,2,2,45,10,4,3,2,0,15,7,L,0.08022222222222222,0.048,0.06249999999999999,0.03
11,7,14,1,11,0.8300000000000005,2,18,113,119,46,39,3.2799999999999923,0.21000000000000005,0.7400000000000004,0.7200000000000004,4,2,3,6,58,3,9,10,2,0,14,7,L,0.05655172413793103,0.06999999999999999,0.08222222222222222,0.072
11,8,15,1,12,2.0500000000000003,19,51,94,91,86,63,3.120000000000001,0.4300000000000002,0.7700000000000005,2.819999999999984,20,2,3,6,68,5,11,46,3,0.5,22,7,L,0.04588235294117647,0.08600000000000002,0.06999999999999999,0.06130434782608696
11,8,16,1,7,0.46000000000000024,2,8,73,80,76,78,2.959999999999991,0.3200000000000001,0.23000000000000007,0.48000000000000026,8,3,2,3,48,7,3,8,3,1,36,7,L,0.06166666666666667,0.045714285714285714,0.07666666666666666,0.06
11,9,17,1,12,0.3100000000000001,2,5,91,90,12,63,2.1800000000000015,0.5200000000000002,0.2800000000000001,0.5600000000000003,4,3,2,2,37,5,4,8,3,0,16,7,L,0.05891891891891892,0.104,0.06999999999999999,0.07
11,9,18,1,7,0.35000000000000014,3,5,84,31,75,34,2.2200000000000015,0.8800000000000006,0.3000000000000001,0.5100000000000002,6,6,3,4,39,11,9,6,3,0,16,7,L,0.056923076923076923,0.08,0.03333333333333333,0.08500000000000002
11,10,19,1,11,0.3300000000000001,3,10,119,111,116,60,2.3000000000000016,0.4200000000000002,0.24000000000000007,0.8600000000000005,5,2,2,4,34,8,3,8,2,0.5,16,7,L,0.06764705882352942,0.0525,0.07999999999999999,0.1075
11,10,20,1,14,0.26000000000000006,2,3,47,100,104,46,2.3000000000000007,0.4400000000000002,0.20000000000000004,0.19000000000000003,6,4,2,3,35,8,3,3,5,0,14,7,L,0.06571428571428571,0.055,0.06666666666666667,0.06333333333333332
11,11,21,1,10,0.34000000000000014,3,5,7,2,64,72,1.9800000000000013,0.6700000000000004,0.47000000000000025,0.37000000000000016,5,4,4,2,25,12,6,5,6,0,20,7,L,0.0792,0.05583333333333333,0.07833333333333334,0.074
11,11,22,1,7,0.3300000000000001,3,6,82,75,44,47,2.0100000000000016,0.5100000000000002,0.49000000000000027,0.46000000000000024,10,3,4,5,32,6,9,13,3,0,16,7,L,0.06281250000000001,0.08499999999999999,0.05444444444444445,0.03538461538461539
11,12,23,1,4,0.9800000000000006,14,19,33,31,5,2,3.589999999999989,0.35000000000000014,0.21000000000000005,1.5200000000000011,20,3,3,8,58,6,4,18,2,0,22,7,L,0.06189655172413793,0.058333333333333334,0.052500000000000005,0.08444444444444445
11,12,24,1,7,0.4400000000000002,2,6,45,66,43,61,2.949999999999991,0.17,0.49000000000000027,0.09,10,2,2,1,42,3,9,1,3,0,18,7,L,0.07023809523809525,0.05666666666666667,0.05444444444444444,0.09
11,13,25,1,10,0.5600000000000003,2,15,12,113,34,94,1.750000000000001,1.6900000000000013,0.20000000000000004,0.26000000000000006,4,3,2,2,33,23,3,3,6,0,16,7,L,0.05303030303030303,0.07347826086956522,0.06666666666666668,0.08666666666666667
11,13,26,1,7,0.7800000000000005,3,9,76,24,79,61,3.0799999999999956,0.8900000000000006,0.13999999999999999,0.13999999999999999,8,5,2,2,33,19,5,4,3,0,16,7,L,0.09333333333333334,0.04684210526315789,0.028,0.035
11,14,27,1,14,0.4300000000000002,2,7,41,38,42,37,2.350000000000002,0.45000000000000023,0.2700000000000001,0.09999999999999999,4,3,4,2,30,9,7,3,5,1,60,7,L,0.07833333333333334,0.049999999999999996,0.038571428571428576,0.03333333333333333
11,14,28,1,3,0.7700000000000005,3,16,31,35,17,14,3.0699999999999954,0.25000000000000006,1.7900000000000014,0.04,8,2,8,1,52,5,29,1,5,0,22,7,L,0.05903846153846154,0.049999999999999996,0.061724137931034484,0.04
11,15,29,1,10,0.5700000000000003,2,10,1,113,55,57,3.339999999999985,0.26000000000000006,0.17,0.24000000000000007,8,2,2,3,49,7,3,4,6,0,16,7,L,0.06816326530612245,0.037142857142857144,0.056666666666666664,0.06
11,15,30,1,4,0.3000000000000001,8,11,101,107,105,24,1.650000000000001,1.1900000000000008,0.5900000000000003,0.34000000000000014,12,2,7,2,27,20,10,9,2,0.5,18,7,L,0.061111111111111116,0.059500000000000004,0.059000000000000004,0.03777777777777778
11,16,31,1,6,0.3900000000000002,3,11,60,23,21,16,1.9500000000000013,0.20000000000000004,0.4100000000000002,0.2800000000000001,8,1,2,2,29,2,7,8,4,0.5,40,7,L,0.06724137931034484,0.1,0.05857142857142857,0.035
11,16,32,1,10,0.5900000000000003,4,14,11,10,103,2,3.1999999999999886,0.19000000000000003,0.23000000000000007,0.6500000000000004,11,2,2,3,58,3,3,8,6,0.5,38,7,L,0.05517241379310345,0.06333333333333332,0.07666666666666666,0.08125
11,17,33,1,7,0.5100000000000002,2,14,78,75,17,81,2.1400000000000015,0.9700000000000006,0.35000000000000014,1.0200000000000007,13,7,4,8,35,13,7,13,3,0.5,24,7,L,0.06114285714285715,0.07461538461538463,0.049999999999999996,0.07846153846153847
11,17,34,1,6,0.3300000000000001,2,4,49,56,59,5,1.9200000000000013,0.9700000000000006,0.6900000000000004,0.4400000000000002,6,2,5,4,26,13,11,7,4,0.5,30,7,L,0.07384615384615384,0.07461538461538463,0.06272727272727273,0.06285714285714286
11,18,35,1,14,0.6800000000000004,3,12,48,43,15,18,3.20999999999999,0.09999999999999999,0.9100000000000006,0.3100000000000001,9,2,5,4,53,3,13,5,5,0,22,7,L,0.06056603773584906,0.03333333333333333,0.07,0.062
11,18,36,1,12,0.3200000000000001,3,6,96,36,91,30,2.2100000000000017,0.15,0.8500000000000005,0.20000000000000004,6,1,3,2,36,1,14,2,3,0,16,7,L,0.061388888888888896,0.15,0.06071428571428572,0.1
11,19,37,1,6,0.7000000000000004,10,14,49,58,29,52,2.1800000000000015,0.18000000000000002,0.34000000000000014,0.6700000000000004,14,2,3,4,34,3,3,6,4,0.5,29,7,L,0.06411764705882353,0.06,0.11333333333333336,0.1116666666666667
11,19,38,1,10,0.6500000000000004,4,13,108,40,46,3,3.339999999999987,0.36000000000000015,0.18000000000000002,0.6500000000000004,8,5,2,8,52,9,5,12,6,0,18,7,L,0.06423076923076923,0.04,0.036000000000000004,0.054166666666666675
11,20,39,1,14,0.7000000000000004,4,17,48,43,2,58,2.4700000000000015,0.22000000000000006,0.4200000000000002,0.13999999999999999,8,2,2,1,38,3,5,1,5,0,20,7,L,0.065,0.07333333333333333,0.08399999999999999,0.13999999999999999
11,20,40,1,15,0.2900000000000001,2,5,63,66,27,61,1.2400000000000007,0.9600000000000006,0.38000000000000017,0.05,5,8,3,1,16,22,9,1,4,0.5,29,7,L,0.0775,0.04363636363636364,0.042222222222222223,0.05
11,21,41,1,10,0.49000000000000027,3,9,9,1,11,7,3.3399999999999834,0.4400000000000002,0.04,1.310000000000001,9,4,1,11,54,13,1,17,6,1,72,7,L,0.06185185185185185,0.033846153846153845,0.04,0.07705882352941176
11,21,42,1,7,0.5900000000000003,2,13,77,75,74,18,2.630000000000001,0.25000000000000006,0.24000000000000007,0.5300000000000002,5,2,2,4,49,3,5,13,3,0.5,24,7,L,0.0536734693877551,0.08333333333333334,0.047999999999999994,0.040769230769230766
11,22,43,1,6,0.18000000000000002,2,7,53,56,54,75,1.690000000000001,0.5100000000000002,0.49000000000000027,0.3200000000000001,4,5,2,3,30,12,7,5,4,0.5,27,7,L,0.05633333333333333,0.042499999999999996,0.06999999999999999,0.064
