Subject,Round,Phase,afterbreak,Schema,Schema_RT,Schema_OB,Schema_AS,Cho_1,Cho_2,Cho_3,Cho_4,RT_1,RT_2,RT_3,RT_4,OB_1,OB_2,OB_3,OB_4,AS_1,AS_2,AS_3,AS_4,schema_payoff,AC,performance,breakR,type,dwellmean_1,dwellmean_2,dwellmean_3,dwellmean_4
1,1,1,0,3,0.12999999999999998,2,3,39,1,99,108,0.5000000000000001,0.8800000000000006,0.5400000000000003,0.09999999999999999,4,2,1,1,5,2,1,1,5,0,15,7,H,0.10000000000000002,0.44000000000000017,0.5400000000000003,0.09999999999999999
1,1,2,0,2,0.12999999999999998,2,3,84,24,82,23,0.4700000000000001,0.2900000000000001,0.04,0.8900000000000006,4,2,1,2,5,3,1,2,3,0,18,7,H,0.09400000000000001,0.09666666666666668,0.04,0.4450000000000003
1,2,3,0,4,0.09999999999999999,2,3,35,23,33,66,0.7300000000000003,0.3300000000000001,0.02,0.20000000000000004,3,2,1,2,4,2,1,3,2,0,20,7,H,0.18250000000000008,0.165,0.02,0.06666666666666667
1,2,4,0,5,0.09999999999999999,1,2,3,7,40,54,0.4100000000000001,0.21000000000000005,0.05,0.18000000000000002,3,2,1,1,4,2,1,1,6,0,21,7,H,0.10250000000000001,0.10499999999999998,0.05,0.18000000000000002
1,3,5,0,6,0.24000000000000007,2,3,49,24,44,45,0.46000000000000013,0.16,0.4100000000000002,0.12999999999999998,3,1,3,2,4,1,3,2,4,0,20,7,H,0.115,0.16,0.13666666666666671,0.065
1,3,6,0,9,0.11999999999999998,2,3,32,72,36,5,0.48000000000000015,0.05,0.12999999999999998,0.10999999999999999,3,1,1,1,4,1,1,1,4,0,20,7,H,0.12000000000000004,0.05,0.12999999999999998,0.10999999999999999
1,4,7,0,4,0.12999999999999998,2,3,101,32,27,21,0.33,0.25000000000000006,0.11999999999999998,0.09,4,1,1,1,5,1,1,1,2,0,18,7,H,0.066,0.25000000000000006,0.11999999999999998,0.09
1,4,8,0,8,0.09999999999999999,2,2,114,79,44,2,0.6600000000000003,1.6600000000000013,0.35000000000000014,0.01,4,4,1,1,4,4,1,1,2,0,16,7,H,0.16500000000000006,0.4150000000000002,0.35000000000000014,0.01
1,5,9,0,3,0.17,3,4,47,103,41,46,0.5000000000000001,0.2800000000000001,0.08,0.02,5,1,1,1,6,1,1,1,5,0.5,17,7,H,0.08333333333333334,0.2800000000000001,0.08,0.02
1,5,10,0,7,0.13999999999999999,2,3,95,94,7,25,0.41000000000000003,0.08,0.11999999999999998,0.11999999999999998,3,1,1,1,4,1,1,1,3,0,17,7,H,0.10250000000000002,0.08,0.11999999999999998,0.11999999999999998
1,6,11,0,9,0.6200000000000003,3,4,68,45,67,117,1.0300000000000005,0.09999999999999999,0.08,0.19000000000000003,5,1,1,2,6,1,1,2,4,0,15,7,H,0.17166666666666672,0.09999999999999999,0.08,0.095
1,6,12,0,4,0.13999999999999999,2,3,99,35,59,27,0.4800000000000001,0.25000000000000006,0.09999999999999999,0.060000000000000005,4,1,1,1,5,1,1,1,2,0,16,7,H,0.09600000000000002,0.25000000000000006,0.09999999999999999,0.060000000000000005
1,7,13,1,11,0.12999999999999998,2,3,116,72,115,68,0.5300000000000001,0.09,0.060000000000000005,0.17,4,1,1,1,5,1,1,1,2,0,12,7,H,0.10600000000000002,0.09,0.060000000000000005,0.17
1,7,14,1,7,0.09,1,2,74,28,6,26,0.3700000000000001,0.15,0.19000000000000003,0.05,3,1,2,1,4,1,2,1,3,0,19,7,H,0.0925,0.15,0.095,0.05
1,8,15,1,6,0.20000000000000004,2,2,56,28,11,84,0.45000000000000007,0.4000000000000002,0.7700000000000005,0.01,3,3,2,1,3,5,2,1,4,0,18,7,H,0.15000000000000002,0.08,0.38500000000000023,0.01
1,8,16,1,15,0.15,2,4,64,19,22,88,0.6800000000000003,0.04,0.20000000000000004,0.19000000000000003,4,1,1,1,6,1,1,1,4,0,19,7,H,0.11333333333333337,0.04,0.20000000000000004,0.19000000000000003
1,9,17,1,13,0.11999999999999998,2,2,23,21,73,75,0.46000000000000013,0.04,0.16,0.11999999999999998,4,1,1,2,4,1,1,2,6,0,18,7,H,0.11500000000000002,0.04,0.16,0.060000000000000005
1,9,18,1,12,0.12999999999999998,2,3,91,89,42,71,0.4700000000000001,0.08,0.2800000000000001,0.05,3,1,1,1,4,1,1,1,3,0,15,7,H,0.11750000000000003,0.08,0.2800000000000001,0.05
1,10,19,1,3,0.17,2,3,34,116,31,29,0.5600000000000002,1.1900000000000008,0.02,0.01,4,2,1,1,5,3,1,1,5,0.5,17,7,H,0.11200000000000003,0.3966666666666669,0.02,0.01
1,10,20,1,14,0.15,2,3,47,82,6,3,1.0800000000000005,0.01,1.1300000000000008,0.07,4,1,2,2,5,1,2,2,5,0,20,7,H,0.2160000000000001,0.01,0.5650000000000004,0.035
1,11,21,1,10,0.10999999999999999,1,3,87,4,45,95,0.46000000000000013,0.10999999999999999,0.8100000000000005,0.2800000000000001,2,1,2,3,4,1,2,3,6,0,17,7,H,0.11500000000000003,0.10999999999999999,0.40500000000000025,0.09333333333333335
1,11,22,1,15,0.11999999999999998,2,3,35,71,74,76,0.5400000000000001,0.03,0.09,0.15,3,1,1,2,4,1,1,2,4,0,15,7,H,0.13500000000000006,0.03,0.09,0.075
1,12,23,1,15,0.17,2,3,6,70,79,11,0.6000000000000002,0.060000000000000005,0.3900000000000002,0.03,4,1,1,1,6,1,1,1,4,0,19,7,H,0.10000000000000002,0.060000000000000005,0.3900000000000002,0.03
1,12,24,1,4,0.07,2,2,102,97,21,92,0.27,0.13999999999999999,0.20000000000000004,0.09,3,1,1,1,3,1,1,1,2,0,13,7,H,0.09000000000000001,0.13999999999999999,0.20000000000000004,0.09
1,13,25,1,6,0.12999999999999998,1,2,111,50,60,119,0.6700000000000003,0.08,0.03,0.18000000000000002,2,1,1,2,3,1,1,2,4,0,12,7,H,0.2233333333333334,0.08,0.03,0.09
1,13,26,1,15,0.2700000000000001,3,4,65,1,77,78,0.5600000000000002,2.3699999999999934,2.1199999999999988,1.0300000000000007,4,4,4,2,5,4,4,2,4,0,16,7,H,0.11200000000000002,0.5925000000000004,0.5300000000000002,0.5150000000000003
1,14,27,1,12,0.17,2,3,95,55,86,97,0.43000000000000005,0.2800000000000001,0.8100000000000005,0.08,4,1,3,1,5,1,3,1,3,0,12,7,H,0.08600000000000001,0.2800000000000001,0.27000000000000013,0.08
1,14,28,1,11,0.18000000000000002,2,3,109,69,1,114,0.5100000000000001,0.4100000000000002,0.10999999999999999,0.05,4,2,1,1,5,2,1,1,2,0,14,7,H,0.10200000000000002,0.20500000000000007,0.10999999999999999,0.05
1,15,29,1,4,0.22000000000000006,2,3,105,106,33,31,0.6300000000000002,0.09,0.3200000000000001,0.09999999999999999,4,1,1,1,7,1,1,1,2,0,14,7,H,0.09000000000000001,0.09,0.3200000000000001,0.09999999999999999
1,15,30,1,10,0.22000000000000006,2,2,112,75,59,84,0.7000000000000003,0.10999999999999999,0.03,0.07,4,2,1,1,4,2,1,1,6,0,12,7,H,0.17500000000000002,0.055,0.03,0.07
1,16,31,1,11,0.18000000000000002,4,4,109,113,7,5,0.44000000000000006,0.12999999999999998,0.9800000000000006,0.02,5,1,3,1,5,1,4,1,2,0,16,7,H,0.08800000000000001,0.12999999999999998,0.2450000000000001,0.02
1,16,32,1,12,0.15,3,3,100,61,66,13,2.1400000000000015,1.300000000000001,1.0500000000000007,0.45000000000000023,7,2,2,2,7,2,2,2,3,0,16,7,H,0.3057142857142859,0.6500000000000005,0.5250000000000004,0.22500000000000012
1,17,33,1,6,0.20000000000000004,2,3,114,49,77,27,0.5500000000000002,0.07,0.04,0.09999999999999999,3,1,1,1,4,1,1,1,4,0,14,7,H,0.13750000000000004,0.07,0.04,0.09999999999999999
1,17,34,1,13,0.16,2,3,18,15,22,99,0.5500000000000002,1.9000000000000015,0.01,0.6100000000000003,4,3,1,2,5,3,1,2,6,0.5,20,7,H,0.11000000000000001,0.6333333333333337,0.01,0.30500000000000016
1,18,35,1,4,1.1800000000000008,4,4,100,88,108,8,1.650000000000001,0.3100000000000001,0.05,0.05,6,1,1,1,6,1,1,1,2,0,13,7,H,0.27500000000000013,0.3100000000000001,0.05,0.05
1,18,36,1,15,0.22000000000000006,3,3,65,69,73,76,0.5300000000000001,0.11999999999999998,0.02,0.02,4,1,2,1,4,1,2,1,4,0,14,7,H,0.13250000000000003,0.11999999999999998,0.01,0.02
1,19,37,1,7,0.09999999999999999,2,3,82,81,52,102,0.22999999999999998,0.05,0.18000000000000002,0.16,3,1,1,1,4,1,1,1,3,0,12,7,H,0.057499999999999996,0.05,0.18000000000000002,0.16
1,19,38,1,11,0.17,2,2,115,117,85,69,0.4900000000000001,0.23000000000000007,0.08,0.08,3,1,1,1,3,1,1,1,2,0,11,7,H,0.16333333333333336,0.23000000000000007,0.08,0.08
1,20,39,1,10,0.09999999999999999,2,2,11,3,60,37,0.31000000000000005,0.13999999999999999,0.09,0.16,3,1,1,1,3,1,1,1,6,0,21,7,H,0.10333333333333335,0.13999999999999999,0.09,0.16
1,20,40,1,3,0.13999999999999999,2,3,100,33,69,106,0.4700000000000001,0.05,0.16,0.5600000000000003,3,1,1,3,4,1,1,4,5,0,13,7,H,0.11750000000000003,0.05,0.16,0.14
1,21,41,1,14,0.17,2,3,45,40,75,60,0.5800000000000002,0.08,0.05,0.09,5,1,1,2,7,1,1,2,5,0,17,7,H,0.08285714285714285,0.08,0.05,0.045
1,21,42,1,13,0.09999999999999999,2,3,19,100,18,25,1.0200000000000007,5.269999999999932,0.01,0.03,4,6,1,1,5,7,1,1,6,0,19,7,H,0.20400000000000013,0.7528571428571422,0.01,0.03
1,22,43,1,3,0.11999999999999998,2,3,61,28,106,27,0.7100000000000003,0.02,0.10999999999999999,0.04,3,1,1,1,4,1,1,1,5,0,16,7,H,0.17750000000000007,0.02,0.10999999999999999,0.04
1,22,44,1,14,0.20000000000000004,2,3,48,110,119,55,0.5900000000000002,0.20000000000000004,0.01,0.5100000000000002,4,2,1,2,5,2,1,3,5,0,13,7,H,0.11800000000000002,0.1,0.01,0.1700000000000001
2,1,1,0,9,0.13999999999999999,2,3,62,79,77,38,0.35000000000000003,0.6900000000000004,0.5700000000000003,0.07,4,3,3,2,5,4,3,2,4,0,15,7,H,0.06999999999999999,0.17250000000000007,0.19000000000000006,0.035
2,1,2,0,7,0.11999999999999998,2,3,95,89,59,19,0.38000000000000006,0.060000000000000005,0.15,0.10999999999999999,4,1,1,1,6,1,1,1,3,0,16,7,H,0.06333333333333334,0.060000000000000005,0.15,0.10999999999999999
2,2,3,0,1,0.13999999999999999,2,3,26,31,1,67,0.33,0.10999999999999999,0.45000000000000023,0.01,3,1,2,1,4,1,2,1,5,0,20,7,H,0.0825,0.10999999999999999,0.22500000000000006,0.01
2,2,4,0,4,0.25000000000000006,6,7,105,23,77,20,0.5100000000000001,0.12999999999999998,0.060000000000000005,1.7900000000000014,8,1,1,3,11,1,1,4,2,0,17,7,H,0.046363636363636364,0.12999999999999998,0.060000000000000005,0.4475000000000003
2,3,5,0,6,0.16,2,3,55,32,56,18,0.5800000000000002,0.12999999999999998,0.04,0.05,4,1,1,1,5,1,1,1,4,0,19,7,H,0.11600000000000003,0.12999999999999998,0.04,0.05
2,3,6,0,8,0.12999999999999998,2,3,116,79,115,48,0.33,0.17,0.03,0.10999999999999999,4,2,1,1,5,2,1,1,2,0,12,7,H,0.066,0.08499999999999999,0.03,0.10999999999999999
2,4,7,0,2,0.23000000000000007,2,5,78,81,105,18,0.5300000000000001,0.05,0.47000000000000025,0.02,4,1,2,1,8,1,2,1,3,0,14,7,H,0.06625,0.05,0.2350000000000001,0.02
2,4,8,0,7,0.15,2,3,95,118,2,11,0.4800000000000001,2.3099999999999947,0.01,0.01,4,5,1,1,5,7,1,1,3,0,17,7,H,0.09600000000000002,0.3300000000000002,0.01,0.01
2,5,9,0,9,0.20000000000000004,2,4,65,110,66,36,0.37000000000000005,0.25000000000000006,0.19000000000000003,0.01,4,1,3,1,6,2,3,1,4,0,15,7,H,0.06166666666666666,0.12500000000000003,0.06333333333333332,0.01
2,5,10,0,7,0.25000000000000006,5,6,94,10,5,102,0.6500000000000002,0.11999999999999998,0.04,1.430000000000001,8,1,1,3,10,1,1,3,3,0,17,7,H,0.06500000000000002,0.11999999999999998,0.04,0.4766666666666669
2,6,11,0,6,0.09999999999999999,1,2,54,112,116,11,0.26,0.22000000000000006,0.10999999999999999,0.04,2,2,1,1,3,3,1,1,4,0,14,7,H,0.08666666666666667,0.07333333333333333,0.10999999999999999,0.04
2,6,12,0,2,0.15,2,3,79,105,100,98,0.6200000000000002,0.21000000000000005,3.619999999999967,0.01,4,2,6,1,5,2,6,1,3,0.5,9,7,H,0.12400000000000005,0.10500000000000002,0.6033333333333337,0.01
2,7,13,1,10,0.15,2,3,12,86,65,6,0.37000000000000005,0.3100000000000001,0.07,0.02,4,1,1,1,5,1,1,1,6,0,19,7,H,0.074,0.3100000000000001,0.07,0.02
2,7,14,1,11,0.12999999999999998,2,3,112,109,76,15,0.33,0.08,0.19000000000000003,0.11999999999999998,3,1,1,1,4,1,1,1,2,0,13,7,H,0.08250000000000002,0.08,0.19000000000000003,0.11999999999999998
2,8,15,1,7,0.20000000000000004,2,3,73,83,30,58,0.4800000000000001,0.08,0.3900000000000002,0.04,3,1,2,1,4,1,2,1,3,0,15,7,H,0.12000000000000002,0.08,0.195,0.04
2,8,16,1,12,0.21000000000000005,2,4,70,86,85,114,0.5900000000000002,0.04,0.07,0.03,3,1,1,1,5,1,1,1,3,0,12,7,H,0.11800000000000004,0.04,0.07,0.03
2,9,17,1,14,0.16,3,3,13,44,90,100,0.8200000000000004,0.01,0.01,0.01,6,1,1,1,8,1,1,1,5,0,16,7,H,0.10250000000000001,0.01,0.01,0.01
2,9,18,1,10,0.13999999999999999,2,3,70,3,2,81,0.43000000000000005,0.060000000000000005,1.350000000000001,0.02,3,1,3,1,4,1,5,1,6,0,19,7,H,0.10750000000000003,0.060000000000000005,0.27000000000000013,0.02
2,10,19,1,10,0.17,1,2,106,10,1,31,0.5000000000000001,0.03,0.07,0.25000000000000006,2,1,1,2,3,1,1,2,6,0,19,7,H,0.1666666666666667,0.03,0.07,0.125
2,10,20,1,11,0.21000000000000005,2,3,120,48,115,23,0.5100000000000001,1.280000000000001,0.22000000000000006,0.03,4,3,2,1,5,4,2,1,2,0,15,7,H,0.102,0.3200000000000002,0.11000000000000003,0.03
2,11,21,1,11,0.18000000000000002,2,3,117,34,51,79,0.4100000000000001,0.16,0.09,0.3000000000000001,4,1,1,2,5,1,1,2,2,0,14,7,H,0.08200000000000002,0.16,0.09,0.15000000000000005
2,11,22,1,10,0.20000000000000004,3,4,93,10,85,38,0.4200000000000001,0.10999999999999999,0.12999999999999998,0.060000000000000005,4,1,1,1,5,1,1,1,6,0,17,7,H,0.08400000000000002,0.10999999999999999,0.12999999999999998,0.060000000000000005
2,12,23,1,10,0.19000000000000003,2,3,11,84,34,31,0.44000000000000006,0.10999999999999999,0.13999999999999999,0.03,4,1,2,1,5,1,2,1,6,0,19,7,H,0.088,0.10999999999999999,0.06999999999999999,0.03
2,12,24,1,13,0.26000000000000006,6,6,21,23,70,93,0.7800000000000002,0.01,9.219999999999848,0.01,8,1,8,1,9,1,15,1,6,0,19,7,H,0.0866666666666667,0.01,0.6146666666666667,0.01
2,13,25,1,3,0.21000000000000005,2,3,34,30,7,64,0.4800000000000001,0.10999999999999999,0.12999999999999998,0.07,3,1,2,1,4,1,2,1,5,0,20,7,H,0.12000000000000001,0.10999999999999999,0.065,0.07
2,13,26,1,6,0.23000000000000007,4,5,60,43,46,49,0.39000000000000007,0.2800000000000001,0.08,0.01,6,2,2,1,7,2,2,1,4,0,18,7,H,0.05571428571428571,0.14,0.04,0.01
2,14,27,1,11,0.17,3,4,112,109,34,56,0.43000000000000005,0.09,0.10999999999999999,0.08,4,1,1,1,5,1,1,2,2,0,13,7,H,0.08600000000000002,0.09,0.10999999999999999,0.04
2,14,28,1,14,0.2700000000000001,8,9,37,107,9,4,0.5300000000000001,0.6600000000000004,0.01,2.9199999999999817,9,3,1,5,10,4,1,7,5,0,19,7,H,0.053000000000000005,0.16500000000000006,0.01,0.41714285714285737
2,15,29,1,12,0.21000000000000005,2,3,87,31,85,112,0.5100000000000001,0.060000000000000005,0.07,0.16,4,1,1,2,5,1,1,2,3,0,13,7,H,0.10200000000000002,0.060000000000000005,0.07,0.07999999999999999
2,15,30,1,4,0.25000000000000006,6,6,107,39,105,84,0.7400000000000003,0.09999999999999999,0.02,0.02,8,2,1,1,9,2,1,1,2,0,12,7,H,0.08222222222222224,0.05,0.02,0.02
2,16,31,1,10,0.24000000000000007,2,3,112,4,2,87,0.5900000000000002,0.01,0.23000000000000007,0.02,3,1,2,1,4,1,2,1,6,0,17,7,H,0.14750000000000005,0.01,0.11500000000000002,0.02
2,16,32,1,15,0.22000000000000006,4,4,79,101,29,64,2.7499999999999902,0.01,1.2200000000000009,0.060000000000000005,9,1,3,2,14,1,4,2,4,0,14,7,H,0.19642857142857148,0.01,0.30500000000000016,0.030000000000000002
2,17,33,1,12,0.25000000000000006,2,3,85,57,94,47,0.5600000000000002,0.24000000000000007,0.01,0.09,3,2,1,1,4,2,1,1,3,0,15,7,H,0.14,0.12000000000000001,0.01,0.09
2,17,34,1,15,0.13999999999999999,2,3,103,68,63,24,0.4,0.07,0.05,0.04,3,1,1,1,4,1,1,1,4,0,16,7,H,0.10000000000000002,0.07,0.05,0.04
2,18,35,1,10,0.19000000000000003,2,4,52,11,51,50,0.45000000000000007,0.10999999999999999,0.05,0.6400000000000003,3,1,1,3,5,1,1,3,6,0.5,18,7,H,0.09000000000000001,0.10999999999999999,0.05,0.2133333333333334
2,18,36,1,3,0.25000000000000006,2,3,33,30,106,68,0.5500000000000002,0.07,0.05,0.09999999999999999,3,1,1,1,4,1,1,1,5,0,16,7,H,0.1375,0.07,0.05,0.09999999999999999
2,19,37,1,12,0.2800000000000001,4,6,44,96,43,63,0.5600000000000002,0.09,0.21000000000000005,0.01,5,1,3,1,7,1,3,1,3,0,17,7,H,0.08000000000000002,0.09,0.06999999999999999,0.01
2,19,38,1,7,0.11999999999999998,2,3,76,78,84,80,0.34,0.07,0.07,0.09,4,1,1,1,5,1,1,1,3,1,36,7,H,0.06799999999999999,0.07,0.07,0.09
2,20,39,1,13,0.34000000000000014,2,3,17,20,13,63,0.5900000000000002,0.09,4.019999999999959,0.04,3,1,7,1,4,1,7,1,6,0.5,22,7,H,0.14750000000000005,0.09,0.5742857142857146,0.04
2,20,40,1,10,0.13999999999999999,2,3,3,32,6,5,0.43000000000000005,0.11999999999999998,0.04,0.23000000000000007,4,1,1,2,5,1,1,3,6,0.5,23,7,H,0.08600000000000002,0.11999999999999998,0.04,0.07666666666666669
2,21,41,1,13,0.21000000000000005,2,4,21,74,20,79,0.4100000000000001,0.09,0.09,2.3599999999999937,4,1,1,7,6,1,1,9,6,0,18,7,H,0.06833333333333333,0.09,0.09,0.26222222222222236
2,21,42,1,4,0.16,2,3,7,100,12,95,0.4800000000000001,0.05,0.10999999999999999,0.11999999999999998,3,1,1,2,4,1,1,2,2,0,17,7,H,0.12000000000000004,0.05,0.10999999999999999,0.06
2,22,43,1,12,13.659999999999753,15,43,89,96,9,63,13.669999999999753,0.37000000000000016,0.2800000000000001,1.5600000000000012,16,2,2,4,44,2,2,4,3,0,16,7,H,0.31068181818181834,0.18500000000000003,0.14,0.3900000000000002
2,22,44,1,6,0.19000000000000003,2,3,58,99,35,79,0.4800000000000001,0.16,0.19000000000000003,0.10999999999999999,4,1,1,1,5,1,1,1,4,0,14,7,H,0.096,0.16,0.19000000000000003,0.10999999999999999
3,1,1,0,8,0.13999999999999999,2,2,4,110,27,112,15.569999999999716,1.0500000000000007,0.01,0.01,15,2,1,1,35,2,1,1,2,0,15,7,H,0.4448571428571431,0.5250000000000004,0.01,0.01
3,1,2,0,2,0.5200000000000002,2,4,78,82,77,74,1.4600000000000009,0.37000000000000016,2.2699999999999956,0.6800000000000004,4,1,2,2,7,1,2,2,3,1,36,7,H,0.20857142857142863,0.37000000000000016,1.1349999999999987,0.3400000000000002
3,2,3,0,9,0.4300000000000002,2,3,68,73,7,11,1.9100000000000013,3.9999999999999587,0.09999999999999999,0.04,4,4,2,1,7,4,2,1,4,0,19,7,H,0.27285714285714296,1.0000000000000007,0.05,0.04
3,2,4,0,10,0.5000000000000002,2,3,21,19,17,50,1.8300000000000012,0.2900000000000001,9.189999999999849,0.4300000000000002,4,1,8,1,10,1,11,2,6,0.5,22,7,H,0.18300000000000005,0.2900000000000001,0.8354545454545441,0.21500000000000005
3,3,5,0,4,0.4100000000000002,2,3,108,101,64,102,1.3300000000000007,0.36000000000000015,2.289999999999995,1.0000000000000007,4,1,3,2,5,1,3,2,2,0.5,10,7,H,0.2660000000000001,0.36000000000000015,0.7633333333333339,0.5000000000000003
3,3,6,0,10,0.5200000000000002,2,4,24,20,57,19,1.8900000000000012,1.1600000000000008,5.759999999999922,0.4300000000000002,5,2,4,2,7,3,7,2,6,0.5,22,7,H,0.27000000000000013,0.3866666666666668,0.8228571428571381,0.2150000000000001
3,4,7,0,9,0.15,2,2,13,34,29,110,8.31999999999987,0.02,0.16,0.01,6,1,1,1,18,1,1,1,4,0,18,7,H,0.4622222222222224,0.02,0.16,0.01
3,4,8,0,7,0.6200000000000003,2,6,12,85,108,96,4.619999999999959,0.3900000000000002,0.7600000000000005,0.9700000000000006,6,2,2,2,12,2,3,2,3,0,14,7,H,0.3850000000000002,0.19500000000000006,0.2533333333333334,0.4850000000000003
3,5,9,0,9,0.5200000000000002,2,4,66,94,114,64,1.1700000000000006,1.490000000000001,0.8000000000000005,0.20000000000000004,4,2,3,2,6,3,4,4,4,0,13,7,H,0.19500000000000006,0.496666666666667,0.20000000000000007,0.049999999999999996
3,5,10,0,6,0.6900000000000004,2,5,59,98,9,77,2.2600000000000016,1.2200000000000009,0.9700000000000006,5.35999999999993,4,1,3,4,7,1,5,4,4,0,15,7,H,0.322857142857143,1.2200000000000009,0.19400000000000006,1.3399999999999939
3,6,11,0,3,0.6400000000000003,2,5,38,108,102,58,1.2900000000000007,0.9800000000000006,0.4000000000000002,3.049999999999979,5,2,1,3,11,3,1,9,5,0,13,7,H,0.11727272727272729,0.32666666666666677,0.4000000000000002,0.3388888888888891
3,6,12,0,9,0.5400000000000003,2,3,63,81,28,109,1.4200000000000008,0.7100000000000004,1.0500000000000007,0.19000000000000003,4,1,2,1,5,1,2,1,4,0,14,7,H,0.2840000000000001,0.7100000000000004,0.5250000000000002,0.19000000000000003
3,7,13,1,4,0.5200000000000002,2,3,101,64,65,100,2.2500000000000018,0.5100000000000002,0.6400000000000003,0.3300000000000001,4,1,2,2,5,1,3,2,2,0,12,7,H,0.45000000000000023,0.5100000000000002,0.21333333333333343,0.165
3,7,14,1,7,0.5600000000000003,2,4,74,55,18,38,1.700000000000001,1.0900000000000007,0.6100000000000003,1.7200000000000013,4,2,1,3,6,3,1,4,3,0,18,7,H,0.28333333333333344,0.3633333333333335,0.6100000000000003,0.43000000000000027
3,8,15,1,11,0.6300000000000003,2,5,112,87,89,93,1.2600000000000007,2.7999999999999843,0.49000000000000027,0.36000000000000015,4,2,1,1,7,9,2,1,2,0.5,11,7,H,0.18000000000000005,0.3111111111111112,0.24500000000000005,0.36000000000000015
3,8,16,1,10,0.8000000000000005,2,4,1,12,68,103,1.8200000000000012,0.4200000000000002,0.8500000000000005,0.37000000000000016,4,1,2,1,6,1,2,1,6,0,18,7,H,0.30333333333333345,0.4200000000000002,0.42500000000000016,0.37000000000000016
3,9,17,1,11,0.8300000000000005,2,6,115,84,29,57,1.4000000000000008,3.1099999999999777,0.37000000000000016,0.20000000000000004,4,3,1,1,8,7,1,1,2,0,14,7,H,0.17500000000000004,0.4442857142857145,0.37000000000000016,0.20000000000000004
3,9,18,1,12,0.6600000000000004,3,5,88,10,8,91,1.520000000000001,1.0500000000000007,0.36000000000000015,0.21000000000000005,5,2,1,1,7,4,2,1,3,0,18,7,H,0.21714285714285722,0.2625000000000001,0.18000000000000005,0.21000000000000005
3,10,19,1,14,0.17,2,2,13,90,99,47,16.369999999999735,0.01,0.01,0.01,14,1,1,1,22,1,1,1,5,0,16,7,H,0.7440909090909084,0.01,0.01,0.01
3,10,20,1,3,0.6400000000000003,2,7,34,84,76,78,2.3800000000000017,3.5399999999999685,3.049999999999979,0.49000000000000027,4,3,4,2,11,6,5,3,5,0.5,14,7,H,0.21636363636363648,0.5900000000000003,0.6099999999999982,0.1633333333333334
3,11,21,1,12,0.5400000000000003,2,4,93,88,105,7,1.3300000000000007,0.4300000000000002,1.5400000000000011,0.4000000000000002,3,1,2,1,5,1,4,1,3,0,14,7,H,0.2660000000000001,0.4300000000000002,0.3850000000000002,0.4000000000000002
3,11,22,1,7,0.7000000000000004,2,5,77,23,43,14,1.630000000000001,0.8800000000000006,0.5300000000000002,0.8600000000000005,4,1,1,3,7,1,1,5,3,0,20,7,H,0.23285714285714293,0.8800000000000006,0.5300000000000002,0.17200000000000001
3,12,23,1,7,0.6300000000000003,2,4,80,65,4,100,1.8600000000000012,0.9500000000000006,0.8500000000000005,0.13999999999999999,4,1,2,1,6,1,2,1,3,0,15,7,H,0.3100000000000001,0.9500000000000006,0.4250000000000002,0.13999999999999999
3,12,24,1,12,0.5900000000000003,2,4,94,35,19,23,2.2500000000000018,1.6000000000000012,0.24000000000000007,0.10999999999999999,4,3,1,1,6,3,1,1,3,0,20,7,H,0.3750000000000002,0.5333333333333337,0.24000000000000007,0.10999999999999999
3,13,25,1,7,0.7300000000000004,2,4,74,76,79,108,1.3100000000000007,3.6799999999999655,1.7800000000000014,1.1000000000000008,4,4,4,3,6,7,4,3,3,0.5,11,7,H,0.2183333333333334,0.525714285714286,0.44500000000000023,0.36666666666666686
3,13,26,1,13,0.5700000000000003,2,3,15,14,110,87,1.9600000000000013,0.4200000000000002,1.300000000000001,0.16,4,1,2,1,8,1,3,1,6,0,17,7,H,0.24500000000000008,0.4200000000000002,0.43333333333333357,0.16
3,14,27,1,15,0.5100000000000002,2,4,65,20,17,71,1.590000000000001,1.2300000000000009,0.3000000000000001,0.16,4,2,1,2,6,3,1,3,4,0,20,7,H,0.2650000000000001,0.4100000000000002,0.3000000000000001,0.05333333333333333
3,14,28,1,6,0.4300000000000002,2,3,49,60,27,55,1.2300000000000006,0.5500000000000003,1.380000000000001,0.11999999999999998,3,2,2,1,4,3,2,1,4,0.5,17,7,H,0.30750000000000016,0.18333333333333338,0.6900000000000004,0.11999999999999998
3,15,29,1,13,0.6300000000000003,2,3,15,13,115,120,1.690000000000001,0.37000000000000016,1.7900000000000014,0.5900000000000003,4,1,2,2,7,1,6,3,6,0,16,7,H,0.24142857142857152,0.37000000000000016,0.29833333333333345,0.1966666666666667
3,15,30,1,4,0.7000000000000004,2,4,106,25,97,75,1.9100000000000013,1.350000000000001,0.3100000000000001,0.5900000000000003,4,2,1,2,6,2,1,2,2,0,12,7,H,0.31833333333333347,0.6750000000000004,0.3100000000000001,0.2950000000000001
3,16,31,1,14,0.34000000000000014,2,3,9,110,78,45,2.739999999999993,0.4200000000000002,0.3100000000000001,1.5400000000000011,3,2,1,2,4,2,1,2,5,0,16,7,H,0.6849999999999982,0.21000000000000005,0.3100000000000001,0.7700000000000006
3,16,32,1,12,0.5700000000000003,2,4,91,90,70,34,1.2800000000000007,0.45000000000000023,0.7200000000000004,1.7900000000000014,4,1,2,2,6,1,2,6,3,0,15,7,H,0.2133333333333334,0.45000000000000023,0.36000000000000015,0.29833333333333345
3,17,33,1,6,0.4100000000000002,2,3,51,49,17,108,1.1200000000000006,0.34000000000000014,0.7000000000000004,0.9900000000000007,3,1,1,2,4,1,1,2,4,0,16,7,H,0.28000000000000014,0.34000000000000014,0.7000000000000004,0.4950000000000002
3,17,34,1,14,0.6800000000000004,2,4,39,6,117,66,1.510000000000001,0.8300000000000005,0.48000000000000026,0.22000000000000006,4,1,1,1,6,1,1,1,5,0,17,7,H,0.25166666666666676,0.8300000000000005,0.48000000000000026,0.22000000000000006
3,18,35,1,4,0.49000000000000027,2,3,12,45,103,42,1.8900000000000012,0.5900000000000003,0.25000000000000006,0.46000000000000024,3,1,1,1,4,1,1,1,2,0,18,7,H,0.4725000000000003,0.5900000000000003,0.25000000000000006,0.46000000000000024
3,18,36,1,3,0.7500000000000004,3,5,27,115,82,111,1.4500000000000008,1.6400000000000012,0.9300000000000006,0.7100000000000004,5,2,2,2,7,4,3,2,5,0,12,7,H,0.2071428571428572,0.4100000000000002,0.3100000000000001,0.3550000000000002
3,19,37,1,13,0.8500000000000005,2,4,18,15,14,103,1.560000000000001,0.7100000000000004,4.0299999999999585,0.02,3,2,3,1,5,3,8,1,6,0.5,20,7,H,0.3120000000000001,0.23666666666666675,0.5037500000000003,0.02
3,19,38,1,6,0.4100000000000002,2,3,54,46,81,55,1.2400000000000007,0.6400000000000003,0.9800000000000006,0.12999999999999998,4,2,2,1,6,2,2,1,4,0,16,7,H,0.20666666666666675,0.3200000000000002,0.4900000000000003,0.12999999999999998
3,20,39,1,13,0.8000000000000005,2,7,13,25,110,21,11.36999999999982,0.01,0.03,0.01,9,1,1,1,21,1,1,1,6,0,19,7,H,0.5414285714285709,0.01,0.03,0.01
3,20,40,1,4,0.5500000000000003,2,4,103,101,41,60,1.4800000000000009,0.8400000000000005,2.489999999999991,0.35000000000000014,4,2,3,2,6,2,3,2,2,0,13,7,H,0.24666666666666676,0.42000000000000015,0.8300000000000004,0.17500000000000002
3,21,41,1,6,0.19000000000000003,2,2,1,8,27,103,68.83999999999821,0.04,0.01,0.03,20,1,1,1,111,1,1,1,4,0,19,7,H,0.62018018018018,0.04,0.01,0.03
3,21,42,1,11,0.46000000000000024,3,4,18,19,119,24,13.279999999999772,0.01,0.01,0.01,14,1,1,1,30,1,1,1,2,0.5,20,7,H,0.44266666666666693,0.01,0.01,0.01
4,1,1,0,7,0.4200000000000002,2,4,95,18,22,66,0.9000000000000005,0.6700000000000004,2.429999999999992,0.01,3,4,3,1,5,4,3,1,3,0,19,7,H,0.18000000000000005,0.16750000000000004,0.8099999999999997,0.01
4,1,2,0,2,0.4000000000000002,2,4,82,49,74,60,0.7300000000000003,0.45000000000000023,0.13999999999999999,0.15,4,2,1,1,6,2,1,1,3,0,14,7,H,0.12166666666666669,0.2250000000000001,0.13999999999999999,0.15
4,2,3,0,1,0.3000000000000001,2,4,82,76,83,25,1.0700000000000005,0.8600000000000005,0.04,0.02,3,2,1,1,5,2,1,2,5,0.5,14,7,H,0.2140000000000001,0.43000000000000027,0.04,0.01
4,2,4,0,6,0.38000000000000017,2,4,55,54,119,41,0.7700000000000004,0.35000000000000014,2.289999999999995,0.10999999999999999,4,1,4,2,6,1,4,2,4,0,15,7,H,0.12833333333333335,0.35000000000000014,0.5725000000000003,0.05499999999999999
4,3,5,0,7,0.35000000000000014,2,3,88,86,95,23,0.8300000000000004,0.35000000000000014,0.09999999999999999,0.2800000000000001,3,3,1,1,4,3,1,1,3,0.5,15,7,H,0.20750000000000007,0.11666666666666667,0.09999999999999999,0.2800000000000001
4,3,6,0,2,0.5000000000000002,2,7,81,76,61,72,0.8300000000000003,0.3200000000000001,0.5600000000000003,0.15,4,1,3,1,9,1,3,1,3,0,14,7,H,0.09222222222222223,0.3200000000000001,0.1866666666666667,0.15
4,4,7,0,7,0.3100000000000001,2,3,90,95,26,115,0.7100000000000003,1.430000000000001,0.05,0.07,3,2,1,1,4,2,1,1,3,0,13,7,H,0.17750000000000005,0.7150000000000005,0.05,0.07
4,4,8,0,4,0.3100000000000001,2,3,103,57,60,105,1.0300000000000005,0.25000000000000006,0.17,0.05,4,1,1,1,6,1,1,1,2,0,12,7,H,0.17166666666666672,0.25000000000000006,0.17,0.05
4,5,9,0,7,0.35000000000000014,2,4,109,47,60,48,2.87999999999999,0.01,0.01,0.01,4,1,1,1,6,1,1,1,3,0,16,7,H,0.4799999999999984,0.01,0.01,0.01
4,5,10,0,10,0.3900000000000002,2,3,22,105,75,72,0.9000000000000004,0.8000000000000005,0.08,0.10999999999999999,3,2,1,1,4,3,1,1,6,0,15,7,H,0.2250000000000001,0.2666666666666668,0.08,0.10999999999999999
4,6,11,0,10,0.4000000000000002,2,4,84,54,117,16,1.2700000000000007,1.330000000000001,1.5500000000000012,0.01,4,2,3,1,7,2,3,1,6,0,15,7,H,0.18142857142857147,0.6650000000000005,0.5166666666666669,0.01
4,6,12,0,9,0.3900000000000002,2,3,94,63,104,97,1.9400000000000013,0.01,0.02,0.04,6,1,1,1,8,1,1,1,4,0,11,7,H,0.24250000000000008,0.01,0.02,0.04
4,7,13,1,7,0.3200000000000001,2,3,17,84,51,56,1.0900000000000005,0.18000000000000002,0.17,0.20000000000000004,3,1,1,1,4,1,1,1,3,0,17,7,H,0.27250000000000013,0.18000000000000002,0.17,0.20000000000000004
4,7,14,1,15,0.34000000000000014,2,3,69,5,3,30,2.42,0.09999999999999999,0.02,0.01,6,1,1,1,9,1,1,1,4,0,21,7,H,0.268888888888889,0.09999999999999999,0.02,0.01
4,8,15,1,11,0.46000000000000024,2,5,14,110,64,77,1.3600000000000008,0.03,0.2700000000000001,0.07,5,1,2,1,9,1,3,1,2,0,15,7,H,0.15111111111111114,0.03,0.09,0.07
4,8,16,1,12,0.4000000000000002,2,4,104,2,59,103,1.4800000000000009,0.24000000000000007,0.04,0.13999999999999999,5,2,1,1,9,2,1,1,3,0,14,7,H,0.1644444444444445,0.12000000000000002,0.04,0.13999999999999999
4,9,17,1,13,0.35000000000000014,2,4,22,21,44,39,0.9100000000000004,0.47000000000000025,0.19000000000000003,3.1299999999999772,4,3,1,5,6,5,1,5,6,0,22,7,H,0.1516666666666667,0.094,0.19000000000000003,0.6259999999999981
4,9,18,1,6,0.11999999999999998,2,2,5,36,12,80,8.679999999999861,0.01,0.01,0.01,15,1,1,1,21,1,1,1,4,0,20,7,H,0.41333333333333355,0.01,0.01,0.01
4,10,19,1,13,0.2900000000000001,2,3,21,36,20,94,0.7600000000000003,0.45000000000000023,1.270000000000001,0.23000000000000007,4,1,3,1,5,1,4,1,6,0,20,7,H,0.15200000000000002,0.45000000000000023,0.31750000000000017,0.23000000000000007
4,10,20,1,14,0.4100000000000002,2,4,73,7,103,40,1.1700000000000006,0.17,0.20000000000000004,0.060000000000000005,4,1,1,1,6,1,1,1,5,0,16,7,H,0.19500000000000006,0.17,0.20000000000000004,0.060000000000000005
4,11,21,1,14,0.4400000000000002,2,4,21,78,66,23,1.4000000000000008,0.12999999999999998,0.10999999999999999,0.07,4,1,1,1,6,1,1,1,5,0,19,7,H,0.23333333333333342,0.12999999999999998,0.10999999999999999,0.07
4,11,22,1,11,0.3300000000000001,2,3,8,33,9,25,0.9600000000000004,0.35000000000000014,0.10999999999999999,1.440000000000001,3,1,1,3,4,1,1,3,2,0,22,7,H,0.2400000000000001,0.35000000000000014,0.10999999999999999,0.4800000000000003
4,12,23,1,13,0.4000000000000002,2,3,22,97,62,23,0.7600000000000003,0.5900000000000003,0.15,0.8500000000000005,4,1,1,4,5,1,1,4,6,0,18,7,H,0.15200000000000002,0.5900000000000003,0.15,0.21250000000000008
4,12,24,1,6,0.4400000000000002,2,5,74,53,27,32,1.1000000000000005,0.09999999999999999,0.35000000000000014,0.09,3,1,2,1,6,1,2,1,4,0,17,7,H,0.1833333333333334,0.09999999999999999,0.17500000000000002,0.09
4,13,25,1,12,0.3100000000000001,2,4,97,23,44,86,1.0600000000000005,0.3200000000000001,0.2800000000000001,0.03,3,1,1,1,5,1,2,1,3,0,16,7,H,0.2120000000000001,0.3200000000000001,0.14,0.03
4,13,26,1,7,0.4300000000000002,2,4,57,54,51,33,1.0700000000000005,0.16,0.2800000000000001,0.19000000000000003,3,1,1,1,5,1,1,1,3,0.5,17,7,H,0.21400000000000008,0.16,0.2800000000000001,0.19000000000000003
4,14,27,1,4,0.20000000000000004,3,3,2,65,10,68,2.3299999999999987,0.01,0.03,0.01,8,1,1,1,8,1,1,1,2,0,20,7,H,0.2912500000000001,0.01,0.03,0.01
4,14,28,1,13,0.35000000000000014,2,3,23,18,13,38,1.1100000000000005,6.7599999999999,0.02,0.26000000000000006,6,8,1,2,8,12,1,2,6,0.5,23,7,H,0.13875,0.5633333333333337,0.02,0.13000000000000003
4,15,29,1,14,0.34000000000000014,2,3,43,97,69,76,1.2000000000000006,0.23000000000000007,0.08,0.10999999999999999,4,1,1,1,6,1,1,1,5,0,14,7,H,0.20000000000000007,0.23000000000000007,0.08,0.10999999999999999
4,15,30,1,3,0.36000000000000015,2,3,15,36,94,56,1.3800000000000008,0.03,0.25000000000000006,0.10999999999999999,5,1,1,2,6,1,1,2,5,0,18,7,H,0.23000000000000007,0.03,0.25000000000000006,0.05500000000000001
4,16,31,1,10,0.4400000000000002,2,3,106,88,85,27,1.1000000000000005,0.4100000000000002,0.12999999999999998,0.09999999999999999,3,2,1,1,4,3,1,1,6,0,13,7,H,0.27500000000000013,0.1366666666666667,0.12999999999999998,0.09999999999999999
4,16,32,1,14,0.36000000000000015,2,4,42,18,59,110,0.9500000000000004,0.37000000000000016,0.16,0.2900000000000001,4,2,1,2,6,3,1,2,5,0,17,7,H,0.15833333333333338,0.12333333333333334,0.16,0.14500000000000002
4,17,33,1,14,0.4000000000000002,2,3,12,40,51,5,1.0500000000000005,0.45000000000000023,0.060000000000000005,0.24000000000000007,3,2,1,2,4,3,1,2,5,0,21,7,H,0.2625000000000001,0.15,0.060000000000000005,0.12000000000000002
4,17,34,1,13,0.4000000000000002,2,3,29,72,16,22,0.9800000000000004,0.3100000000000001,0.2800000000000001,0.5400000000000003,3,1,2,3,4,1,2,4,6,0,21,7,H,0.24500000000000008,0.3100000000000001,0.14,0.13500000000000004
4,18,35,1,11,0.35000000000000014,2,5,109,119,14,73,5.629999999999932,1.7500000000000013,3.839999999999962,0.01,14,4,6,1,19,5,7,1,2,0,13,7,H,0.29631578947368437,0.35000000000000014,0.5485714285714279,0.01
4,18,36,1,4,0.4100000000000002,2,3,104,37,6,11,0.7700000000000004,0.7100000000000004,0.08,0.060000000000000005,4,2,1,1,5,4,1,1,2,0,19,7,H,0.15400000000000003,0.17750000000000002,0.08,0.060000000000000005
4,19,37,1,7,0.4100000000000002,2,3,37,81,46,39,1.2300000000000006,0.07,0.11999999999999998,0.13999999999999999,5,1,1,1,8,1,1,1,3,0.5,18,7,H,0.15375000000000003,0.07,0.11999999999999998,0.13999999999999999
4,19,38,1,13,0.3100000000000001,2,4,24,59,28,25,0.7200000000000003,0.38000000000000017,0.20000000000000004,0.10999999999999999,4,1,2,1,6,1,2,1,6,0,20,7,H,0.12000000000000002,0.38000000000000017,0.09999999999999999,0.10999999999999999
4,20,39,1,15,0.3900000000000002,3,4,6,72,9,114,0.9600000000000004,0.24000000000000007,0.13999999999999999,0.10999999999999999,4,1,1,1,5,1,1,2,4,0,18,7,H,0.19200000000000006,0.24000000000000007,0.13999999999999999,0.05499999999999999
4,20,40,1,6,0.3900000000000002,2,4,60,99,36,17,0.7100000000000003,0.6300000000000003,0.16,0.11999999999999998,3,2,1,1,5,6,1,1,4,0,17,7,H,0.14200000000000002,0.105,0.16,0.11999999999999998
4,21,41,1,6,0.4000000000000002,2,4,94,24,48,17,1.7600000000000011,0.16,0.03,0.05,6,2,1,1,10,2,1,1,4,0,20,7,H,0.17600000000000005,0.08,0.03,0.05
4,21,42,1,7,0.36000000000000015,4,4,1,74,8,78,0.9400000000000004,0.22000000000000006,0.09,2.1799999999999975,6,1,1,2,7,2,1,3,3,0,18,7,H,0.1342857142857143,0.11000000000000001,0.09,0.7266666666666671
4,22,43,1,7,0.5800000000000003,3,6,81,7,78,45,0.8900000000000003,0.5500000000000003,0.05,0.2900000000000001,4,2,1,2,7,4,1,4,3,0,17,7,H,0.12714285714285714,0.1375,0.05,0.0725
4,22,44,1,12,0.4100000000000002,4,5,90,56,96,49,1.4100000000000008,0.12999999999999998,0.48000000000000026,0.03,6,1,1,1,9,1,1,1,3,0,14,7,H,0.1566666666666667,0.12999999999999998,0.48000000000000026,0.03
5,1,1,0,7,0.13999999999999999,2,3,95,112,85,91,0.5300000000000001,0.9700000000000006,0.01,0.01,4,2,1,1,5,3,1,1,3,0.5,11,7,H,0.10600000000000001,0.3233333333333335,0.01,0.01
5,1,2,0,10,0.17,2,3,18,57,53,76,0.6900000000000003,0.7000000000000004,0.37000000000000016,0.23000000000000007,4,2,2,2,5,4,2,2,6,0,17,7,H,0.13800000000000004,0.17500000000000004,0.18500000000000003,0.11500000000000003
5,2,3,0,6,0.11999999999999998,2,2,51,49,50,75,0.49000000000000016,0.20000000000000004,0.2700000000000001,0.08,3,1,2,1,3,1,2,1,4,0.5,15,7,H,0.16333333333333339,0.20000000000000004,0.135,0.08
5,2,4,0,4,0.13999999999999999,2,3,91,107,87,63,0.8600000000000004,0.02,0.5400000000000003,0.2900000000000001,3,1,2,1,4,1,2,1,2,0,12,7,H,0.2150000000000001,0.02,0.27000000000000013,0.2900000000000001
5,3,5,0,4,0.13999999999999999,2,3,100,105,36,93,0.4600000000000001,0.3900000000000002,0.3300000000000001,0.07,4,2,2,1,5,2,3,1,2,0,12,7,H,0.09200000000000003,0.19500000000000006,0.11,0.07
5,3,6,0,2,0.17,2,4,82,114,55,23,1.2500000000000007,0.03,1.440000000000001,0.01,4,1,2,1,6,1,2,1,3,0,15,7,H,0.20833333333333345,0.03,0.7200000000000005,0.01
5,4,7,0,3,0.13999999999999999,2,3,14,114,44,46,0.6100000000000002,0.3000000000000001,0.05,0.05,3,2,1,1,4,2,1,1,5,0,18,7,H,0.15250000000000005,0.15000000000000002,0.05,0.05
5,4,8,0,5,0.09999999999999999,1,2,97,9,27,52,0.9100000000000005,0.05,0.25000000000000006,0.060000000000000005,2,1,2,1,3,1,2,1,6,0,17,7,H,0.3033333333333335,0.05,0.12500000000000003,0.060000000000000005
5,5,9,0,8,0.19000000000000003,2,3,113,85,20,37,0.7700000000000004,0.3200000000000001,0.04,0.07,4,1,1,1,6,1,1,1,2,0,16,7,H,0.12833333333333335,0.3200000000000001,0.04,0.07
5,5,10,0,2,0.16,3,3,79,78,10,8,0.5100000000000001,0.20000000000000004,0.3200000000000001,0.18000000000000002,4,1,1,1,4,1,1,1,3,0,18,7,H,0.12750000000000003,0.20000000000000004,0.3200000000000001,0.18000000000000002
5,6,11,0,10,0.15,2,3,21,40,24,98,0.6400000000000002,0.7000000000000004,0.08,0.01,4,2,2,1,5,2,2,1,6,0,19,7,H,0.12800000000000003,0.3500000000000002,0.04,0.01
5,6,12,0,8,0.17,3,3,112,119,9,79,0.6900000000000003,0.10999999999999999,0.13999999999999999,0.11999999999999998,5,1,1,2,6,1,1,2,2,0,13,7,H,0.11500000000000003,0.10999999999999999,0.13999999999999999,0.06
5,7,13,1,13,0.11999999999999998,2,3,68,16,34,98,0.7400000000000003,0.05,0.6600000000000004,1.2100000000000009,3,1,2,3,4,1,2,3,6,0,17,7,H,0.18500000000000008,0.05,0.3300000000000001,0.4033333333333336
5,7,14,1,11,0.23000000000000007,3,3,117,113,38,54,0.5000000000000001,0.23000000000000007,0.2800000000000001,0.08,4,1,1,1,4,1,1,1,2,0,13,7,H,0.12500000000000003,0.23000000000000007,0.2800000000000001,0.08
5,8,15,1,4,0.19000000000000003,2,3,57,56,75,24,0.8500000000000004,0.10999999999999999,0.6200000000000003,0.01,4,1,1,1,6,1,1,1,2,0,17,7,H,0.1416666666666667,0.10999999999999999,0.6200000000000003,0.01
5,8,16,1,12,0.09999999999999999,2,2,90,88,10,63,0.46000000000000013,0.18000000000000002,0.24000000000000007,0.04,3,1,2,1,3,1,2,1,3,0,16,7,H,0.15333333333333338,0.18000000000000002,0.12000000000000001,0.04
5,9,17,1,12,0.10999999999999999,1,2,70,92,89,87,0.6600000000000003,0.07,0.09,0.07,2,1,1,1,3,1,1,1,3,0.5,13,7,H,0.22000000000000008,0.07,0.09,0.07
5,9,18,1,3,0.23000000000000007,5,5,26,11,76,34,0.4800000000000001,0.5000000000000002,0.18000000000000002,0.04,6,2,1,1,6,2,1,1,5,0,19,7,H,0.08000000000000002,0.2500000000000001,0.18000000000000002,0.04
5,10,19,1,4,0.10999999999999999,2,2,99,100,41,93,0.5400000000000003,0.09,0.6100000000000003,0.01,4,1,2,1,4,1,2,1,2,0,12,7,H,0.13500000000000004,0.09,0.3050000000000001,0.01
5,10,20,1,11,0.09999999999999999,2,3,112,119,84,18,0.5500000000000003,0.05,1.7200000000000013,0.02,4,1,3,1,7,1,3,1,2,0,13,7,H,0.07857142857142857,0.05,0.5733333333333337,0.02
5,11,21,1,3,0.15,2,3,29,33,114,65,0.5300000000000001,0.09,0.25000000000000006,0.22000000000000006,3,1,1,1,4,1,1,1,5,0,16,7,H,0.13250000000000003,0.09,0.25000000000000006,0.22000000000000006
5,11,22,1,6,0.21000000000000005,4,4,49,60,102,42,0.5100000000000001,0.19000000000000003,1.360000000000001,0.02,5,1,2,1,5,1,9,1,4,0,15,7,H,0.10200000000000002,0.19000000000000003,0.15111111111111117,0.02
5,12,23,1,7,0.17,2,4,84,30,16,72,0.5300000000000001,0.7500000000000004,0.19000000000000003,0.01,4,1,1,1,6,1,1,1,3,0,18,7,H,0.08833333333333335,0.7500000000000004,0.19000000000000003,0.01
5,12,24,1,4,0.10999999999999999,2,2,103,107,87,45,0.48000000000000015,0.17,0.35000000000000014,0.03,3,1,2,1,3,1,4,1,2,0,12,7,H,0.16000000000000006,0.17,0.0875,0.03
5,13,25,1,4,0.12999999999999998,2,2,98,99,102,45,1.2100000000000006,1.8800000000000014,0.01,2.07,4,4,1,4,4,5,1,5,2,0.5,11,7,H,0.30250000000000016,0.37600000000000017,0.01,0.4140000000000002
5,13,26,1,10,0.15,2,2,4,8,109,3,0.5600000000000002,0.19000000000000003,0.9000000000000006,0.9600000000000006,3,1,3,3,3,1,4,3,6,0.5,20,7,H,0.18666666666666673,0.19000000000000003,0.2250000000000001,0.3200000000000002
5,14,27,1,15,0.16,2,3,66,21,71,39,0.6100000000000002,0.34000000000000014,0.26000000000000006,0.04,4,1,2,1,5,1,2,1,4,0,19,7,H,0.12200000000000003,0.34000000000000014,0.13000000000000003,0.04
5,14,28,1,3,0.18000000000000002,3,3,25,59,36,107,0.5500000000000002,0.4300000000000002,0.03,0.18000000000000002,4,2,1,1,4,2,1,1,5,0,16,7,H,0.13750000000000004,0.21500000000000008,0.03,0.18000000000000002
5,15,29,1,7,0.11999999999999998,2,2,56,5,73,54,3.7699999999999663,0.6400000000000003,0.01,0.02,6,2,1,1,9,2,1,1,3,0,17,7,H,0.41888888888888914,0.3200000000000002,0.01,0.02
5,15,30,1,12,0.13999999999999999,2,3,86,41,68,89,0.4800000000000001,0.3100000000000001,0.13999999999999999,0.04,3,2,1,1,4,2,1,1,3,0,15,7,H,0.12000000000000004,0.15500000000000003,0.13999999999999999,0.04
5,16,31,1,7,0.12999999999999998,2,3,48,82,80,37,0.6600000000000003,0.02,0.16,0.09999999999999999,4,1,1,1,6,1,1,1,3,0,16,7,H,0.11000000000000001,0.02,0.16,0.09999999999999999
5,16,32,1,12,0.08,2,2,91,27,2,103,0.5500000000000003,0.4000000000000002,0.17,0.16,4,2,2,1,4,2,2,1,3,0,16,7,H,0.13750000000000004,0.20000000000000007,0.08499999999999999,0.16
5,17,33,1,11,0.23000000000000007,5,5,111,69,24,119,0.5300000000000001,0.5000000000000002,0.02,0.07,6,2,1,1,6,2,1,1,2,0,14,7,H,0.08833333333333335,0.25000000000000006,0.02,0.07
5,17,34,1,6,0.08,1,2,55,41,46,58,0.6400000000000002,0.25000000000000006,0.07,0.03,3,2,1,1,4,4,1,1,4,0,18,7,H,0.16000000000000006,0.06249999999999999,0.07,0.03
5,18,35,1,3,0.18000000000000002,2,3,25,31,7,11,0.5900000000000002,0.3100000000000001,0.08,0.08,4,2,1,1,5,2,1,1,5,0,22,7,H,0.11800000000000001,0.155,0.08,0.08
5,18,36,1,15,0.23000000000000007,1,2,76,61,120,43,0.6400000000000002,0.13999999999999999,0.17,0.09,2,1,1,1,3,1,1,1,4,0,14,7,H,0.2133333333333334,0.13999999999999999,0.17,0.09
5,19,37,1,12,0.19000000000000003,2,4,90,17,114,53,0.5900000000000002,0.37000000000000016,0.21000000000000005,0.01,4,2,1,1,7,2,1,1,3,0,15,7,H,0.08428571428571431,0.18500000000000003,0.21000000000000005,0.01
5,19,38,1,4,0.09999999999999999,2,2,98,103,39,37,0.5300000000000002,0.07,0.21000000000000005,0.12999999999999998,4,1,1,1,4,1,1,1,2,0,14,7,H,0.13250000000000003,0.07,0.21000000000000005,0.12999999999999998
5,20,39,1,7,0.18000000000000002,2,3,83,74,28,10,0.6600000000000003,0.09999999999999999,0.10999999999999999,0.09999999999999999,3,1,1,1,4,1,1,1,3,0,17,7,H,0.16500000000000006,0.09999999999999999,0.10999999999999999,0.09999999999999999
5,20,40,1,14,0.12999999999999998,2,2,41,45,101,23,0.5400000000000001,0.18000000000000002,0.18000000000000002,0.07,4,1,1,1,5,1,1,1,5,0,18,7,H,0.10800000000000003,0.18000000000000002,0.18000000000000002,0.07
5,21,41,1,6,0.17,3,3,51,85,52,96,0.5800000000000002,0.4400000000000002,0.02,0.22000000000000006,4,2,1,2,4,2,1,2,4,0,14,7,H,0.14500000000000005,0.22000000000000006,0.02,0.11000000000000001
5,21,42,1,10,0.18000000000000002,2,2,7,5,73,37,0.6400000000000002,0.03,0.9800000000000006,0.13999999999999999,4,1,2,1,6,1,3,1,6,0,20,7,H,0.10666666666666667,0.03,0.32666666666666677,0.13999999999999999
5,22,43,1,4,0.16,2,3,49,13,103,52,0.6300000000000002,0.3000000000000001,0.01,0.04,3,2,1,1,4,2,1,1,2,0,16,7,H,0.15750000000000006,0.15000000000000005,0.01,0.04
5,22,44,1,7,0.3000000000000001,2,3,79,10,66,34,0.8200000000000003,0.09999999999999999,0.20000000000000004,0.02,4,1,2,1,5,1,2,1,3,0,18,7,H,0.16400000000000003,0.09999999999999999,0.09999999999999999,0.02
6,1,1,0,9,0.26000000000000006,2,3,67,73,66,78,0.9900000000000004,0.34000000000000014,0.34000000000000014,0.07,4,2,3,1,5,3,4,1,4,0,14,7,H,0.19800000000000006,0.11333333333333336,0.08500000000000002,0.07
6,1,2,0,6,0.3000000000000001,2,3,57,53,19,116,0.8200000000000003,0.15,0.9400000000000006,0.07,4,1,2,1,8,1,2,1,4,0,16,7,H,0.10250000000000002,0.15,0.4700000000000003,0.07
6,2,3,0,2,0.3200000000000001,2,3,73,79,84,112,0.9400000000000004,0.10999999999999999,0.21000000000000005,0.2700000000000001,3,1,2,2,4,1,3,2,3,0.5,11,7,H,0.2350000000000001,0.10999999999999999,0.06999999999999999,0.13499999999999998
6,2,4,0,10,0.3100000000000001,2,3,20,24,49,33,1.0200000000000005,0.02,0.4000000000000002,0.23000000000000007,4,1,2,2,8,1,3,3,6,0,21,7,H,0.1275,0.02,0.13333333333333336,0.07666666666666666
6,3,5,0,8,0.2800000000000001,2,3,114,96,36,64,0.6800000000000003,3.0699999999999785,0.04,0.01,4,3,2,1,5,3,2,1,2,0,14,7,H,0.13600000000000004,1.0233333333333294,0.02,0.01
6,3,6,0,3,0.13999999999999999,2,2,81,73,41,104,2.5099999999999936,0.22000000000000006,0.09999999999999999,0.6400000000000003,5,2,1,2,7,2,1,2,5,0,13,7,H,0.35857142857142876,0.10999999999999999,0.09999999999999999,0.3200000000000002
6,4,7,0,7,0.3000000000000001,2,3,96,28,63,88,1.0200000000000005,0.060000000000000005,0.2900000000000001,0.07,4,1,1,1,5,1,1,1,3,0,15,7,H,0.20400000000000007,0.060000000000000005,0.2900000000000001,0.07
6,4,8,0,3,0.34000000000000014,2,3,39,20,117,54,0.9300000000000004,2.769999999999985,0.01,0.01,4,3,1,1,5,4,1,1,5,0,17,7,H,0.18600000000000005,0.6924999999999997,0.01,0.01
6,5,9,0,2,0.2900000000000001,2,3,110,73,79,61,0.9700000000000004,0.15,0.13999999999999999,0.20000000000000004,3,2,1,1,4,3,1,1,3,0,12,7,H,0.2425000000000001,0.05,0.13999999999999999,0.20000000000000004
6,5,10,0,7,0.34000000000000014,7,7,95,101,90,58,2.5699999999999967,0.03,0.22000000000000006,0.01,11,1,1,1,12,1,1,1,3,0,12,7,H,0.21416666666666678,0.03,0.22000000000000006,0.01
6,6,11,0,4,0.4300000000000002,4,5,46,99,41,104,1.1300000000000006,0.12999999999999998,0.19000000000000003,0.24000000000000007,5,1,1,2,6,1,1,2,2,0,14,7,H,0.1883333333333334,0.12999999999999998,0.19000000000000003,0.12000000000000002
6,6,12,0,1,0.3000000000000001,2,4,30,113,120,111,1.0100000000000005,0.2800000000000001,0.3900000000000002,0.08,4,1,2,1,6,1,3,1,5,0.5,11,7,H,0.1683333333333334,0.2800000000000001,0.13,0.08
6,7,13,1,14,0.3200000000000001,3,5,42,23,38,74,0.7800000000000004,0.5300000000000002,0.07,0.12999999999999998,5,2,1,1,8,2,1,1,5,0,19,7,H,0.09750000000000002,0.2650000000000001,0.07,0.12999999999999998
6,7,14,1,4,0.34000000000000014,2,4,97,9,62,3,0.7500000000000003,0.6600000000000004,0.09,0.13999999999999999,4,2,1,2,6,3,1,2,2,0,18,7,H,0.12500000000000003,0.22000000000000008,0.09,0.06999999999999999
6,8,15,1,11,0.26000000000000006,2,3,65,109,64,92,1.0200000000000005,0.07,0.2800000000000001,0.37000000000000016,3,1,1,1,4,1,1,1,2,0,13,7,H,0.2550000000000001,0.07,0.2800000000000001,0.37000000000000016
6,8,16,1,3,0.34000000000000014,2,3,30,75,19,33,0.9300000000000004,0.4000000000000002,0.08,0.09999999999999999,4,2,1,1,7,2,1,1,5,0,19,7,H,0.13285714285714287,0.2,0.08,0.09999999999999999
6,9,17,1,15,0.3200000000000001,2,3,70,114,92,32,0.8400000000000003,0.4400000000000002,0.2700000000000001,0.01,4,1,2,1,5,1,2,1,4,0,14,7,H,0.16800000000000004,0.4400000000000002,0.135,0.01
6,9,18,1,7,0.37000000000000016,2,4,83,6,52,40,1.0200000000000005,0.16,0.26000000000000006,0.5000000000000002,4,1,1,1,6,1,1,1,3,0,18,7,H,0.17000000000000007,0.16,0.26000000000000006,0.5000000000000002
6,10,19,1,3,0.4200000000000002,2,3,29,11,25,76,1.1900000000000006,0.2800000000000001,0.11999999999999998,0.060000000000000005,4,2,1,1,7,2,1,1,5,0,19,7,H,0.17000000000000004,0.13999999999999999,0.11999999999999998,0.060000000000000005
6,10,20,1,11,0.3900000000000002,6,7,118,116,117,51,0.7400000000000003,0.3000000000000001,0.09999999999999999,0.24000000000000007,7,2,1,2,8,2,1,3,2,0.5,10,7,H,0.09250000000000003,0.15000000000000002,0.09999999999999999,0.08
6,11,21,1,4,0.3000000000000001,2,3,105,106,60,38,0.8000000000000003,0.10999999999999999,1.270000000000001,0.01,3,1,2,1,4,1,2,1,2,0,13,7,H,0.20000000000000004,0.10999999999999999,0.6350000000000005,0.01
6,11,22,1,13,0.3300000000000001,2,3,22,75,29,61,0.8900000000000003,0.36000000000000015,0.08,0.060000000000000005,4,1,1,1,5,1,1,1,6,0,18,7,H,0.17800000000000005,0.36000000000000015,0.08,0.060000000000000005
6,12,23,1,12,0.38000000000000017,2,4,96,31,97,66,0.7500000000000003,0.4100000000000002,0.2900000000000001,0.09999999999999999,3,2,1,1,5,2,1,1,3,0,14,7,H,0.15000000000000002,0.20500000000000002,0.2900000000000001,0.09999999999999999
6,12,24,1,14,0.2700000000000001,2,3,38,46,58,20,0.8100000000000003,0.09999999999999999,0.21000000000000005,0.25000000000000006,3,1,1,1,4,1,1,1,5,0,20,7,H,0.20250000000000007,0.09999999999999999,0.21000000000000005,0.25000000000000006
6,13,25,1,6,0.3100000000000001,2,4,49,87,55,116,1.1400000000000006,0.26000000000000006,0.09999999999999999,0.060000000000000005,4,1,1,1,6,1,1,1,4,0,13,7,H,0.19000000000000006,0.26000000000000006,0.09999999999999999,0.060000000000000005
6,13,26,1,15,0.5500000000000003,3,5,66,25,31,71,1.2700000000000007,0.04,0.12999999999999998,0.12999999999999998,5,1,1,1,9,1,1,1,4,0,18,7,H,0.14111111111111113,0.04,0.12999999999999998,0.12999999999999998
6,14,27,1,6,0.2800000000000001,2,3,40,59,85,4,1.1000000000000005,0.07,0.25000000000000006,0.060000000000000005,3,1,1,1,4,1,1,1,4,0,18,7,H,0.27500000000000013,0.07,0.25000000000000006,0.060000000000000005
6,14,28,1,3,0.5200000000000002,2,3,104,30,67,75,1.2600000000000007,0.25000000000000006,0.05,0.05,3,1,1,1,4,1,1,1,5,0,14,7,H,0.3150000000000001,0.25000000000000006,0.05,0.05
6,15,29,1,3,0.5000000000000002,11,11,26,31,99,89,1.0000000000000004,0.2900000000000001,0.2700000000000001,0.47000000000000025,12,1,2,2,12,1,2,2,5,0,15,7,H,0.08333333333333336,0.2900000000000001,0.13499999999999998,0.2350000000000001
6,15,30,1,13,0.22000000000000006,2,4,22,71,20,15,0.6300000000000002,0.24000000000000007,0.12999999999999998,0.13999999999999999,4,1,1,2,6,1,1,2,6,0.5,22,7,H,0.10500000000000001,0.24000000000000007,0.12999999999999998,0.06999999999999999
6,16,31,1,14,0.3300000000000001,2,5,105,38,66,92,0.8900000000000003,0.09,0.4400000000000002,0.02,3,1,2,1,6,1,3,1,5,0,14,7,H,0.14833333333333337,0.09,0.1466666666666667,0.02
6,16,32,1,13,0.26000000000000006,2,3,26,23,20,21,0.8400000000000003,0.08,2.349999999999994,0.01,3,1,4,1,4,1,4,1,6,0.5,23,7,H,0.21000000000000008,0.08,0.5875000000000004,0.01
6,17,33,1,3,0.3900000000000002,2,3,35,118,78,72,1.0200000000000005,0.3300000000000001,0.11999999999999998,0.060000000000000005,4,2,1,1,5,2,1,1,5,0,14,7,H,0.20400000000000004,0.16500000000000004,0.11999999999999998,0.060000000000000005
6,17,34,1,14,0.35000000000000014,2,6,40,102,95,108,0.7400000000000003,0.36000000000000015,1.7000000000000013,0.4100000000000002,4,1,3,2,8,1,3,2,5,0,12,7,H,0.09250000000000001,0.36000000000000015,0.566666666666667,0.2050000000000001
6,18,35,1,6,0.3200000000000001,2,4,51,49,45,38,0.8900000000000003,0.09,0.34000000000000014,0.11999999999999998,4,1,2,1,6,1,2,1,4,0,18,7,H,0.14833333333333337,0.09,0.17000000000000004,0.11999999999999998
6,18,36,1,3,0.45000000000000023,2,4,28,87,119,93,0.9700000000000004,0.36000000000000015,0.09,0.3000000000000001,4,1,1,2,6,1,1,2,5,0,13,7,H,0.16166666666666668,0.36000000000000015,0.09,0.15
6,19,37,1,15,0.2700000000000001,2,3,68,25,109,94,0.7800000000000002,0.49000000000000027,0.03,1.360000000000001,4,2,1,3,5,2,1,4,4,0,14,7,H,0.15600000000000003,0.24500000000000005,0.03,0.3400000000000002
6,19,38,1,6,0.8800000000000006,2,3,54,58,60,104,1.1700000000000006,0.3200000000000001,0.6500000000000004,0.08,4,1,2,1,5,1,2,1,4,0.5,14,7,H,0.23400000000000012,0.3200000000000001,0.3250000000000001,0.08
6,20,39,1,14,0.7000000000000004,2,3,72,82,84,102,8.769999999999873,0.01,0.01,0.09999999999999999,12,1,1,2,14,1,1,2,5,0,12,7,H,0.6264285714285718,0.01,0.01,0.05
6,20,40,1,12,0.6300000000000003,2,3,95,60,55,93,0.9700000000000004,0.25000000000000006,0.15,0.20000000000000004,4,1,2,1,5,1,2,1,3,0,14,7,H,0.19400000000000006,0.25000000000000006,0.07499999999999998,0.20000000000000004
6,21,41,1,3,0.6800000000000004,3,5,35,88,30,53,1.3300000000000007,0.2800000000000001,0.16,0.08,5,2,1,1,9,2,1,1,5,0,17,7,H,0.1477777777777778,0.13999999999999999,0.16,0.08
6,21,42,1,7,0.2700000000000001,2,4,41,73,99,66,0.9000000000000004,0.060000000000000005,0.15,0.18000000000000002,4,1,1,2,6,1,1,2,3,0,14,7,H,0.15000000000000005,0.060000000000000005,0.15,0.09
6,22,43,1,11,0.3100000000000001,3,4,114,115,65,27,0.9300000000000004,0.01,0.22000000000000006,0.12999999999999998,5,1,1,1,8,1,1,1,2,0,13,7,H,0.11625000000000002,0.01,0.22000000000000006,0.12999999999999998
6,22,44,1,12,0.16,2,2,88,87,1,107,3.869999999999965,0.2900000000000001,0.01,0.01,9,1,1,1,12,1,1,1,3,0,14,7,H,0.3225000000000002,0.2900000000000001,0.01,0.01
7,1,1,0,5,0.2700000000000001,2,3,10,7,6,2,1.730000000000001,0.34000000000000014,0.7700000000000005,3.8799999999999613,4,1,2,5,9,1,6,13,6,1,72,7,H,0.19222222222222227,0.34000000000000014,0.12833333333333335,0.29846153846153856
7,1,2,0,7,0.3100000000000001,2,4,94,92,14,24,1.9100000000000013,1.1800000000000008,0.6300000000000003,1.8100000000000014,6,4,1,4,10,4,1,12,3,0,18,7,H,0.19100000000000006,0.29500000000000015,0.6300000000000003,0.15083333333333337
7,2,3,0,7,0.34000000000000014,2,3,96,86,23,21,2.2500000000000018,0.3900000000000002,1.8900000000000015,0.5800000000000003,6,1,3,2,10,1,11,3,3,0,18,7,H,0.2250000000000001,0.3900000000000002,0.17181818181818187,0.19333333333333336
7,2,4,0,3,0.3000000000000001,2,4,40,42,52,55,2.889999999999989,0.16,3.2599999999999745,1.1000000000000008,7,1,4,4,17,1,14,4,5,0,18,7,H,0.17000000000000004,0.16,0.23285714285714296,0.2750000000000001
7,3,5,0,8,0.7200000000000004,9,10,117,22,18,114,3.079999999999994,1.430000000000001,4.3599999999999515,0.5400000000000003,12,2,8,2,20,7,18,6,2,0,16,7,H,0.15400000000000003,0.20428571428571435,0.2422222222222223,0.09
7,3,6,0,4,0.3200000000000001,2,5,101,107,105,91,2.3700000000000006,0.26000000000000006,1.490000000000001,0.5200000000000002,6,1,6,3,15,2,6,4,2,0.5,9,7,H,0.15800000000000006,0.13000000000000003,0.2483333333333334,0.13
7,4,7,0,3,0.9200000000000006,15,16,43,89,41,40,1.610000000000001,1.400000000000001,0.17,1.8300000000000014,16,3,1,6,17,8,1,7,5,0.5,18,7,H,0.09470588235294121,0.17500000000000004,0.17,0.2614285714285715
7,4,8,0,10,0.4000000000000002,2,6,17,24,99,100,6.029999999999925,0.060000000000000005,0.9800000000000006,0.7400000000000004,11,1,3,3,29,1,4,4,6,0,16,7,H,0.2079310344827587,0.060000000000000005,0.2450000000000001,0.18500000000000005
7,5,9,0,1,0.34000000000000014,2,4,26,118,27,112,2.519999999999998,0.8900000000000006,0.7000000000000004,2.010000000000001,7,1,2,7,13,2,2,13,5,0,14,7,H,0.19384615384615392,0.44500000000000023,0.35000000000000014,0.15461538461538465
7,5,10,0,7,1.0200000000000007,16,17,88,86,92,108,2.1900000000000013,0.6700000000000004,0.7300000000000004,0.5600000000000003,18,2,3,2,22,3,5,3,3,0.5,11,7,H,0.09954545454545456,0.2233333333333334,0.146,0.1866666666666667
7,6,11,0,5,0.5500000000000003,7,8,8,5,10,12,1.4700000000000009,0.7900000000000005,0.7300000000000004,1.2100000000000009,9,2,2,4,12,4,3,7,6,1,72,7,H,0.12250000000000003,0.19750000000000004,0.24333333333333343,0.1728571428571429
7,6,12,0,7,0.6100000000000003,2,6,91,112,14,26,2.69,4.40999999999995,2.5199999999999902,0.01,4,7,5,1,16,22,13,1,3,0,16,7,H,0.16812500000000005,0.20045454545454552,0.19384615384615392,0.01
7,7,13,1,14,0.3300000000000001,2,5,40,37,6,10,1.8700000000000012,0.6500000000000004,0.6000000000000003,1.0700000000000007,5,2,2,3,12,3,2,8,5,0,22,7,H,0.15583333333333338,0.2166666666666667,0.3000000000000001,0.13375000000000004
7,7,14,1,15,0.6000000000000003,8,8,63,64,114,82,2.630000000000001,0.3100000000000001,10.689999999999817,0.3000000000000001,10,1,13,2,19,1,42,2,4,0,13,7,H,0.13842105263157897,0.3100000000000001,0.25452380952380965,0.15000000000000005
7,8,15,1,15,0.7400000000000004,11,11,29,114,109,87,4.72999999999996,1.1600000000000008,1.0300000000000007,1.450000000000001,15,2,4,3,27,7,7,4,4,0,12,7,H,0.17518518518518522,0.16571428571428573,0.1471428571428572,0.3625000000000002
7,8,16,1,14,0.4300000000000002,2,5,39,5,40,43,1.520000000000001,1.6200000000000012,0.2700000000000001,2.249999999999996,5,5,1,7,9,7,1,12,5,0.5,21,7,H,0.16888888888888895,0.23142857142857148,0.2700000000000001,0.18750000000000006
7,9,17,1,3,0.5000000000000002,2,4,32,27,55,14,1.4900000000000009,3.8699999999999615,0.16,1.9700000000000015,5,8,1,4,8,16,1,4,5,0,20,7,H,0.18625000000000005,0.2418750000000001,0.16,0.49250000000000027
7,9,18,1,10,0.8400000000000005,9,11,1,116,12,94,3.37999999999999,0.4300000000000002,0.3000000000000001,5.519999999999927,11,2,1,8,21,2,1,34,6,0,17,7,H,0.16095238095238099,0.21500000000000005,0.3000000000000001,0.16235294117647062
7,10,19,1,13,1.0100000000000007,15,18,14,22,119,113,3.2299999999999973,0.21000000000000005,3.889999999999961,0.23000000000000007,18,1,8,2,30,1,22,2,6,0,16,7,H,0.10766666666666669,0.21000000000000005,0.17681818181818187,0.11500000000000002
7,10,20,1,10,0.3000000000000001,2,3,2,76,71,63,13.969999999999754,0.05,0.01,0.01,15,2,1,1,54,2,1,1,6,0,17,7,H,0.2587037037037038,0.025,0.01,0.01
7,11,21,1,4,0.25000000000000006,2,3,49,56,99,54,2.260000000000001,0.4000000000000002,0.5100000000000002,0.4000000000000002,7,1,3,2,15,1,3,2,2,0.5,14,7,H,0.1506666666666667,0.4000000000000002,0.17,0.20000000000000007
7,11,22,1,7,0.8000000000000005,9,13,73,77,5,68,1.5000000000000009,0.7100000000000004,0.7700000000000005,1.1800000000000008,10,2,2,2,15,2,4,3,3,0,16,7,H,0.10000000000000002,0.35500000000000015,0.19250000000000006,0.3933333333333335
7,12,23,1,6,0.7300000000000004,2,5,49,55,79,100,7.459999999999901,0.37000000000000016,0.7600000000000005,0.4400000000000002,14,2,2,2,25,2,2,2,4,0,13,7,H,0.2984000000000001,0.18500000000000008,0.3800000000000002,0.22000000000000008
7,12,24,1,11,0.3000000000000001,2,4,116,109,92,30,1.680000000000001,1.0700000000000007,0.8600000000000005,0.5100000000000002,4,3,2,2,10,8,2,4,2,0,12,7,H,0.16800000000000007,0.13375,0.4300000000000002,0.1275
7,13,25,1,6,0.3300000000000001,2,3,57,60,56,59,2.6899999999999937,0.47000000000000025,0.2900000000000001,0.19000000000000003,4,2,2,1,15,3,2,1,4,1,48,7,H,0.17933333333333337,0.1566666666666667,0.14500000000000002,0.19000000000000003
7,13,26,1,15,0.6800000000000004,2,7,118,120,10,96,3.7999999999999776,0.4100000000000002,0.24000000000000007,0.11999999999999998,7,2,1,1,19,2,1,1,4,0,13,7,H,0.20000000000000007,0.20500000000000002,0.24000000000000007,0.11999999999999998
7,14,27,1,4,0.36000000000000015,2,3,97,108,66,104,3.8199999999999705,1.410000000000001,0.6700000000000004,0.060000000000000005,8,4,3,1,14,6,4,1,2,0.5,10,7,H,0.27285714285714296,0.2350000000000001,0.16750000000000004,0.060000000000000005
7,14,28,1,11,0.6500000000000004,2,6,59,35,51,32,3.569999999999982,0.3900000000000002,0.9000000000000006,0.10999999999999999,6,3,2,1,18,3,2,1,2,0,18,7,H,0.19833333333333342,0.13000000000000003,0.4500000000000002,0.10999999999999999
7,15,29,1,11,0.49000000000000027,2,4,111,42,118,21,2.609999999999999,2.899999999999982,5.319999999999931,0.01,7,5,11,1,14,8,16,1,2,0,15,7,H,0.18642857142857147,0.36250000000000016,0.33250000000000013,0.01
7,15,30,1,3,0.36000000000000015,3,6,28,98,106,105,2.1400000000000015,0.5600000000000003,0.3900000000000002,0.4000000000000002,6,2,1,3,16,3,1,4,5,0.5,11,7,H,0.13375000000000004,0.18666666666666673,0.3900000000000002,0.1
7,16,31,1,12,0.24000000000000007,2,3,89,91,49,118,3.7399999999999696,1.320000000000001,3.46999999999997,0.05,7,6,7,2,14,7,11,2,3,0,12,7,H,0.26714285714285724,0.1885714285714286,0.31545454545454565,0.025
7,16,32,1,14,0.3900000000000002,5,6,45,106,40,42,1.8300000000000012,1.320000000000001,0.8400000000000005,0.37000000000000016,8,3,3,2,10,5,5,3,5,0.5,17,7,H,0.18300000000000005,0.2640000000000001,0.16800000000000004,0.12333333333333335
7,17,33,1,14,0.2800000000000001,2,4,38,39,80,109,1.8600000000000012,2.339999999999994,0.9600000000000006,0.17,5,5,2,2,7,8,5,2,5,0,15,7,H,0.26571428571428585,0.29250000000000015,0.19200000000000006,0.08499999999999999
7,17,34,1,4,0.7800000000000005,2,5,103,55,34,108,3.709999999999982,0.6900000000000004,0.6500000000000004,0.26000000000000006,6,2,2,1,15,3,4,1,2,0,13,7,H,0.24733333333333343,0.2300000000000001,0.16250000000000003,0.26000000000000006
7,18,35,1,4,0.16,2,2,14,97,99,65,24.320000000000977,0.01,0.01,0.02,20,1,1,2,103,1,1,2,2,0,14,7,H,0.23611650485436902,0.01,0.01,0.01
7,18,36,1,6,4.229999999999954,10,22,27,113,11,1,4.289999999999954,1.7100000000000013,1.1900000000000008,5.279999999999932,11,2,4,12,23,6,4,20,4,0,19,7,H,0.18652173913043485,0.2850000000000001,0.29750000000000015,0.2640000000000001
7,19,37,1,11,0.45000000000000023,2,5,82,58,115,10,3.9099999999999704,0.16,1.2000000000000008,0.11999999999999998,4,1,3,2,16,1,6,3,2,0,15,7,H,0.2443750000000001,0.16,0.20000000000000007,0.04
7,19,38,1,14,0.5200000000000002,2,5,44,67,24,45,1.7800000000000011,0.8500000000000005,1.0200000000000007,0.3300000000000001,4,2,2,2,11,2,2,2,5,0,20,7,H,0.16181818181818186,0.42500000000000027,0.5100000000000002,0.16500000000000004
7,20,39,1,15,1.1600000000000008,14,15,72,110,43,69,2.2800000000000016,1.6200000000000012,0.6900000000000004,0.17,16,3,3,1,21,3,5,1,4,0,15,7,H,0.10857142857142858,0.5400000000000003,0.138,0.17
7,20,40,1,6,0.4200000000000002,2,3,59,33,107,54,1.9400000000000013,0.5700000000000003,0.6900000000000004,0.34000000000000014,4,1,1,1,9,1,1,1,4,0,15,7,H,0.2155555555555556,0.5700000000000003,0.6900000000000004,0.34000000000000014
7,21,41,1,13,0.2700000000000001,2,4,23,111,50,119,1.560000000000001,1.1800000000000008,1.5500000000000012,0.34000000000000014,6,2,3,2,11,3,5,2,6,0,14,7,H,0.14181818181818184,0.39333333333333353,0.3100000000000001,0.17000000000000004
7,21,42,1,3,1.1300000000000008,10,13,107,78,61,2,9.83999999999986,0.24000000000000007,0.37000000000000016,0.18000000000000002,20,2,2,2,47,2,2,2,5,0,15,7,H,0.20936170212765964,0.12000000000000004,0.18500000000000005,0.09000000000000001
8,1,1,0,1,0.23000000000000007,2,4,28,78,83,55,0.8100000000000004,0.6700000000000004,0.15,0.05,4,3,1,1,8,3,1,1,5,0,15,7,H,0.10125,0.22333333333333338,0.15,0.05
8,1,2,0,7,0.4100000000000002,13,13,96,69,63,72,0.8100000000000004,2.5899999999999888,0.01,0.4300000000000002,14,4,1,2,14,7,1,2,3,0.5,15,7,H,0.05785714285714287,0.3700000000000002,0.01,0.2150000000000001
8,2,3,0,6,0.2800000000000001,2,5,49,91,59,21,1.670000000000001,0.11999999999999998,0.02,0.5400000000000003,6,1,1,2,12,1,1,2,4,0,17,7,H,0.13916666666666672,0.11999999999999998,0.02,0.27000000000000013
8,2,4,0,9,0.18000000000000002,2,3,62,32,72,77,0.6400000000000002,0.6500000000000004,0.05,0.34000000000000014,4,3,1,3,5,5,1,3,4,0,16,7,H,0.12800000000000006,0.13000000000000003,0.05,0.11333333333333336
8,3,5,0,8,0.21000000000000005,2,3,88,94,49,17,1.2000000000000006,0.16,0.08,0.25000000000000006,5,2,1,3,6,3,1,3,2,0,16,7,H,0.20000000000000007,0.05333333333333333,0.08,0.08333333333333334
8,3,6,0,5,0.17,2,3,2,3,26,63,0.9000000000000005,1.9400000000000015,0.02,0.01,4,5,1,1,6,9,1,1,6,0,21,7,H,0.15000000000000002,0.21555555555555564,0.02,0.01
8,4,7,0,1,0.6100000000000003,12,15,26,13,57,19,1.1900000000000006,0.5900000000000003,1.5800000000000012,0.9800000000000006,15,3,6,4,19,4,8,4,5,0,21,7,H,0.06263157894736843,0.14750000000000002,0.19750000000000006,0.2450000000000001
8,4,8,0,9,0.26000000000000006,2,4,61,69,10,84,1.0800000000000005,0.09999999999999999,0.9400000000000006,0.7500000000000004,4,1,3,2,10,1,3,2,4,0,17,7,H,0.108,0.09999999999999999,0.31333333333333346,0.3750000000000002
8,5,9,0,4,0.5300000000000002,12,12,34,101,103,32,1.2500000000000007,0.11999999999999998,0.09999999999999999,0.02,15,1,1,1,16,1,1,1,2,0,14,7,H,0.07812500000000001,0.11999999999999998,0.09999999999999999,0.02
8,5,10,0,9,0.26000000000000006,2,3,109,70,86,14,2.1000000000000014,0.09999999999999999,0.01,0.01,9,2,1,1,10,2,1,1,4,0,15,7,H,0.21000000000000008,0.05,0.01,0.01
8,6,11,0,6,0.3300000000000001,2,4,35,79,76,56,1.1800000000000006,0.20000000000000004,0.08,0.22000000000000006,5,2,1,2,10,5,1,3,4,0,15,7,H,0.11800000000000002,0.04,0.08,0.07333333333333333
8,6,12,0,3,0.19000000000000003,2,3,41,112,47,118,0.6900000000000003,0.7700000000000005,0.05,0.060000000000000005,4,3,2,1,5,3,2,1,5,0,14,7,H,0.13800000000000004,0.25666666666666677,0.025,0.060000000000000005
8,7,13,1,15,0.23000000000000007,2,3,20,93,33,27,1.3700000000000008,0.18000000000000002,0.08,0.04,5,1,1,1,6,1,1,1,4,0,19,7,H,0.22833333333333342,0.18000000000000002,0.08,0.04
8,7,14,1,4,0.23000000000000007,3,4,1,59,7,12,5.679999999999929,0.01,0.03,0.02,18,1,1,1,35,1,1,1,2,0.5,22,7,H,0.16228571428571434,0.01,0.03,0.02
8,8,15,1,10,0.25000000000000006,2,4,43,62,81,46,1.2500000000000007,0.5900000000000003,0.01,0.060000000000000005,5,3,1,1,8,3,1,1,6,0,17,7,H,0.15625000000000006,0.1966666666666667,0.01,0.060000000000000005
8,8,16,1,11,0.5000000000000002,14,15,120,16,115,91,0.8600000000000003,0.6200000000000003,0.19000000000000003,0.08,17,3,3,2,19,5,3,2,2,0,13,7,H,0.045263157894736845,0.12400000000000001,0.06333333333333332,0.04
8,9,17,1,6,0.2700000000000001,2,6,74,35,27,53,1.1800000000000006,0.5200000000000002,0.01,0.01,5,2,1,1,9,2,1,1,4,0,17,7,H,0.13111111111111115,0.2600000000000001,0.01,0.01
8,9,18,1,13,0.2700000000000001,2,4,90,38,24,45,1.0700000000000005,0.36000000000000015,0.02,0.24000000000000007,5,2,1,2,7,2,1,2,6,0,19,7,H,0.1528571428571429,0.18000000000000002,0.02,0.12000000000000002
8,10,19,1,12,0.15,2,2,13,28,87,111,10.299999999999828,0.02,0.02,0.01,20,1,1,1,46,1,1,1,3,0,16,7,H,0.22391304347826094,0.02,0.02,0.01
8,10,20,1,7,0.13999999999999999,1,2,101,105,38,106,1.3000000000000007,0.16,0.03,0.09999999999999999,5,1,1,1,9,1,1,1,3,0.5,11,7,H,0.14444444444444446,0.16,0.03,0.09999999999999999
8,11,21,1,13,0.3200000000000001,2,3,14,48,39,55,1.2000000000000006,0.12999999999999998,0.09,0.05,3,1,1,1,4,1,1,1,6,0,20,7,H,0.30000000000000016,0.12999999999999998,0.09,0.05
8,11,22,1,3,0.3000000000000001,2,4,35,73,67,28,0.9500000000000004,0.3000000000000001,0.17,0.060000000000000005,4,1,1,1,6,1,2,1,5,0,17,7,H,0.15833333333333338,0.3000000000000001,0.08499999999999999,0.060000000000000005
8,12,23,1,14,0.49000000000000027,4,6,41,23,94,44,1.1800000000000006,2.6099999999999883,1.360000000000001,0.34000000000000014,6,7,2,2,10,11,4,2,5,0,19,7,H,0.11800000000000002,0.23727272727272739,0.34000000000000014,0.17000000000000004
8,12,24,1,15,0.35000000000000014,2,5,76,79,35,65,1.9500000000000013,0.03,0.04,0.36000000000000015,7,1,1,2,11,1,1,2,4,0,15,7,H,0.17727272727272733,0.03,0.04,0.18000000000000008
8,13,25,1,12,0.2700000000000001,5,5,109,120,118,110,4.949999999999945,0.7800000000000005,0.49000000000000027,0.20000000000000004,13,5,2,2,16,6,2,2,3,1,24,7,H,0.3093750000000002,0.13,0.24500000000000013,0.09999999999999999
8,13,26,1,7,0.37000000000000016,2,5,15,39,83,38,1.4400000000000008,0.18000000000000002,0.03,0.060000000000000005,5,1,1,1,9,2,1,1,3,0,19,7,H,0.16000000000000006,0.09,0.03,0.060000000000000005
8,14,27,1,3,0.3200000000000001,2,5,4,75,65,78,1.1400000000000006,0.5600000000000003,0.03,0.05,3,4,1,1,6,4,1,1,5,0,16,7,H,0.19000000000000009,0.14,0.03,0.05
8,14,28,1,4,0.16,2,3,56,105,95,42,1.0500000000000005,0.19000000000000003,0.2800000000000001,0.13999999999999999,5,2,2,1,9,2,2,1,2,0,14,7,H,0.11666666666666668,0.095,0.14000000000000004,0.13999999999999999
8,15,29,1,7,0.22000000000000006,2,3,55,22,105,80,1.1800000000000006,0.21000000000000005,0.13999999999999999,0.08,4,1,1,2,6,1,1,2,3,0,15,7,H,0.19666666666666674,0.21000000000000005,0.13999999999999999,0.04
8,15,30,1,11,0.22000000000000006,2,4,62,120,116,40,0.9800000000000005,0.2800000000000001,0.08,0.08,4,3,2,1,6,3,2,1,2,0,13,7,H,0.16333333333333339,0.09333333333333335,0.04,0.08
8,16,31,1,13,0.3200000000000001,5,7,17,62,31,21,1.1000000000000005,0.22000000000000006,0.7200000000000004,0.060000000000000005,7,2,3,2,10,2,6,2,6,0,21,7,H,0.11000000000000001,0.10999999999999999,0.12000000000000002,0.03
8,16,32,1,4,0.17,1,3,102,1,2,90,1.0700000000000005,0.2900000000000001,0.09,0.23000000000000007,3,2,1,1,13,4,1,1,2,0,17,7,H,0.0823076923076923,0.0725,0.09,0.23000000000000007
8,17,33,1,15,0.37000000000000016,2,3,18,72,95,93,1.670000000000001,0.07,0.04,0.4300000000000002,8,1,1,2,11,1,1,2,4,0,16,7,H,0.15181818181818185,0.07,0.04,0.2150000000000001
8,17,34,1,10,0.23000000000000007,3,4,7,4,50,115,0.8200000000000004,15.779999999999708,0.01,0.01,5,18,1,1,6,60,1,1,6,0,18,7,H,0.13666666666666671,0.2630000000000001,0.01,0.01
8,18,35,1,4,0.23000000000000007,2,3,99,12,108,94,0.7600000000000003,0.37000000000000016,0.6400000000000003,0.03,4,2,3,1,5,2,3,1,2,0,13,7,H,0.15200000000000002,0.18500000000000003,0.21333333333333343,0.03
8,18,36,1,6,0.5400000000000003,3,4,13,119,58,109,1.660000000000001,0.13999999999999999,0.05,0.09,6,1,1,1,7,2,1,1,4,0,14,7,H,0.23714285714285724,0.06999999999999999,0.05,0.09
8,19,37,1,13,0.26000000000000006,4,5,20,100,13,14,0.8600000000000003,0.5200000000000002,0.12999999999999998,0.3200000000000001,6,1,2,2,9,2,2,2,6,0.5,20,7,H,0.09555555555555557,0.26000000000000006,0.065,0.16000000000000003
8,19,38,1,7,0.13999999999999999,2,3,12,120,74,118,1.1600000000000006,0.18000000000000002,0.02,0.08,5,1,1,1,6,1,1,1,3,0,13,7,H,0.19333333333333338,0.18000000000000002,0.02,0.08
8,20,39,1,11,0.25000000000000006,2,3,114,115,84,34,1.1900000000000006,0.2900000000000001,0.07,0.3100000000000001,4,2,1,2,5,2,1,3,2,0,12,7,H,0.2380000000000001,0.14500000000000005,0.07,0.10333333333333335
8,20,40,1,4,0.4200000000000002,8,9,92,12,98,93,1.0600000000000005,0.5000000000000002,0.03,0.03,10,2,1,1,13,2,1,1,2,0,14,7,H,0.08153846153846155,0.25000000000000006,0.03,0.03
8,21,41,1,6,0.3200000000000001,2,4,51,47,1,113,0.8000000000000004,0.3300000000000001,0.21000000000000005,0.11999999999999998,4,1,1,1,6,1,1,1,4,0,17,7,H,0.13333333333333336,0.3300000000000001,0.21000000000000005,0.11999999999999998
8,21,42,1,4,0.2700000000000001,2,4,90,96,86,16,0.9000000000000004,0.3200000000000001,0.3100000000000001,0.4200000000000002,3,2,2,2,5,2,2,2,2,0.5,15,7,H,0.18000000000000008,0.16000000000000006,0.15500000000000003,0.2100000000000001
8,22,43,1,12,0.36000000000000015,2,4,37,44,112,51,1.2800000000000007,0.08,0.09999999999999999,0.07,4,1,2,1,9,1,2,1,3,0,16,7,H,0.14222222222222225,0.08,0.049999999999999996,0.07
8,22,44,1,15,1.0500000000000007,9,13,67,66,19,15,1.2200000000000006,0.5200000000000002,1.0300000000000007,0.2900000000000001,11,3,3,3,15,3,4,3,4,0,20,7,H,0.08133333333333335,0.1733333333333334,0.2575000000000001,0.09666666666666666
9,1,1,0,10,0.13999999999999999,2,3,17,80,30,14,0.5600000000000002,2.7399999999999856,0.3000000000000001,0.01,4,4,3,1,5,4,3,1,6,0,20,7,H,0.11200000000000003,0.6850000000000004,0.09999999999999999,0.01
9,1,2,0,9,0.12999999999999998,2,3,5,68,12,62,1.1700000000000006,0.01,0.3000000000000001,0.01,3,1,2,1,4,1,2,1,4,0,20,7,H,0.2925000000000002,0.01,0.15000000000000005,0.01
9,2,3,0,3,0.13999999999999999,2,4,7,42,67,5,0.5500000000000002,0.07,0.08,0.09,3,2,1,1,5,3,1,1,5,0,21,7,H,0.11000000000000004,0.023333333333333334,0.08,0.09
9,2,4,0,4,0.15,2,3,98,99,32,59,0.41000000000000003,1.0900000000000007,0.01,0.01,4,3,1,1,5,3,1,1,2,0,13,7,H,0.082,0.36333333333333356,0.01,0.01
9,3,5,0,2,0.13999999999999999,2,3,77,76,116,72,0.41000000000000003,0.12999999999999998,0.6300000000000003,0.01,4,1,2,1,5,1,2,1,3,0,12,7,H,0.08200000000000002,0.12999999999999998,0.31500000000000017,0.01
9,3,6,0,7,0.12999999999999998,2,3,19,85,30,28,0.5700000000000002,0.04,0.12999999999999998,0.05,4,1,1,1,5,1,1,1,3,0,19,7,H,0.11400000000000005,0.04,0.12999999999999998,0.05
9,4,7,0,5,0.11999999999999998,2,3,8,31,100,34,0.35000000000000003,0.25000000000000006,0.21000000000000005,0.04,4,1,2,1,5,1,2,1,6,0,18,7,H,0.07,0.25000000000000006,0.10500000000000002,0.04
9,4,8,0,8,0.19000000000000003,2,4,113,119,115,60,0.4800000000000001,0.2700000000000001,0.05,0.13999999999999999,4,2,1,1,6,2,1,1,2,0.5,10,7,H,0.08000000000000002,0.13499999999999998,0.05,0.13999999999999999
9,5,9,0,3,0.13999999999999999,2,3,120,43,1,86,0.6400000000000002,0.03,0.35000000000000014,0.01,5,1,2,1,8,1,2,1,5,0,16,7,H,0.08000000000000002,0.03,0.17500000000000007,0.01
9,5,10,0,4,0.13999999999999999,2,3,104,32,106,53,0.5200000000000001,0.21000000000000005,1.5200000000000011,1.340000000000001,5,1,4,2,6,1,5,2,2,0,13,7,H,0.08666666666666667,0.21000000000000005,0.30400000000000016,0.6700000000000005
9,6,11,0,6,0.09999999999999999,2,3,56,43,58,116,1.1000000000000008,0.6800000000000004,0.01,0.3300000000000001,4,3,1,1,5,3,1,1,4,0,15,7,H,0.22000000000000014,0.22666666666666674,0.01,0.3300000000000001
9,6,12,0,4,0.21000000000000005,2,4,108,26,31,36,0.6200000000000002,0.04,0.09999999999999999,0.07,4,1,1,1,6,1,1,1,2,0.5,17,7,H,0.10333333333333335,0.04,0.09999999999999999,0.07
9,7,13,1,14,0.13999999999999999,2,3,37,45,9,114,0.5300000000000001,0.01,0.4000000000000002,0.11999999999999998,4,1,2,1,6,1,2,2,5,0,18,7,H,0.08833333333333333,0.01,0.2000000000000001,0.060000000000000005
9,7,14,1,13,0.11999999999999998,2,3,19,18,13,52,0.4100000000000001,0.10999999999999999,2.0300000000000007,0.20000000000000004,3,1,5,1,4,1,5,2,6,0.5,22,7,H,0.10250000000000002,0.10999999999999999,0.4060000000000002,0.1
9,8,15,1,14,0.13999999999999999,2,3,61,39,93,44,0.6900000000000003,0.03,0.18000000000000002,0.01,3,1,1,1,4,1,1,1,5,0,17,7,H,0.17250000000000007,0.03,0.18000000000000002,0.01
9,8,16,1,3,0.20000000000000004,2,3,32,50,111,114,0.5200000000000001,0.09,0.3100000000000001,0.060000000000000005,4,1,2,1,5,1,2,1,5,0,13,7,H,0.10400000000000001,0.09,0.155,0.060000000000000005
9,9,17,1,12,0.15,2,4,87,37,90,89,0.4600000000000001,0.17,0.05,0.060000000000000005,3,2,1,1,5,2,1,1,3,0.5,14,7,H,0.09200000000000003,0.085,0.05,0.060000000000000005
9,9,18,1,15,0.35000000000000014,2,3,67,116,81,69,0.7700000000000004,0.03,0.10999999999999999,0.060000000000000005,4,1,1,1,5,1,1,1,4,0,13,7,H,0.15400000000000005,0.03,0.10999999999999999,0.060000000000000005
9,10,19,1,12,0.18000000000000002,2,3,93,25,33,88,0.4200000000000001,0.3300000000000001,0.05,0.03,4,2,2,1,5,2,2,1,3,0,16,7,H,0.084,0.16500000000000006,0.025,0.03
9,10,20,1,14,0.15,2,3,43,46,23,83,0.45000000000000007,0.09,0.22000000000000006,0.05,3,1,2,1,4,1,2,1,5,0,19,7,H,0.11250000000000003,0.09,0.11000000000000001,0.05
9,11,21,1,15,0.11999999999999998,2,3,68,99,77,4,0.4100000000000001,0.11999999999999998,0.18000000000000002,0.24000000000000007,4,1,1,1,5,1,1,1,4,0,15,7,H,0.082,0.11999999999999998,0.18000000000000002,0.24000000000000007
9,11,22,1,6,0.18000000000000002,2,3,50,41,51,113,0.39000000000000007,2.859999999999983,0.01,0.9400000000000006,3,5,1,2,4,6,1,2,4,0,15,7,H,0.09750000000000002,0.4766666666666669,0.01,0.4700000000000003
9,12,23,1,3,0.10999999999999999,2,3,55,33,58,73,0.5500000000000003,0.04,2.209999999999997,0.19000000000000003,3,1,2,2,4,1,2,2,5,0,16,7,H,0.13750000000000007,0.04,1.1049999999999989,0.09500000000000001
9,12,24,1,15,0.09,1,2,70,37,42,108,0.30000000000000004,0.46000000000000024,0.060000000000000005,0.09,2,2,1,3,3,2,1,3,4,0,16,7,H,0.10000000000000002,0.23000000000000007,0.060000000000000005,0.03
9,13,25,1,7,0.18000000000000002,2,3,73,111,83,84,0.5000000000000001,0.17,0.01,0.05,3,2,1,1,4,2,1,1,3,0.5,11,7,H,0.12500000000000003,0.08499999999999999,0.01,0.05
9,13,26,1,4,0.11999999999999998,2,3,102,104,87,103,0.6200000000000002,0.01,0.6400000000000003,0.01,4,1,1,1,5,1,1,1,2,0.5,9,7,H,0.12400000000000003,0.01,0.6400000000000003,0.01
9,14,27,1,14,0.13999999999999999,2,3,42,48,85,91,0.37000000000000005,0.18000000000000002,0.13999999999999999,0.060000000000000005,4,2,1,1,5,2,1,1,5,0,16,7,H,0.07400000000000001,0.09,0.13999999999999999,0.060000000000000005
9,14,28,1,11,0.23000000000000007,2,4,116,109,32,82,0.8000000000000004,0.03,0.49000000000000027,0.01,3,1,2,1,5,1,2,1,2,0,12,7,H,0.16000000000000006,0.03,0.2450000000000001,0.01
9,15,29,1,4,0.17,2,3,99,46,65,101,0.7700000000000004,0.6600000000000004,0.01,0.01,4,2,1,1,5,2,1,1,2,0,13,7,H,0.15400000000000005,0.3300000000000002,0.01,0.01
9,15,30,1,3,0.18000000000000002,2,3,94,33,92,58,0.5800000000000002,0.13999999999999999,0.07,0.09999999999999999,3,2,1,1,4,2,1,1,5,0,15,7,H,0.14500000000000005,0.07,0.07,0.09999999999999999
9,16,31,1,3,0.09999999999999999,2,3,26,1,89,32,0.6200000000000002,1.330000000000001,0.02,0.4100000000000002,4,2,1,2,5,2,1,2,5,0,19,7,H,0.12400000000000004,0.6650000000000005,0.02,0.2050000000000001
9,16,32,1,7,0.07,2,3,79,74,113,13,0.4600000000000002,0.4200000000000002,0.3000000000000001,0.01,4,2,2,1,5,2,2,1,3,0,14,7,H,0.09200000000000003,0.2100000000000001,0.15000000000000005,0.01
9,17,33,1,15,0.19000000000000003,3,4,21,67,16,37,0.5600000000000002,0.05,0.7700000000000005,0.02,4,1,4,1,5,1,4,1,4,0,21,7,H,0.11200000000000003,0.05,0.1925000000000001,0.02
9,17,34,1,12,0.4300000000000002,3,4,33,88,35,31,0.7500000000000003,0.08,0.10999999999999999,0.47000000000000025,4,1,1,2,5,1,1,2,3,0.5,18,7,H,0.15000000000000005,0.08,0.10999999999999999,0.23500000000000013
9,18,35,1,10,0.12999999999999998,3,5,12,2,75,56,0.44000000000000006,0.10999999999999999,0.08,0.21000000000000005,5,1,1,2,7,1,1,2,6,0,19,7,H,0.06285714285714286,0.10999999999999999,0.08,0.10500000000000001
9,18,36,1,15,0.18000000000000002,2,3,63,114,115,96,0.5900000000000002,1.1800000000000008,0.01,0.01,4,3,1,1,5,3,1,1,4,0,11,7,H,0.11800000000000002,0.39333333333333353,0.01,0.01
9,19,37,1,10,0.7000000000000004,3,4,6,1,92,65,1.1400000000000006,1.0500000000000007,0.02,0.01,5,3,1,1,6,3,1,1,6,0,19,7,H,0.19000000000000009,0.3500000000000002,0.02,0.01
9,19,38,1,6,0.16,2,3,21,60,16,23,0.6400000000000002,0.04,0.5200000000000002,0.05,3,1,2,1,4,1,2,1,4,0.5,22,7,H,0.16000000000000006,0.04,0.2600000000000001,0.05
9,20,39,1,3,0.15,2,3,26,5,52,8,0.34,2.5199999999999902,0.01,0.01,3,5,1,1,4,6,1,1,5,0,21,7,H,0.085,0.42000000000000026,0.01,0.01
9,20,40,1,13,0.12999999999999998,2,3,88,70,22,39,0.5600000000000002,0.19000000000000003,0.02,0.09999999999999999,5,2,1,1,6,2,1,1,6,0,18,7,H,0.09333333333333335,0.09500000000000001,0.02,0.09999999999999999
9,21,41,1,4,0.13999999999999999,2,3,69,98,38,61,0.5500000000000002,0.05,0.46000000000000024,0.2800000000000001,3,1,2,2,4,1,2,2,2,0,15,7,H,0.13750000000000004,0.05,0.23000000000000012,0.14000000000000004
9,21,42,1,11,0.15,2,3,15,110,56,58,0.4700000000000001,0.07,0.2700000000000001,0.05,4,1,1,1,6,1,1,1,2,0,16,7,H,0.07833333333333334,0.07,0.2700000000000001,0.05
9,22,43,1,14,0.21000000000000005,3,6,38,44,99,12,0.5500000000000002,0.23000000000000007,0.09,0.13999999999999999,4,1,2,2,7,1,2,2,5,0,18,7,H,0.07857142857142858,0.23000000000000007,0.045000000000000005,0.06999999999999999
9,22,44,1,11,0.09,2,3,115,94,35,19,0.44000000000000017,0.25000000000000006,0.17,0.05,4,2,1,1,5,3,1,1,2,0,16,7,H,0.08800000000000001,0.08333333333333333,0.17,0.05
10,1,1,0,1,0.3200000000000001,2,3,32,26,36,103,2.8299999999999907,0.46000000000000024,0.22000000000000006,0.3300000000000001,5,3,2,1,7,3,2,1,5,0.5,17,7,H,0.4042857142857139,0.15333333333333335,0.11000000000000001,0.3300000000000001
10,1,2,0,2,0.3200000000000001,2,4,80,44,114,78,1.9600000000000013,3.4099999999999713,4.709999999999944,0.01,6,2,2,1,8,2,2,1,3,0,13,7,H,0.2450000000000001,1.704999999999993,2.354999999999972,0.01
10,2,3,0,10,0.4400000000000002,2,4,13,21,97,105,1.9100000000000013,0.17,19.420000000000236,2.6899999999999866,4,1,12,3,7,1,23,3,6,0,16,7,H,0.27285714285714296,0.17,0.8443478260869554,0.8966666666666643
10,2,4,0,1,0.3900000000000002,2,5,109,36,96,114,2.270000000000002,1.480000000000001,1.7400000000000013,0.01,6,4,4,1,9,5,5,1,5,0,12,7,H,0.25222222222222235,0.2960000000000001,0.3480000000000002,0.01
10,3,5,0,4,0.3900000000000002,2,3,103,26,22,95,1.540000000000001,0.7000000000000004,1.8100000000000014,0.02,5,2,3,1,7,2,3,1,2,0,16,7,H,0.22000000000000006,0.35000000000000014,0.6033333333333337,0.02
10,3,6,0,9,0.36000000000000015,2,3,118,67,84,109,2.719999999999994,0.08,0.09999999999999999,0.8500000000000005,8,1,1,3,9,1,1,4,4,0,11,7,H,0.30222222222222234,0.08,0.09999999999999999,0.21250000000000008
10,4,7,0,4,0.2900000000000001,3,5,20,16,13,108,3.4099999999999775,0.09,0.5200000000000002,0.01,7,1,2,1,9,1,2,1,2,0.5,20,7,H,0.3788888888888891,0.09,0.2600000000000001,0.01
10,4,8,0,1,0.6700000000000004,2,3,69,63,89,92,1.9300000000000013,4.0299999999999585,1.0700000000000007,0.01,3,8,2,1,4,9,2,1,5,0,14,7,H,0.48250000000000026,0.44777777777777805,0.5350000000000003,0.01
10,5,9,0,2,0.49000000000000027,2,4,84,76,24,15,2.3600000000000017,0.16,1.400000000000001,1.440000000000001,5,1,4,4,9,1,4,5,3,0,18,7,H,0.26222222222222236,0.16,0.35000000000000014,0.28800000000000014
10,5,10,0,7,0.6500000000000004,2,4,88,103,26,28,1.750000000000001,0.8100000000000005,0.22000000000000006,1.0700000000000007,4,2,1,3,6,3,1,3,3,0,15,7,H,0.2916666666666668,0.2700000000000001,0.22000000000000006,0.35666666666666685
10,6,11,0,2,0.3100000000000001,2,5,67,63,76,66,2.3500000000000005,0.38000000000000017,0.05,1.400000000000001,5,1,1,3,8,1,1,4,3,0.5,15,7,H,0.2937500000000001,0.38000000000000017,0.05,0.35000000000000014
10,6,12,0,7,0.4300000000000002,2,3,87,91,108,13,1.510000000000001,2.4599999999999915,0.20000000000000004,0.01,5,3,2,1,7,4,2,1,3,0,14,7,H,0.2157142857142858,0.6150000000000003,0.1,0.01
10,7,13,1,12,0.3300000000000001,2,3,87,9,90,85,2.1600000000000015,0.45000000000000023,0.09,0.6700000000000004,4,2,1,2,5,2,1,2,3,0.5,15,7,H,0.4320000000000003,0.22500000000000003,0.09,0.3350000000000002
10,7,14,1,7,0.7100000000000004,2,3,36,105,97,22,2.2300000000000013,0.7500000000000004,0.16,0.4000000000000002,4,1,1,2,6,1,1,2,3,0,15,7,H,0.37166666666666687,0.7500000000000004,0.16,0.20000000000000007
10,8,15,1,12,0.49000000000000027,2,4,87,108,99,36,1.2400000000000007,1.8500000000000014,0.34000000000000014,1.5200000000000011,3,4,2,2,5,4,3,2,3,0,12,7,H,0.2480000000000001,0.46250000000000024,0.11333333333333336,0.7600000000000006
10,8,16,1,14,0.34000000000000014,2,4,44,74,14,66,1.2600000000000007,0.8200000000000005,0.8100000000000005,0.35000000000000014,4,2,2,1,6,2,2,1,5,0,18,7,H,0.21000000000000008,0.41000000000000014,0.4050000000000002,0.35000000000000014
10,9,17,1,7,0.4100000000000002,2,3,73,83,74,4,1.2500000000000007,1.0300000000000007,0.3300000000000001,0.5300000000000002,4,3,2,2,5,8,2,3,3,0.5,15,7,H,0.2500000000000001,0.12875000000000003,0.165,0.1766666666666667
10,9,18,1,12,0.45000000000000023,5,7,86,25,18,118,1.8600000000000012,0.49000000000000027,3.1999999999999758,1.9200000000000015,7,1,5,3,9,1,6,4,3,0,16,7,H,0.20666666666666675,0.49000000000000027,0.5333333333333337,0.48000000000000026
10,10,19,1,15,1.300000000000001,4,6,66,70,2,43,2.7500000000000018,0.2900000000000001,4.389999999999951,0.4200000000000002,7,1,6,2,10,1,8,2,4,0,19,7,H,0.27500000000000013,0.2900000000000001,0.5487500000000003,0.21000000000000008
10,10,20,1,12,0.8200000000000005,12,13,86,14,56,111,1.9500000000000013,0.48000000000000026,2.899999999999982,0.01,14,2,2,1,17,2,2,1,3,0,15,7,H,0.11470588235294121,0.24000000000000013,1.4499999999999913,0.01
10,11,21,1,12,0.6300000000000003,2,4,44,91,100,101,2.520000000000002,0.13999999999999999,3.039999999999979,0.03,4,1,3,2,6,1,4,2,3,0,12,7,H,0.4200000000000002,0.13999999999999999,0.7600000000000006,0.015
10,11,22,1,6,0.7000000000000004,2,4,59,56,35,4,1.4900000000000009,0.7800000000000005,0.2800000000000001,0.7400000000000004,4,2,1,1,6,4,1,1,4,0,19,7,H,0.24833333333333343,0.19500000000000006,0.2800000000000001,0.7400000000000004
10,12,23,1,13,0.5000000000000002,3,5,18,13,102,97,1.4300000000000008,6.539999999999905,0.01,0.01,5,8,1,1,8,11,1,1,6,0,16,7,H,0.17875000000000005,0.5945454545454545,0.01,0.01
10,12,24,1,15,0.38000000000000017,2,4,69,68,109,115,1.650000000000001,0.5000000000000002,0.35000000000000014,0.18000000000000002,3,2,1,1,5,2,1,1,4,0,12,7,H,0.3300000000000002,0.2500000000000001,0.35000000000000014,0.18000000000000002
10,13,25,1,3,0.38000000000000017,2,3,22,82,55,31,1.8200000000000012,2.0000000000000013,0.01,0.03,4,5,1,1,7,6,1,1,5,0,18,7,H,0.2600000000000001,0.3333333333333335,0.01,0.03
10,13,26,1,4,0.16,2,3,98,90,43,99,0.7200000000000003,0.8600000000000005,0.4400000000000002,0.07,3,1,1,1,4,1,1,1,2,0,12,7,H,0.18000000000000008,0.8600000000000005,0.4400000000000002,0.07
10,14,27,1,14,0.38000000000000017,2,5,40,116,62,112,1.4000000000000008,0.7800000000000005,0.5000000000000002,0.20000000000000004,3,2,2,1,6,2,4,1,5,0,13,7,H,0.23333333333333345,0.3900000000000002,0.125,0.20000000000000004
10,14,28,1,10,0.3200000000000001,3,4,94,27,2,97,2.4,0.20000000000000004,0.8900000000000006,0.8800000000000006,6,1,2,2,9,1,2,2,6,0,16,7,H,0.2666666666666668,0.20000000000000004,0.4450000000000003,0.4400000000000002
10,15,29,1,12,0.2800000000000001,2,6,92,87,43,112,1.2500000000000007,0.3300000000000001,0.8200000000000005,4.709999999999944,4,1,2,5,10,1,3,11,3,0,13,7,H,0.12500000000000003,0.3300000000000001,0.27333333333333343,0.42818181818181844
10,15,30,1,10,0.09,2,2,5,54,100,84,0.8700000000000004,1.0900000000000007,0.11999999999999998,0.47000000000000025,3,3,1,1,3,4,1,1,6,0,15,7,H,0.29000000000000015,0.27250000000000013,0.11999999999999998,0.47000000000000025
10,16,31,1,11,0.4300000000000002,2,3,113,115,26,30,1.3800000000000008,1.1800000000000008,0.5000000000000002,0.49000000000000027,4,4,1,1,5,5,1,1,2,0,14,7,H,0.27600000000000013,0.2360000000000001,0.5000000000000002,0.49000000000000027
10,16,32,1,14,2.7499999999999853,8,12,91,44,93,40,2.859999999999985,1.6500000000000012,0.5000000000000002,0.02,9,3,1,1,13,6,1,1,5,0,16,7,H,0.22000000000000008,0.2750000000000001,0.5000000000000002,0.02
10,17,33,1,10,1.6900000000000013,5,8,57,2,92,106,5.959999999999955,5.159999999999934,0.01,0.060000000000000005,10,4,1,1,14,6,1,1,6,0,15,7,H,0.425714285714286,0.8600000000000005,0.01,0.060000000000000005
10,17,34,1,14,0.13999999999999999,2,2,15,117,40,71,12.389999999999784,0.01,0.01,0.03,19,1,1,1,32,1,1,1,5,0,17,7,H,0.3871875000000002,0.01,0.01,0.03
10,18,35,1,11,2.719999999999986,4,5,113,1,109,40,3.859999999999987,0.8600000000000005,0.13999999999999999,0.7200000000000004,6,3,1,2,7,3,1,2,2,0,15,7,H,0.5514285714285718,0.2866666666666668,0.13999999999999999,0.36000000000000015
10,18,36,1,13,0.49000000000000027,7,8,13,20,17,29,1.9700000000000013,0.2700000000000001,1.5900000000000012,0.6700000000000004,9,1,2,2,14,1,2,2,6,0.5,23,7,H,0.14071428571428574,0.2700000000000001,0.7950000000000006,0.3350000000000002
10,19,37,1,4,1.430000000000001,3,6,103,6,91,3,2.560000000000002,0.9100000000000006,0.4100000000000002,0.04,5,3,2,1,8,4,2,1,2,0,17,7,H,0.3200000000000002,0.22750000000000006,0.20500000000000004,0.04
10,19,38,1,11,0.5300000000000002,2,3,23,14,59,114,2.7299999999999973,0.35000000000000014,0.19000000000000003,0.07,5,2,1,1,7,2,1,1,2,0,18,7,H,0.3900000000000002,0.17500000000000002,0.19000000000000003,0.07
10,20,39,1,12,0.6000000000000003,8,9,90,38,87,18,1.570000000000001,1.6900000000000013,0.060000000000000005,1.9200000000000015,9,2,1,3,10,3,1,5,3,0,17,7,H,0.15700000000000006,0.5633333333333337,0.060000000000000005,0.38400000000000023
10,20,40,1,7,0.15,2,3,83,107,5,33,0.8700000000000004,1.0700000000000007,0.6200000000000003,0.11999999999999998,4,2,1,1,6,2,1,1,3,0,16,7,H,0.14500000000000005,0.5350000000000004,0.6200000000000003,0.11999999999999998
10,21,41,1,3,0.37000000000000016,2,3,108,30,13,82,1.7800000000000011,4.659999999999945,0.01,0.05,6,4,1,1,8,4,1,1,5,0,16,7,H,0.2225000000000001,1.1649999999999945,0.01,0.05
10,21,42,1,11,2.1899999999999973,3,5,120,46,40,95,3.669999999999998,1.0000000000000007,0.36000000000000015,0.02,7,1,2,1,9,1,2,1,2,0,15,7,H,0.407777777777778,1.0000000000000007,0.18000000000000005,0.02
11,1,1,0,7,0.4000000000000002,2,5,85,15,23,95,1.1700000000000006,1.6200000000000012,0.4400000000000002,0.02,4,4,4,1,7,4,4,1,3,0,18,7,H,0.1671428571428572,0.40500000000000025,0.11,0.02
11,1,2,0,8,0.34000000000000014,2,3,117,118,3,32,1.650000000000001,2.1299999999999986,26.62000000000136,0.01,5,3,18,1,10,8,58,1,2,0,15,7,H,0.16500000000000006,0.2662500000000001,0.45896551724137946,0.01
11,2,3,0,2,0.38000000000000017,2,3,84,3,7,81,1.4500000000000008,1.0800000000000007,0.2800000000000001,0.04,4,4,1,1,7,6,1,1,3,0,18,7,H,0.2071428571428572,0.18000000000000005,0.2800000000000001,0.04
11,2,4,0,7,0.38000000000000017,2,3,90,29,92,112,0.8000000000000004,1.0500000000000007,0.6800000000000004,0.19000000000000003,3,3,2,1,5,5,2,1,3,0,13,7,H,0.16000000000000006,0.21000000000000008,0.3400000000000002,0.19000000000000003
11,3,5,0,6,0.47000000000000025,2,4,59,113,52,92,1.4200000000000008,0.6800000000000004,0.08,0.5000000000000002,4,2,1,2,9,2,1,2,4,0,13,7,H,0.15777777777777782,0.34000000000000014,0.08,0.25000000000000006
11,3,6,0,9,0.7900000000000005,16,19,64,20,47,82,1.680000000000001,3.139999999999977,0.11999999999999998,0.22000000000000006,18,6,1,4,22,7,2,4,4,0,18,7,H,0.07636363636363638,0.4485714285714288,0.06,0.05499999999999999
11,4,7,0,10,0.5500000000000003,2,6,18,13,19,70,1.640000000000001,6.699999999999902,0.01,0.060000000000000005,4,15,1,1,12,31,1,1,6,0.5,22,7,H,0.1366666666666667,0.2161290322580646,0.01,0.060000000000000005
11,4,8,0,6,0.7700000000000005,11,14,53,8,49,38,2.0400000000000014,0.6500000000000004,0.49000000000000027,1.1200000000000008,13,2,2,3,20,3,2,6,4,0,19,7,H,0.10200000000000002,0.21666666666666676,0.2450000000000001,0.1866666666666667
11,5,9,0,6,0.6500000000000004,2,6,39,23,59,21,2.2200000000000015,0.23000000000000007,0.09,0.18000000000000002,5,2,1,2,10,2,1,3,4,0,21,7,H,0.22200000000000006,0.11499999999999999,0.09,0.06
11,5,10,0,1,0.5900000000000003,2,6,33,29,10,28,1.1100000000000005,0.5100000000000002,0.6000000000000003,0.18000000000000002,4,2,1,3,8,3,1,3,5,0.5,21,7,H,0.13875,0.17,0.6000000000000003,0.060000000000000005
11,6,11,0,10,0.49000000000000027,2,3,79,33,17,59,2.510000000000001,0.5000000000000002,1.270000000000001,0.38000000000000017,6,2,5,1,11,3,9,1,6,0,18,7,H,0.22818181818181826,0.16666666666666669,0.14111111111111113,0.38000000000000017
11,6,12,0,7,0.35000000000000014,2,3,5,109,38,112,1.4600000000000009,0.5900000000000003,0.18000000000000002,0.09,4,2,1,1,6,2,1,1,3,0,15,7,H,0.24333333333333346,0.29500000000000015,0.18000000000000002,0.09
11,7,13,1,6,0.6600000000000004,10,11,7,96,11,59,4.099999999999971,1.360000000000001,0.03,0.01,16,6,2,1,21,7,2,1,4,0,19,7,H,0.19523809523809532,0.19428571428571437,0.015,0.01
11,7,14,1,11,0.36000000000000015,2,3,69,65,110,74,1.3200000000000007,0.6300000000000003,0.07,0.2900000000000001,3,2,1,1,4,3,1,2,2,0,13,7,H,0.3300000000000002,0.21000000000000008,0.07,0.14500000000000002
11,8,15,1,7,0.17,2,2,3,54,52,78,3.0899999999999817,0.02,0.03,0.01,6,1,1,1,9,1,1,1,3,0,17,7,H,0.3433333333333335,0.02,0.03,0.01
11,8,16,1,14,0.4000000000000002,2,4,66,18,40,68,2.2400000000000015,0.18000000000000002,0.08,0.09999999999999999,5,1,1,1,10,1,1,1,5,0,19,7,H,0.2240000000000001,0.18000000000000002,0.08,0.09999999999999999
11,9,17,1,10,0.46000000000000024,2,4,6,83,71,39,1.8900000000000012,0.25000000000000006,0.13999999999999999,0.38000000000000017,4,1,1,2,10,1,1,2,6,0,18,7,H,0.18900000000000006,0.25000000000000006,0.13999999999999999,0.19000000000000003
11,9,18,1,12,0.5000000000000002,2,4,96,53,86,31,1.3000000000000007,0.6200000000000003,0.3000000000000001,0.17,4,3,2,1,10,5,2,1,3,0,15,7,H,0.13,0.12400000000000003,0.15,0.17
11,10,19,1,15,0.4000000000000002,2,4,62,96,86,24,1.4800000000000009,0.6200000000000003,0.19000000000000003,0.21000000000000005,4,2,1,1,8,2,1,1,4,0,16,7,H,0.18500000000000005,0.3100000000000001,0.19000000000000003,0.21000000000000005
11,10,20,1,6,0.45000000000000023,4,4,1,40,7,75,2.5499999999999994,0.04,0.09,0.5700000000000003,8,1,1,2,14,1,1,2,4,0,20,7,H,0.18214285714285722,0.04,0.09,0.28500000000000014
11,11,21,1,3,0.6400000000000003,2,7,33,26,76,111,1.4100000000000008,0.5200000000000002,0.20000000000000004,0.6100000000000003,4,2,2,2,11,3,3,3,5,0,15,7,H,0.1281818181818182,0.17333333333333334,0.06666666666666667,0.2033333333333334
11,11,22,1,12,0.5100000000000002,2,3,88,51,44,96,1.520000000000001,0.3900000000000002,0.38000000000000017,0.10999999999999999,4,2,2,1,9,3,2,1,3,0,15,7,H,0.16888888888888892,0.13,0.19000000000000003,0.10999999999999999
11,12,23,1,4,0.34000000000000014,2,3,98,107,50,24,0.8800000000000003,0.4200000000000002,0.3300000000000001,0.3300000000000001,3,2,1,1,4,3,1,1,2,0,14,7,H,0.22000000000000008,0.14,0.3300000000000001,0.3300000000000001
11,12,24,1,15,0.5800000000000003,2,5,63,112,10,77,1.8100000000000012,0.5300000000000002,0.17,0.18000000000000002,4,2,2,1,9,2,2,1,4,0,15,7,H,0.20111111111111116,0.26500000000000007,0.08499999999999999,0.18000000000000002
11,13,25,1,15,0.7200000000000004,2,7,118,38,116,18,2.700000000000002,0.4300000000000002,0.15,0.11999999999999998,5,2,1,1,18,3,1,1,4,0,15,7,H,0.15000000000000002,0.14333333333333334,0.15,0.11999999999999998
11,13,26,1,12,1.1200000000000008,10,15,91,102,88,49,2.0000000000000013,0.4200000000000002,0.7800000000000005,0.11999999999999998,12,1,2,2,18,1,2,2,3,0,12,7,H,0.11111111111111113,0.4200000000000002,0.3900000000000002,0.06
11,14,27,1,10,0.5400000000000003,9,9,4,56,11,43,1.4800000000000009,0.5500000000000003,0.35000000000000014,0.5100000000000002,11,2,2,2,12,3,4,2,6,0,21,7,H,0.12333333333333338,0.18333333333333335,0.08750000000000001,0.25500000000000006
11,14,28,1,15,0.46000000000000024,2,3,65,79,61,28,1.1300000000000006,0.7900000000000005,0.20000000000000004,0.4200000000000002,4,2,1,3,7,2,1,3,4,0,16,7,H,0.16142857142857145,0.3950000000000002,0.20000000000000004,0.14000000000000004
11,15,29,1,4,0.5900000000000003,10,10,45,56,96,102,3.689999999999978,0.07,0.21000000000000005,0.09,14,2,2,2,20,2,2,2,2,0,14,7,H,0.18450000000000003,0.035,0.10500000000000002,0.045
11,15,30,1,3,0.34000000000000014,2,3,84,31,116,119,1.3700000000000008,0.5800000000000003,0.5500000000000003,0.09999999999999999,4,2,2,1,6,4,4,1,5,0,12,7,H,0.22833333333333342,0.14500000000000002,0.1375,0.09999999999999999
11,16,31,1,11,0.45000000000000023,2,4,117,110,31,5,1.0600000000000005,0.8100000000000005,0.6300000000000003,0.21000000000000005,4,2,2,1,6,5,2,1,2,0,15,7,H,0.1766666666666667,0.16200000000000003,0.31500000000000017,0.21000000000000005
11,16,32,1,4,0.6400000000000003,2,4,104,17,43,38,1.2800000000000007,1.1000000000000008,0.17,6.259999999999911,4,2,2,9,8,6,2,19,2,0,18,7,H,0.16000000000000003,0.18333333333333338,0.08499999999999999,0.3294736842105265
11,17,33,1,14,0.5500000000000003,2,6,43,74,7,63,1.1500000000000006,0.9800000000000006,0.22000000000000006,0.34000000000000014,4,3,1,2,8,5,1,3,5,0,18,7,H,0.14375000000000004,0.19600000000000006,0.22000000000000006,0.11333333333333334
11,17,34,1,12,0.4200000000000002,2,4,86,91,108,93,1.3100000000000007,0.6100000000000003,0.37000000000000016,0.07,4,2,1,1,11,3,1,1,3,0.5,11,7,H,0.11909090909090911,0.20333333333333337,0.37000000000000016,0.07
11,18,35,1,11,0.7600000000000005,11,12,111,114,63,31,2.0000000000000013,0.20000000000000004,1.0200000000000007,0.04,13,1,3,1,16,1,3,1,2,0,13,7,H,0.12500000000000003,0.20000000000000004,0.34000000000000014,0.04
11,18,36,1,4,0.5000000000000002,2,3,56,76,78,4,2.1800000000000015,0.46000000000000024,0.11999999999999998,0.08,4,2,1,1,7,3,1,1,2,0,16,7,H,0.31142857142857155,0.15333333333333335,0.11999999999999998,0.08
11,19,37,1,6,0.9900000000000007,20,23,49,53,40,86,1.740000000000001,0.5600000000000003,0.6000000000000003,0.3300000000000001,20,2,2,2,24,3,5,2,4,0,16,7,H,0.07250000000000002,0.18666666666666673,0.12000000000000002,0.16500000000000006
11,19,38,1,7,0.5900000000000003,3,6,78,25,101,26,1.2100000000000006,0.4200000000000002,0.5900000000000003,0.4200000000000002,5,1,2,2,8,2,2,4,3,0,15,7,H,0.15125000000000002,0.21000000000000008,0.2950000000000001,0.105
11,20,39,1,15,0.45000000000000023,2,4,67,103,32,31,1.670000000000001,0.4300000000000002,0.16,0.11999999999999998,4,2,1,1,14,2,1,1,4,0,16,7,H,0.1192857142857143,0.21500000000000005,0.16,0.11999999999999998
11,20,40,1,14,0.48000000000000026,6,8,39,116,81,84,1.0900000000000005,0.6300000000000003,0.5900000000000003,0.3000000000000001,7,1,2,1,9,1,4,1,5,0,13,7,H,0.12111111111111116,0.6300000000000003,0.14750000000000002,0.3000000000000001
11,21,41,1,12,0.5300000000000002,10,11,89,15,109,91,1.2200000000000006,2.7499999999999853,0.19000000000000003,0.9000000000000006,12,4,1,3,14,8,1,3,3,0,14,7,H,0.08714285714285716,0.34375000000000017,0.19000000000000003,0.30000000000000016
11,21,42,1,15,0.5800000000000003,2,6,61,68,77,76,1.3800000000000008,0.4000000000000002,0.2900000000000001,0.34000000000000014,4,1,1,1,10,1,1,1,4,0,14,7,H,0.138,0.4000000000000002,0.2900000000000001,0.34000000000000014
11,22,43,1,11,0.49000000000000027,3,5,110,21,119,60,1.1500000000000006,1.2100000000000009,0.15,0.13999999999999999,5,2,2,1,7,3,2,1,2,0,14,7,H,0.1642857142857143,0.40333333333333354,0.07499999999999998,0.13999999999999999
11,22,44,1,7,0.4400000000000002,2,5,74,106,47,46,1.0900000000000005,0.6300000000000003,0.3300000000000001,0.09,3,1,2,1,6,1,3,1,3,0,15,7,H,0.18166666666666673,0.6300000000000003,0.11,0.09
12,1,1,0,3,0.19000000000000003,2,3,46,47,19,38,0.6900000000000003,0.09,0.35000000000000014,0.04,4,1,1,1,6,1,1,1,5,0.5,21,7,H,0.115,0.09,0.35000000000000014,0.04
12,1,2,0,2,0.20000000000000004,2,3,59,81,77,2,0.8500000000000004,0.12999999999999998,0.20000000000000004,0.5100000000000002,3,2,2,1,4,3,2,1,3,0,16,7,H,0.21250000000000008,0.043333333333333335,0.1,0.5100000000000002
12,2,3,0,5,0.24000000000000007,2,3,2,1,44,62,0.6700000000000003,1.9000000000000015,0.26000000000000006,0.05,4,3,2,2,7,8,2,2,6,0,21,7,H,0.09571428571428572,0.2375000000000001,0.13000000000000003,0.025
12,2,4,0,1,0.21000000000000005,2,3,22,32,35,21,0.8500000000000004,0.12999999999999998,0.04,0.46000000000000024,4,2,1,2,6,2,1,2,5,0,22,7,H,0.14166666666666672,0.06499999999999999,0.04,0.2300000000000001
12,3,5,0,5,0.19000000000000003,2,3,10,5,28,82,0.6500000000000002,0.15,0.6000000000000003,0.3000000000000001,3,1,2,2,4,1,2,2,6,0,20,7,H,0.16250000000000006,0.15,0.3000000000000001,0.15000000000000002
12,3,6,0,3,0.24000000000000007,2,3,46,71,69,64,0.8700000000000004,0.5100000000000002,0.04,0.6300000000000003,4,2,1,2,5,5,1,2,5,0.5,17,7,H,0.17400000000000004,0.10200000000000002,0.04,0.3150000000000001
12,4,7,0,9,0.20000000000000004,2,3,67,6,71,26,0.8500000000000004,0.09999999999999999,0.10999999999999999,0.36000000000000015,4,1,2,3,7,1,2,3,4,0,19,7,H,0.12142857142857146,0.09999999999999999,0.05500000000000001,0.12000000000000001
12,4,8,0,2,0.22000000000000006,2,3,80,15,74,42,0.7500000000000003,3.8299999999999623,0.01,0.01,4,9,1,1,5,14,1,1,3,0,17,7,H,0.15000000000000002,0.2735714285714287,0.01,0.01
12,5,9,0,7,0.23000000000000007,2,3,92,34,91,9,0.5200000000000001,0.5200000000000002,0.03,0.11999999999999998,4,2,1,1,5,4,1,1,3,0,17,7,H,0.10400000000000002,0.13,0.03,0.11999999999999998
12,5,10,0,8,0.20000000000000004,2,3,83,113,111,60,0.6300000000000002,0.12999999999999998,0.13999999999999999,0.23000000000000007,3,1,1,1,4,1,1,1,2,0,11,7,H,0.15750000000000006,0.12999999999999998,0.13999999999999999,0.23000000000000007
12,6,11,0,5,0.3000000000000001,4,6,2,5,35,6,0.7800000000000004,0.20000000000000004,0.12999999999999998,0.3000000000000001,6,1,1,3,10,1,1,3,6,0.5,23,7,H,0.078,0.20000000000000004,0.12999999999999998,0.10000000000000002
12,6,12,0,4,0.22000000000000006,3,4,107,104,89,63,0.5800000000000002,0.20000000000000004,1.0900000000000007,0.03,5,1,2,1,6,1,2,1,2,0,11,7,H,0.09666666666666669,0.20000000000000004,0.5450000000000004,0.03
12,7,13,1,4,0.20000000000000004,2,3,97,58,87,49,0.5700000000000002,0.36000000000000015,0.35000000000000014,0.02,4,1,1,1,5,1,1,1,2,0,13,7,H,0.11400000000000003,0.36000000000000015,0.35000000000000014,0.02
12,7,14,1,13,0.22000000000000006,2,3,24,76,78,36,0.6900000000000003,0.35000000000000014,0.16,2.9299999999999815,4,1,1,3,5,1,1,3,6,0,17,7,H,0.138,0.35000000000000014,0.16,0.9766666666666667
12,8,15,1,12,0.18000000000000002,2,3,87,88,59,8,0.6200000000000002,0.16,0.4100000000000002,0.02,4,1,2,1,5,1,2,1,3,0,16,7,H,0.12400000000000003,0.16,0.20500000000000004,0.02
12,8,16,1,13,0.21000000000000005,2,3,20,76,14,15,0.6200000000000002,0.3900000000000002,0.05,0.6200000000000003,4,2,1,3,5,4,1,5,6,0.5,21,7,H,0.12400000000000001,0.09750000000000003,0.05,0.12400000000000003
12,9,17,1,11,0.19000000000000003,2,3,118,53,8,44,0.4900000000000001,0.4400000000000002,0.21000000000000005,0.22000000000000006,3,2,2,1,4,3,2,1,2,0,17,7,H,0.12250000000000003,0.1466666666666667,0.10500000000000002,0.22000000000000006
12,9,18,1,13,0.20000000000000004,2,4,20,18,22,24,0.5800000000000002,16.219999999999736,0.01,0.16,3,17,1,2,5,43,1,2,6,1,72,7,H,0.11600000000000003,0.3772093023255816,0.01,0.08
12,10,19,1,3,0.12999999999999998,2,3,29,30,34,16,0.45000000000000007,0.12999999999999998,0.12999999999999998,0.3000000000000001,3,1,1,1,4,1,1,1,5,0.5,21,7,H,0.11250000000000003,0.12999999999999998,0.12999999999999998,0.3000000000000001
12,10,20,1,4,0.2700000000000001,2,3,12,99,6,43,0.7700000000000002,0.09,1.9400000000000015,1.1200000000000008,4,1,6,2,6,1,6,2,2,0,19,7,H,0.12833333333333335,0.09,0.3233333333333335,0.5600000000000004
12,11,21,1,13,0.2700000000000001,2,3,19,13,51,24,0.8600000000000003,16.17999999999973,0.01,0.01,4,19,1,1,5,42,1,1,6,0.5,22,7,H,0.17200000000000004,0.38523809523809543,0.01,0.01
12,11,22,1,7,0.20000000000000004,2,5,42,75,5,68,0.9500000000000005,0.07,0.20000000000000004,0.18000000000000002,4,1,2,1,8,1,2,1,3,0,18,7,H,0.11875000000000004,0.07,0.1,0.18000000000000002
12,12,23,1,12,0.16,2,5,95,89,3,85,0.5800000000000002,0.08,0.38000000000000017,0.060000000000000005,4,1,2,2,7,1,2,2,3,0.5,15,7,H,0.08285714285714287,0.08,0.19000000000000003,0.03
12,12,24,1,7,0.5000000000000002,16,17,84,81,36,22,0.8300000000000003,0.36000000000000015,0.03,0.09,17,2,1,1,18,3,1,1,3,0,17,7,H,0.04611111111111112,0.12,0.03,0.09
12,13,25,1,13,0.24000000000000007,2,3,16,15,42,95,0.7300000000000003,0.18000000000000002,0.17,0.25000000000000006,4,1,1,2,5,1,1,3,6,0,20,7,H,0.14600000000000002,0.18000000000000002,0.17,0.08333333333333333
12,13,26,1,3,0.23000000000000007,2,3,33,81,53,11,0.8900000000000005,0.15,0.5200000000000002,0.04,4,1,3,1,5,1,4,1,5,0,18,7,H,0.17800000000000005,0.15,0.13000000000000006,0.04
12,14,27,1,6,0.5100000000000002,8,8,2,56,44,42,2.0200000000000014,0.03,0.02,0.26000000000000006,11,1,1,2,12,1,1,2,4,0,20,7,H,0.1683333333333334,0.03,0.02,0.13000000000000003
