Subject,Round,Phase,afterbreak,Schema,Schema_RT,Schema_OB,Schema_AS,Cho_1,Cho_2,Cho_3,Cho_4,RT_1,RT_2,RT_3,RT_4,OB_1,OB_2,OB_3,OB_4,AS_1,AS_2,AS_3,AS_4,schema_payoff,AC,performance,breakR,type,dwellmean_1,dwellmean_2,dwellmean_3,dwellmean_4
1,1,1,0,10,0.5500000000000003,2,6,92,1,93,85,12.0899999999998,0.9800000000000006,0.25000000000000006,1.8000000000000014,17,2,1,2,38,2,1,4,3,0.5,24,6,L,0.3181578947368422,0.4900000000000002,0.25000000000000006,0.45000000000000023
1,1,2,0,1,0.4100000000000002,2,3,16,75,33,112,11.299999999999812,0.3200000000000001,0.7600000000000005,1.5400000000000011,13,1,1,3,24,1,1,6,3,0,16,6,L,0.4708333333333336,0.3200000000000001,0.7600000000000005,0.25666666666666677
1,2,3,0,1,0.45000000000000023,2,3,46,43,83,84,9.749999999999847,2.2199999999999966,0.6700000000000004,0.6400000000000003,13,5,2,3,28,6,3,3,3,0,16,6,L,0.34821428571428586,0.37000000000000016,0.2233333333333334,0.21333333333333337
1,2,4,0,8,0.3200000000000001,1,4,13,111,114,23,8.96999999999986,0.5200000000000002,3.099999999999978,5.289999999999932,10,1,7,10,16,1,9,14,2,0,16,6,L,0.5606250000000004,0.5200000000000002,0.3444444444444446,0.37785714285714306
1,3,5,0,2,0.3300000000000001,2,3,54,88,104,96,29.42000000000175,0.6000000000000003,0.09,2.6399999999999877,20,2,1,5,83,2,1,5,4,0,12,6,L,0.3544578313253014,0.30000000000000016,0.09,0.5280000000000004
1,3,6,0,9,1.0400000000000007,4,5,115,113,67,17,11.339999999999826,0.35000000000000014,2.3099999999999947,5.3899999999999295,19,1,3,8,34,1,6,9,4,0,14,6,L,0.333529411764706,0.35000000000000014,0.3850000000000002,0.598888888888889
1,4,7,0,9,0.7500000000000004,2,7,63,106,72,71,5.479999999999944,6.229999999999912,2.5899999999999888,1.490000000000001,7,6,5,7,12,10,8,11,4,0.5,26,6,L,0.45666666666666694,0.6229999999999992,0.32375000000000015,0.13545454545454547
1,4,8,0,10,1.2500000000000009,2,4,20,85,114,38,11.509999999999827,1.340000000000001,0.7400000000000004,0.7700000000000005,11,2,2,1,38,2,2,1,3,0,16,6,L,0.3028947368421054,0.6700000000000004,0.37000000000000016,0.7700000000000005
1,5,9,0,3,0.11999999999999998,2,2,15,49,19,117,17.169999999999867,2.159999999999998,0.08,0.6100000000000003,20,2,1,3,46,3,1,3,5,0,18,6,L,0.3732608695652176,0.7200000000000005,0.08,0.2033333333333334
1,5,10,0,10,0.3900000000000002,2,3,85,70,66,12,4.85999999999995,9.359999999999845,0.6700000000000004,3.0299999999999794,6,10,1,5,10,21,1,6,3,0,17,6,L,0.4860000000000003,0.44571428571428595,0.6700000000000004,0.5050000000000002
1,6,11,1,2,0.48000000000000026,2,3,53,87,55,51,6.79999999999991,6.729999999999901,0.25000000000000006,2.3299999999999943,9,10,1,5,20,21,2,6,4,0.5,27,6,L,0.3400000000000002,0.32047619047619064,0.12500000000000003,0.38833333333333353
1,6,12,1,1,0.4100000000000002,2,4,104,62,84,107,8.16999999999988,2.859999999999983,0.4400000000000002,1.7800000000000014,13,6,2,4,24,7,3,5,3,0,11,6,L,0.3404166666666668,0.40857142857142875,0.1466666666666667,0.35600000000000015
1,7,13,1,2,0.4200000000000002,2,4,91,54,56,87,14.909999999999735,0.10999999999999999,1.500000000000001,0.2700000000000001,17,1,4,1,38,1,4,1,4,0,14,6,L,0.3923684210526318,0.10999999999999999,0.37500000000000017,0.2700000000000001
1,7,14,1,8,0.34000000000000014,2,3,101,104,105,68,5.869999999999926,5.619999999999925,1.6100000000000012,0.4300000000000002,12,7,2,3,17,10,3,3,2,0.5,16,6,L,0.345294117647059,0.5619999999999999,0.536666666666667,0.14333333333333337
1,8,15,1,13,0.4400000000000002,2,6,109,71,68,65,9.04999999999986,1.6000000000000012,2.0899999999999994,0.37000000000000016,12,3,2,1,24,5,2,1,2,0.5,26,6,L,0.37708333333333355,0.3200000000000002,1.0450000000000008,0.37000000000000016
1,8,16,1,15,0.21000000000000005,1,3,14,22,56,23,8.309999999999873,1.460000000000001,2.0400000000000005,1.440000000000001,13,5,6,5,25,5,7,5,6,0.5,40,6,L,0.33240000000000014,0.2920000000000001,0.29142857142857154,0.28800000000000014
1,9,17,1,1,0.23000000000000007,2,3,79,56,53,83,2.859999999999988,8.599999999999861,0.6300000000000003,0.3000000000000001,5,9,3,2,7,15,3,2,3,0,14,6,L,0.4085714285714288,0.5733333333333337,0.21000000000000005,0.15
1,9,18,1,13,0.5600000000000003,2,4,119,116,110,64,8.75999999999987,3.279999999999974,1.6100000000000012,0.2900000000000001,15,7,3,1,28,11,3,1,2,0.5,16,6,L,0.312857142857143,0.2981818181818183,0.536666666666667,0.2900000000000001
1,10,19,1,14,0.6500000000000004,2,6,92,69,96,113,11.839999999999806,0.7500000000000004,0.6800000000000004,1.5700000000000012,15,1,3,4,38,1,3,4,3,0,12,6,L,0.3115789473684212,0.7500000000000004,0.22666666666666674,0.3925000000000002
1,10,20,1,7,0.24000000000000007,2,3,4,2,12,100,5.9199999999999235,2.4999999999999907,0.8300000000000005,2.07,7,3,4,2,18,7,5,2,6,0.5,38,6,L,0.32888888888888906,0.3571428571428573,0.16600000000000006,1.0350000000000006
1,11,21,1,1,0.5000000000000002,3,4,77,78,11,112,8.269999999999879,1.6600000000000013,8.399999999999865,0.3100000000000001,9,4,8,2,13,4,15,2,3,0,14,6,L,0.6361538461538465,0.4150000000000002,0.5600000000000004,0.155
1,11,22,1,14,0.7700000000000005,2,5,91,65,64,93,13.359999999999776,3.8099999999999627,1.6700000000000013,0.4300000000000002,16,8,3,2,26,10,5,2,3,0,14,6,L,0.5138461538461542,0.3810000000000002,0.3340000000000002,0.21500000000000008
1,12,23,1,3,0.9800000000000006,3,4,27,8,56,33,6.979999999999917,2.2699999999999956,0.47000000000000025,0.6200000000000003,11,4,2,2,17,5,2,3,5,0,20,6,L,0.41058823529411786,0.45400000000000024,0.2350000000000001,0.20666666666666672
1,12,24,1,12,0.4200000000000002,2,3,72,91,40,62,5.019999999999946,3.4899999999999696,0.5100000000000002,0.2900000000000001,7,4,1,1,10,9,1,1,5,0,16,6,L,0.5020000000000003,0.387777777777778,0.5100000000000002,0.2900000000000001
1,13,25,1,3,0.5800000000000003,2,6,27,36,32,35,8.909999999999867,0.7800000000000005,1.6000000000000012,10.53999999999982,11,2,3,11,23,2,7,26,5,1,60,6,L,0.3873913043478263,0.3900000000000002,0.22857142857142865,0.4053846153846156
1,13,26,1,12,0.7300000000000004,3,5,11,38,37,41,10.119999999999845,0.7700000000000005,1.0500000000000007,0.5700000000000003,16,3,5,3,28,5,7,5,5,0.5,36,6,L,0.3614285714285716,0.15400000000000003,0.15000000000000002,0.114
1,14,27,1,1,0.6900000000000004,2,4,64,78,77,3,7.659999999999896,5.539999999999926,2.2699999999999956,1.420000000000001,14,9,5,5,22,13,5,5,3,0,16,6,L,0.34818181818181837,0.4261538461538464,0.4540000000000003,0.2840000000000001
1,14,28,1,12,0.3300000000000001,2,3,39,43,50,48,6.64999999999991,1.9700000000000015,0.4200000000000002,2.5099999999999905,8,5,3,6,19,5,3,7,5,0.5,34,6,L,0.3500000000000002,0.3940000000000002,0.14000000000000004,0.35857142857142876
1,15,29,1,14,0.3300000000000001,2,3,46,43,87,40,9.149999999999856,2.5999999999999885,2.299999999999995,5.329999999999931,13,6,5,6,23,6,5,11,3,0.5,33,6,L,0.39782608695652194,0.43333333333333357,0.4600000000000003,0.4845454545454548
1,15,30,1,3,0.8900000000000006,2,6,27,58,31,49,7.169999999999911,0.20000000000000004,2.429999999999992,1.5600000000000012,13,1,4,2,25,1,4,2,5,0,18,6,L,0.2868000000000001,0.20000000000000004,0.6075000000000004,0.7800000000000005
1,16,31,1,13,3.1699999999999764,7,8,119,60,55,111,6.829999999999942,2.53999999999999,0.3900000000000002,0.20000000000000004,14,5,1,1,16,7,1,1,2,0,12,6,L,0.4268749999999994,0.362857142857143,0.3900000000000002,0.20000000000000004
1,16,32,1,8,0.5500000000000003,2,4,46,107,98,48,10.64999999999983,0.36000000000000015,3.759999999999964,0.47000000000000025,15,2,8,3,26,2,9,4,2,0,14,6,L,0.4096153846153848,0.18000000000000005,0.41777777777777797,0.11750000000000002
1,17,33,1,11,0.2900000000000001,2,3,34,32,9,74,10.38999999999983,2.52999999999999,0.8400000000000005,0.4200000000000002,11,7,3,1,30,9,3,1,4,0,19,6,L,0.3463333333333335,0.2811111111111112,0.28000000000000014,0.4200000000000002
1,17,34,1,15,0.34000000000000014,2,3,89,18,91,96,6.289999999999917,0.7500000000000004,4.479999999999949,1.6100000000000012,7,1,4,3,11,1,7,3,6,0.5,24,6,L,0.5718181818181821,0.7500000000000004,0.6400000000000003,0.536666666666667
1,18,35,1,7,0.2900000000000001,1,2,1,6,82,76,22.960000000000743,0.01,0.02,0.04,18,1,1,1,54,1,1,1,6,0,18,6,L,0.42518518518518533,0.01,0.02,0.04
1,18,36,1,14,4.709999999999944,7,14,23,53,47,46,13.299999999999805,0.3900000000000002,3.46999999999997,1.400000000000001,15,2,8,3,26,3,10,3,3,0,20,6,L,0.5115384615384612,0.13,0.34700000000000014,0.4666666666666669
1,19,37,1,2,0.6900000000000004,4,5,50,46,52,60,9.509999999999856,3.329999999999973,0.17,0.08,15,5,2,1,26,10,2,1,4,0.5,29,6,L,0.3657692307692309,0.33300000000000013,0.08499999999999999,0.08
1,19,38,1,14,0.3000000000000001,2,4,7,35,1,109,9.319999999999853,3.3399999999999728,0.5800000000000003,0.8400000000000005,10,6,2,1,24,9,3,1,3,0,19,6,L,0.3883333333333333,0.3711111111111113,0.19333333333333338,0.8400000000000005
2,1,1,0,5,0.34000000000000014,2,3,100,52,49,38,3.9899999999999665,0.7700000000000005,0.2700000000000001,0.08,5,2,1,1,7,2,1,1,5,0,15,7,L,0.5700000000000004,0.3850000000000002,0.2700000000000001,0.08
2,1,2,0,1,0.2900000000000001,2,4,81,84,118,61,4.859999999999947,0.17,1.1700000000000008,1.380000000000001,9,2,4,2,15,2,5,2,3,0,12,7,L,0.3240000000000002,0.08499999999999999,0.23400000000000007,0.6900000000000004
2,2,3,0,2,0.3100000000000001,2,3,59,111,114,50,5.029999999999944,0.25000000000000006,0.16,0.09999999999999999,9,1,1,1,14,1,1,1,4,0,12,7,L,0.3592857142857145,0.25000000000000006,0.16,0.09999999999999999
2,2,4,0,3,0.3000000000000001,4,5,18,101,69,34,7.819999999999884,0.10999999999999999,0.26000000000000006,0.01,15,1,3,1,27,1,3,1,5,0,17,7,L,0.28962962962962974,0.10999999999999999,0.08666666666666667,0.01
2,3,5,0,4,0.3200000000000001,2,3,98,9,103,53,2.290000000000002,2.5599999999999894,0.09,0.3100000000000001,6,7,1,2,7,8,1,2,2,0,14,7,L,0.3271428571428573,0.3200000000000001,0.09,0.155
2,3,6,0,5,0.21000000000000005,2,3,43,48,42,39,3.2199999999999798,1.5800000000000012,1.0400000000000007,0.04,8,4,3,1,11,6,3,1,5,1,60,7,L,0.2927272727272729,0.2633333333333334,0.34666666666666685,0.04
2,4,7,0,3,0.5700000000000003,6,7,67,107,33,106,3.6199999999999792,0.4200000000000002,0.4200000000000002,0.21000000000000005,11,2,2,1,13,2,2,1,5,0,13,7,L,0.2784615384615386,0.2100000000000001,0.21000000000000005,0.21000000000000005
2,4,8,0,2,0.38000000000000017,2,3,52,44,76,77,4.7799999999999505,0.24000000000000007,1.8900000000000015,0.25000000000000006,10,1,3,2,11,1,3,3,4,0,15,7,L,0.4345454545454548,0.24000000000000007,0.6300000000000004,0.08333333333333333
2,5,9,0,6,1.0900000000000007,5,9,31,5,68,35,4.519999999999971,3.5999999999999672,0.02,0.01,12,7,1,1,16,11,1,1,6,0,20,7,L,0.28250000000000014,0.32727272727272744,0.02,0.01
2,5,10,0,5,0.23000000000000007,2,3,40,45,39,104,2.999999999999985,0.6400000000000003,2.020000000000001,0.9800000000000006,7,2,6,4,10,2,8,5,5,0.5,32,7,L,0.30000000000000016,0.3200000000000001,0.2525000000000001,0.19600000000000006
2,6,11,0,8,0.3300000000000001,2,3,2,68,64,94,4.809999999999949,0.13999999999999999,1.390000000000001,0.38000000000000017,9,1,3,1,11,1,3,1,2,0,17,7,L,0.43727272727272753,0.13999999999999999,0.4633333333333336,0.38000000000000017
2,6,12,0,5,0.7800000000000005,2,3,108,46,18,13,4.919999999999956,0.3900000000000002,0.4300000000000002,4.049999999999958,6,2,1,7,9,3,1,11,5,0,19,7,L,0.546666666666667,0.13,0.4300000000000002,0.3681818181818184
2,7,13,1,14,0.3900000000000002,2,4,88,57,30,109,2.689999999999995,0.8600000000000005,1.0500000000000007,0.5000000000000002,7,2,2,2,11,2,2,2,3,0,14,7,L,0.24454545454545462,0.43000000000000027,0.5250000000000002,0.25000000000000006
2,7,14,1,15,0.36000000000000015,2,3,17,62,37,24,1.9800000000000013,2.5899999999999888,0.7000000000000004,1.0800000000000007,5,5,2,3,6,9,2,4,6,0,21,7,L,0.3300000000000002,0.28777777777777785,0.3500000000000002,0.27000000000000013
2,8,15,1,12,0.3000000000000001,2,5,45,58,48,106,10.119999999999836,0.49000000000000027,2.06,0.03,14,3,4,1,20,3,4,1,5,0,16,7,L,0.5060000000000003,0.16333333333333339,0.5150000000000003,0.03
2,8,16,1,11,0.3300000000000001,3,5,62,32,94,28,3.9799999999999662,2.020000000000001,0.09,0.11999999999999998,8,4,1,1,14,5,1,1,4,0,17,7,L,0.2842857142857144,0.4040000000000002,0.09,0.11999999999999998
2,9,17,1,1,0.13999999999999999,2,3,82,36,75,55,2.9699999999999838,1.1000000000000008,1.5600000000000012,0.09,6,2,3,1,7,2,3,1,3,0,15,7,L,0.42428571428571454,0.5500000000000003,0.5200000000000004,0.09
2,9,18,1,11,0.2900000000000001,2,3,92,41,20,71,2.6499999999999937,0.7000000000000004,0.5800000000000003,0.13999999999999999,5,2,1,1,8,3,1,1,4,0,18,7,L,0.33125000000000016,0.23333333333333342,0.5800000000000003,0.13999999999999999
2,10,19,1,15,0.6600000000000004,3,4,14,88,46,44,4.449999999999964,0.26000000000000006,3.1999999999999758,0.04,8,1,7,1,10,2,9,1,6,0,19,7,L,0.4450000000000002,0.13,0.35555555555555574,0.04
2,10,20,1,3,0.7000000000000004,4,5,116,56,78,118,4.5499999999999625,0.19000000000000003,1.6300000000000012,0.13999999999999999,12,1,4,1,14,1,5,1,5,0,11,7,L,0.3250000000000001,0.19000000000000003,0.3260000000000001,0.13999999999999999
2,11,21,1,8,0.49000000000000027,2,5,80,15,71,23,4.429999999999961,0.9100000000000006,0.7000000000000004,0.3000000000000001,9,2,4,1,16,2,5,1,2,0,19,7,L,0.27687500000000015,0.45500000000000024,0.14000000000000004,0.3000000000000001
2,11,22,1,7,0.20000000000000004,2,3,86,30,25,35,3.7499999999999685,0.7500000000000004,1.8100000000000014,0.3300000000000001,8,1,2,2,14,1,2,2,6,0.5,33,7,L,0.26785714285714296,0.7500000000000004,0.9050000000000006,0.16500000000000004
2,12,23,1,7,0.3000000000000001,2,4,10,8,49,2,4.549999999999954,0.21000000000000005,0.23000000000000007,1.9600000000000015,6,2,1,2,9,2,1,3,6,0.5,40,7,L,0.5055555555555558,0.10499999999999998,0.23000000000000007,0.6533333333333338
2,12,24,1,14,0.36000000000000015,2,4,88,86,97,105,3.83999999999997,2.429999999999992,1.330000000000001,0.9200000000000006,8,5,4,4,11,5,5,5,3,0,10,7,L,0.34909090909090923,0.48600000000000027,0.2660000000000001,0.18400000000000008
2,13,25,1,13,0.2900000000000001,2,3,72,94,71,114,2.579999999999995,3.839999999999962,0.18000000000000002,2.0300000000000007,5,6,1,3,9,9,1,5,2,0,13,7,L,0.2866666666666668,0.4266666666666669,0.18000000000000002,0.40600000000000025
2,13,26,1,8,0.4100000000000002,2,4,105,46,54,56,3.87999999999997,0.7500000000000004,0.21000000000000005,0.21000000000000005,8,1,1,1,16,1,1,1,2,0,15,7,L,0.24250000000000008,0.7500000000000004,0.21000000000000005,0.21000000000000005
2,14,27,1,8,0.21000000000000005,2,3,99,98,8,103,4.769999999999947,0.07,3.849999999999962,1.340000000000001,9,1,5,4,11,1,6,4,2,0.5,18,7,L,0.4336363636363639,0.07,0.641666666666667,0.3350000000000002
2,14,28,1,2,0.24000000000000007,2,3,112,53,119,109,4.249999999999959,0.4300000000000002,1.480000000000001,1.260000000000001,8,2,5,2,9,2,5,2,4,0.5,16,7,L,0.4722222222222225,0.21500000000000008,0.2960000000000001,0.6300000000000004
2,15,29,1,1,0.20000000000000004,2,3,79,75,116,84,1.8500000000000012,4.319999999999952,0.07,0.03,5,8,1,1,8,10,1,1,3,0.5,20,7,L,0.2312500000000001,0.4320000000000002,0.07,0.03
2,15,30,1,8,0.21000000000000005,2,3,105,108,4,51,2.73999999999999,0.46000000000000024,3.519999999999969,0.12999999999999998,7,2,7,1,10,2,12,1,2,0,14,7,L,0.27400000000000013,0.23000000000000004,0.29333333333333345,0.12999999999999998
2,16,31,1,14,0.3300000000000001,2,3,71,116,93,39,2.5599999999999965,1.490000000000001,0.11999999999999998,0.6200000000000003,8,2,1,2,11,2,1,3,3,0,14,7,L,0.2327272727272728,0.7450000000000004,0.11999999999999998,0.20666666666666672
2,16,32,1,1,0.46000000000000024,2,4,53,78,73,50,5.269999999999942,0.7100000000000004,2.2299999999999964,0.02,9,3,2,1,13,3,3,1,3,0,14,7,L,0.4053846153846156,0.23666666666666675,0.7433333333333338,0.02
2,17,33,1,8,0.5000000000000002,8,9,34,105,32,31,4.299999999999963,2.9399999999999813,0.2800000000000001,3.4099999999999713,13,6,1,7,16,9,1,8,2,0.5,32,7,L,0.26875000000000016,0.3266666666666668,0.2800000000000001,0.42625000000000024
2,17,34,1,12,0.21000000000000005,4,5,63,70,11,113,1.690000000000001,1.1500000000000008,2.389999999999993,0.12999999999999998,6,2,6,1,7,2,7,1,5,0,16,7,L,0.24142857142857155,0.5750000000000003,0.3414285714285716,0.12999999999999998
2,18,35,1,13,0.38000000000000017,2,3,7,119,109,10,2.410000000000001,0.7100000000000004,1.5700000000000012,0.5400000000000003,5,2,5,2,7,4,5,2,2,0,16,7,L,0.3442857142857144,0.17750000000000005,0.31400000000000017,0.2700000000000001
2,18,36,1,15,0.16,2,3,107,97,106,16,4.6199999999999495,0.12999999999999998,2.239999999999996,0.9600000000000006,12,1,3,3,15,1,4,3,6,0.5,18,7,L,0.30800000000000016,0.12999999999999998,0.5600000000000003,0.3200000000000002
2,19,37,1,15,0.48000000000000026,2,3,17,90,24,22,4.069999999999967,0.20000000000000004,0.19000000000000003,1.440000000000001,9,1,1,5,10,1,1,6,6,0.5,39,7,L,0.4070000000000001,0.20000000000000004,0.19000000000000003,0.24000000000000007
2,19,38,1,8,0.2800000000000001,2,3,99,78,11,105,3.76999999999997,1.2300000000000009,0.4000000000000002,0.060000000000000005,8,3,2,1,12,3,4,1,2,0,13,7,L,0.3141666666666668,0.4100000000000002,0.1,0.060000000000000005
2,20,39,1,2,0.26000000000000006,2,4,75,83,59,14,2.8799999999999883,0.5900000000000003,0.6500000000000004,1.360000000000001,6,2,3,5,10,2,4,7,4,0,16,7,L,0.28800000000000014,0.2950000000000001,0.16250000000000003,0.1942857142857144
2,20,40,1,3,1.9100000000000015,6,13,26,4,89,64,4.609999999999988,4.019999999999959,1.9200000000000015,0.03,9,7,6,2,16,9,6,2,5,0,18,7,L,0.28812500000000013,0.44666666666666693,0.3200000000000001,0.015
2,21,41,1,12,0.17,2,3,37,14,43,39,4.979999999999942,0.46000000000000024,0.03,0.5000000000000002,12,2,1,2,20,2,1,2,5,0.5,36,7,L,0.2490000000000001,0.23000000000000004,0.03,0.2500000000000001
2,21,42,1,3,0.25000000000000006,2,2,2,79,81,5,14.429999999999742,0.01,0.01,0.01,17,1,1,1,31,1,1,1,5,0,18,7,L,0.4654838709677422,0.01,0.01,0.01
3,1,1,0,10,0.37000000000000016,2,4,119,60,94,88,3.84999999999997,0.9900000000000007,0.5100000000000002,0.6700000000000004,6,2,2,4,8,3,2,4,3,0,12,7,L,0.4812500000000001,0.3300000000000002,0.25500000000000006,0.16750000000000004
3,1,2,0,1,0.38000000000000017,2,4,77,22,35,75,1.9800000000000013,2.869999999999983,1.2000000000000008,0.09,4,6,5,1,6,8,5,1,3,0,17,7,L,0.3300000000000002,0.3587500000000002,0.24000000000000005,0.09
3,2,3,0,6,0.3900000000000002,2,3,32,6,58,35,4.959999999999948,1.1600000000000008,0.4400000000000002,0.4000000000000002,11,2,2,3,15,2,2,3,6,0,20,7,L,0.33066666666666683,0.5800000000000004,0.22000000000000006,0.13333333333333333
3,2,4,0,8,1.0000000000000007,3,6,21,16,22,46,4.00999999999998,1.440000000000001,0.5600000000000003,0.8800000000000006,10,3,2,1,13,4,3,1,2,0.5,41,7,L,0.3084615384615386,0.36000000000000015,0.1866666666666667,0.8800000000000006
3,3,5,0,10,0.45000000000000023,2,4,2,120,92,112,5.1899999999999435,0.7000000000000004,0.08,0.3300000000000001,11,3,1,2,15,7,1,2,3,0,13,7,L,0.34600000000000014,0.1,0.08,0.165
3,3,6,0,3,0.48000000000000026,2,3,22,28,26,15,3.2899999999999845,1.6100000000000012,0.26000000000000006,0.25000000000000006,6,2,1,1,7,4,1,1,5,0,22,7,L,0.47000000000000025,0.40250000000000025,0.26000000000000006,0.25000000000000006
3,4,7,0,1,0.16,1,2,78,80,25,6,2.359999999999997,0.5100000000000002,0.5700000000000003,2.0799999999999996,5,1,2,5,8,1,2,5,3,0,17,7,L,0.29500000000000015,0.5100000000000002,0.28500000000000014,0.4160000000000002
3,4,8,0,7,0.5600000000000003,2,3,86,51,15,106,6.059999999999928,1.380000000000001,1.450000000000001,1.7100000000000013,8,3,4,2,12,3,5,4,6,0,15,7,L,0.5050000000000003,0.46000000000000024,0.29000000000000015,0.4275000000000002
3,5,9,0,9,0.4200000000000002,2,5,72,10,29,11,1.7700000000000011,5.189999999999934,2.5499999999999896,0.01,4,11,3,1,8,12,3,1,4,0,21,7,L,0.22125000000000009,0.4325000000000003,0.8500000000000006,0.01
3,5,10,0,7,0.35000000000000014,2,3,57,14,97,23,6.519999999999913,0.10999999999999999,0.38000000000000017,0.8300000000000005,11,1,1,5,18,1,1,5,6,0,18,7,L,0.3622222222222224,0.10999999999999999,0.38000000000000017,0.16600000000000004
3,6,11,0,10,0.15,2,2,14,15,19,105,14.079999999999748,0.03,0.01,0.01,19,1,1,1,35,1,1,1,3,0.5,38,7,L,0.40228571428571447,0.03,0.01,0.01
3,6,12,0,8,0.22000000000000006,2,3,120,116,6,25,4.069999999999962,0.36000000000000015,0.19000000000000003,4.279999999999953,9,2,1,8,11,2,1,11,2,0,15,7,L,0.37000000000000016,0.18000000000000002,0.19000000000000003,0.3890909090909093
3,7,13,1,15,0.23000000000000007,4,4,13,95,24,113,3.3399999999999777,4.079999999999957,0.03,0.11999999999999998,8,6,1,1,10,9,1,1,6,0,17,7,L,0.3340000000000002,0.4533333333333336,0.03,0.11999999999999998
3,7,14,1,1,0.23000000000000007,2,3,78,74,101,82,1.3600000000000008,1.420000000000001,4.239999999999954,0.01,3,4,3,1,4,4,4,1,3,0.5,20,7,L,0.3400000000000002,0.35500000000000015,1.0599999999999932,0.01
3,8,15,1,7,1.2500000000000009,9,13,94,7,6,88,3.300000000000001,0.6200000000000003,2.8899999999999824,0.07,12,2,6,1,17,2,7,1,6,0,18,7,L,0.1941176470588236,0.3100000000000001,0.4128571428571431,0.07
3,8,16,1,2,0.36000000000000015,2,3,49,58,20,16,4.139999999999963,3.289999999999974,0.7800000000000005,1.320000000000001,9,7,2,3,15,9,2,3,4,0,20,7,L,0.27600000000000013,0.36555555555555574,0.3900000000000002,0.4400000000000002
3,9,17,1,8,0.36000000000000015,2,5,104,100,32,24,3.9499999999999678,1.8600000000000014,1.6400000000000012,0.5600000000000003,11,9,3,2,16,10,3,2,2,0,15,7,L,0.2468750000000001,0.18600000000000005,0.546666666666667,0.2800000000000001
3,9,18,1,11,0.20000000000000004,1,2,86,87,6,70,5.859999999999924,0.15,0.25000000000000006,0.07,9,1,2,1,13,1,2,1,4,0,16,7,L,0.45076923076923103,0.15,0.12499999999999997,0.07
3,10,19,1,15,1.1600000000000008,3,8,26,98,25,20,3.3599999999999977,1.6500000000000012,1.6800000000000013,0.21000000000000005,6,5,4,1,13,7,4,1,6,0,18,7,L,0.2584615384615386,0.2357142857142858,0.42000000000000026,0.21000000000000005
3,10,20,1,1,0.19000000000000003,2,3,2,115,73,80,5.839999999999924,4.87999999999994,0.01,0.01,10,4,1,1,12,5,1,1,3,0,14,7,L,0.48666666666666697,0.975999999999996,0.01,0.01
3,11,21,1,12,0.49000000000000027,2,5,4,37,2,44,3.409999999999982,0.38000000000000017,0.37000000000000016,6.2799999999999105,6,1,1,8,10,1,1,10,5,0,22,7,L,0.3410000000000002,0.38000000000000017,0.37000000000000016,0.6280000000000003
3,11,22,1,2,0.23000000000000007,2,3,22,113,51,14,2.29,1.350000000000001,0.5700000000000003,0.22000000000000006,6,4,2,1,7,5,2,1,4,0,18,7,L,0.3271428571428573,0.27000000000000013,0.2850000000000001,0.22000000000000006
3,12,23,1,12,0.47000000000000025,2,4,16,93,47,116,3.519999999999979,0.7900000000000005,0.6800000000000004,0.6500000000000004,8,1,3,2,16,1,3,3,5,0,16,7,L,0.22000000000000008,0.7900000000000005,0.22666666666666674,0.21666666666666673
3,12,24,1,1,0.3300000000000001,4,5,34,68,1,33,11.019999999999817,0.01,0.01,0.01,17,1,1,1,29,1,1,1,3,0,20,7,L,0.38000000000000017,0.01,0.01,0.01
3,13,25,1,14,0.35000000000000014,2,3,18,110,119,21,3.869999999999969,0.9800000000000006,0.8300000000000005,0.04,7,2,3,1,10,2,3,1,3,0,16,7,L,0.38700000000000023,0.4900000000000002,0.2766666666666667,0.04
3,13,26,1,7,0.34000000000000014,3,5,106,44,97,3,3.2299999999999827,3.0299999999999794,0.3300000000000001,0.5400000000000003,8,4,3,5,10,6,3,5,6,0,15,7,L,0.3230000000000002,0.5050000000000003,0.11000000000000001,0.108
3,14,27,1,14,0.49000000000000027,2,3,35,31,33,94,5.929999999999929,0.35000000000000014,0.7200000000000004,0.060000000000000005,9,1,2,2,14,1,2,2,3,0.5,33,7,L,0.4235714285714288,0.35000000000000014,0.36000000000000015,0.03
3,14,28,1,11,1.360000000000001,4,5,63,9,71,10,2.700000000000002,1.2300000000000009,1.5900000000000012,1.2000000000000008,5,2,3,4,6,2,3,4,4,0,20,7,L,0.4500000000000003,0.6150000000000003,0.5300000000000002,0.30000000000000016
3,15,29,1,11,0.18000000000000002,2,3,94,100,90,6,3.609999999999971,0.5400000000000003,0.24000000000000007,0.37000000000000016,7,2,1,2,11,2,1,2,4,0,14,7,L,0.32818181818181835,0.27000000000000013,0.24000000000000007,0.18500000000000005
3,15,30,1,13,0.22000000000000006,1,2,15,112,109,19,3.609999999999972,0.45000000000000023,0.5500000000000003,1.0600000000000007,8,2,3,3,11,3,3,3,2,0,16,7,L,0.3281818181818183,0.15000000000000002,0.18333333333333338,0.3533333333333335
3,16,31,1,7,0.20000000000000004,2,3,11,100,1,5,3.6099999999999715,0.4400000000000002,0.6800000000000004,4.339999999999952,6,1,3,8,11,1,4,9,6,0.5,38,7,L,0.32818181818181835,0.4400000000000002,0.17000000000000004,0.4822222222222225
3,16,32,1,14,0.2800000000000001,2,3,96,85,120,90,1.4800000000000009,0.6700000000000004,0.7700000000000005,0.3200000000000001,4,1,2,1,6,1,3,1,3,0.5,20,7,L,0.24666666666666676,0.6700000000000004,0.25666666666666677,0.3200000000000001
3,17,33,1,1,0.4100000000000002,2,4,80,84,34,22,3.0099999999999887,2.479999999999991,4.349999999999952,0.01,7,3,6,1,11,3,7,1,3,0,17,7,L,0.2736363636363638,0.8266666666666646,0.6214285714285718,0.01
3,17,34,1,2,0.9600000000000006,2,4,99,102,55,59,5.579999999999947,2.9699999999999807,0.3100000000000001,1.6700000000000013,10,5,4,3,14,5,4,3,4,0,12,7,L,0.3985714285714288,0.5940000000000003,0.0775,0.556666666666667
3,18,35,1,8,0.26000000000000006,2,4,106,1,9,25,2.989999999999986,0.6600000000000004,0.48000000000000026,0.16,7,1,1,1,14,1,1,1,2,0,19,7,L,0.21357142857142866,0.6600000000000004,0.48000000000000026,0.16
3,18,36,1,12,0.34000000000000014,2,4,42,44,114,18,1.660000000000001,3.419999999999971,0.5100000000000002,0.37000000000000016,4,4,3,1,6,5,3,1,5,0,18,7,L,0.27666666666666684,0.6840000000000004,0.17000000000000004,0.37000000000000016
3,19,37,1,3,0.3200000000000001,2,5,26,33,112,119,1.550000000000001,1.8100000000000014,1.6900000000000013,2.809999999999984,3,3,3,3,6,7,4,3,5,0,14,7,L,0.25833333333333347,0.2585714285714287,0.4225000000000002,0.9366666666666628
3,19,38,1,12,0.4000000000000002,2,4,43,37,99,101,3.079999999999987,1.380000000000001,0.3200000000000001,1.260000000000001,7,4,2,6,9,5,2,7,5,0,14,7,L,0.34222222222222237,0.2760000000000001,0.16000000000000003,0.18000000000000008
3,20,39,1,12,0.21000000000000005,2,3,50,40,106,48,3.859999999999966,2.199999999999997,1.270000000000001,0.7000000000000004,9,7,3,3,12,7,3,3,5,0,16,7,L,0.3216666666666668,0.31428571428571445,0.4233333333333336,0.23333333333333345
3,20,40,1,1,0.24000000000000007,2,3,118,79,77,117,6.149999999999919,0.12999999999999998,0.3100000000000001,0.4200000000000002,10,2,3,3,13,3,3,3,3,0,10,7,L,0.47307692307692334,0.043333333333333335,0.10333333333333332,0.14
3,21,41,1,15,0.20000000000000004,2,3,22,14,20,103,1.730000000000001,1.9800000000000015,0.12999999999999998,0.5300000000000002,7,5,1,2,8,6,1,2,6,0.5,38,7,L,0.21625000000000008,0.3300000000000001,0.12999999999999998,0.26500000000000007
3,21,42,1,12,0.22000000000000006,2,3,83,78,12,53,2.5499999999999945,0.45000000000000023,1.8400000000000014,2.0000000000000013,6,1,4,3,9,1,6,5,5,0,16,7,L,0.28333333333333344,0.45000000000000023,0.3066666666666668,0.40000000000000024
4,1,1,0,2,0.49000000000000027,2,4,22,40,37,50,4.1999999999999655,0.2800000000000001,2.1399999999999983,0.01,8,1,3,1,12,1,3,1,4,0,20,7,L,0.3500000000000002,0.2800000000000001,0.7133333333333338,0.01
4,1,2,0,6,0.35000000000000014,2,3,5,117,79,65,2.6299999999999955,1.0200000000000007,1.360000000000001,0.4000000000000002,8,1,5,2,9,1,5,2,6,0,15,7,L,0.2922222222222223,1.0200000000000007,0.27200000000000013,0.20000000000000004
4,2,3,0,5,0.34000000000000014,3,4,114,60,76,82,3.0599999999999863,0.4000000000000002,0.46000000000000024,0.3000000000000001,7,1,3,1,10,1,3,1,5,0,12,7,L,0.30600000000000016,0.4000000000000002,0.15333333333333335,0.3000000000000001
4,2,4,0,3,0.4000000000000002,2,4,33,32,20,21,3.229999999999984,1.0700000000000007,0.18000000000000002,0.5200000000000002,9,5,1,4,13,5,1,4,5,0,22,7,L,0.24846153846153854,0.21400000000000005,0.18000000000000002,0.13000000000000003
4,3,5,0,1,0.8200000000000005,2,4,14,74,72,73,3.3499999999999908,0.47000000000000025,0.5000000000000002,1.5600000000000012,5,2,3,3,8,2,3,4,3,0,16,7,L,0.41875000000000023,0.23500000000000007,0.1666666666666667,0.3900000000000002
4,3,6,0,4,0.2800000000000001,2,3,60,49,12,1,2.7999999999999905,0.4000000000000002,0.3900000000000002,0.23000000000000007,7,1,1,1,11,1,1,1,2,0,20,7,L,0.25454545454545463,0.4000000000000002,0.3900000000000002,0.23000000000000007
4,4,7,0,4,0.8200000000000005,5,6,7,107,52,50,2.8500000000000014,0.5200000000000002,0.6800000000000004,0.15,7,2,3,1,9,2,4,1,2,0,16,7,L,0.3166666666666668,0.26000000000000006,0.17000000000000007,0.15
4,4,8,0,9,0.3200000000000001,3,4,118,20,18,88,3.009999999999987,0.8600000000000005,36.85000000000124,0.25000000000000006,7,3,18,2,9,3,88,2,4,0,17,7,L,0.3344444444444446,0.2866666666666668,0.41875000000000007,0.12500000000000003
4,5,9,0,5,0.4300000000000002,2,3,48,110,19,13,3.009999999999989,0.4300000000000002,0.5500000000000003,0.36000000000000015,10,1,3,3,12,1,4,3,5,0,19,7,L,0.2508333333333334,0.4300000000000002,0.1375,0.12000000000000001
4,5,10,0,10,0.3300000000000001,3,4,87,1,72,94,1.3700000000000008,2.0300000000000007,2.1299999999999986,0.03,5,5,5,1,6,7,5,1,3,0,16,7,L,0.22833333333333344,0.29000000000000015,0.4260000000000002,0.03
4,6,11,0,8,0.23000000000000007,2,4,48,18,117,115,3.419999999999976,0.3000000000000001,0.09,0.07,9,1,1,1,15,1,1,1,2,0,15,7,L,0.2280000000000001,0.3000000000000001,0.09,0.07
4,6,12,0,9,0.2700000000000001,2,3,76,70,61,65,2.8299999999999894,0.3000000000000001,3.45999999999997,0.5800000000000003,6,1,4,4,7,1,4,4,4,0.5,27,7,L,0.4042857142857145,0.3000000000000001,0.8650000000000007,0.14500000000000005
4,7,13,1,15,0.16,1,2,113,31,15,53,2.939999999999985,0.3100000000000001,3.0199999999999796,0.7100000000000004,5,2,3,3,6,2,3,3,6,0,17,7,L,0.49000000000000027,0.15500000000000003,1.0066666666666668,0.23666666666666675
4,7,14,1,12,0.3300000000000001,3,4,12,46,68,11,1.8700000000000012,1.5200000000000011,0.2900000000000001,0.18000000000000002,5,4,1,1,7,4,1,1,5,0,21,7,L,0.2671428571428573,0.38000000000000017,0.2900000000000001,0.18000000000000002
4,8,15,1,12,0.8800000000000006,4,6,108,40,81,64,3.0699999999999976,0.5400000000000003,2.2199999999999966,0.7900000000000005,9,2,4,3,13,3,4,3,5,0,14,7,L,0.23615384615384624,0.18000000000000005,0.5550000000000003,0.2633333333333334
4,8,16,1,14,0.2700000000000001,2,3,93,5,3,112,2.0300000000000016,2.3099999999999947,0.21000000000000005,0.22000000000000006,6,6,2,1,7,7,2,1,3,0,17,7,L,0.29000000000000015,0.3300000000000001,0.10500000000000001,0.22000000000000006
4,9,17,1,2,0.37000000000000016,3,4,25,20,120,86,2.2400000000000015,3.8699999999999615,0.16,0.16,7,7,1,1,8,9,1,1,4,0,16,7,L,0.28000000000000014,0.4300000000000002,0.16,0.16
4,9,18,1,11,0.2700000000000001,2,4,9,43,77,107,2.939999999999987,0.4200000000000002,0.45000000000000023,0.4100000000000002,6,1,3,1,9,1,3,2,4,0,16,7,L,0.3266666666666668,0.4200000000000002,0.15000000000000002,0.20500000000000004
4,10,19,1,11,0.21000000000000005,2,3,96,46,67,69,3.029999999999984,0.3900000000000002,1.6100000000000012,0.04,8,1,4,1,12,1,4,1,4,0,16,7,L,0.2525000000000001,0.3900000000000002,0.4025000000000002,0.04
4,10,20,1,13,1.8500000000000014,3,4,16,114,118,24,5.40999999999997,0.09,0.10999999999999999,3.4899999999999696,8,1,1,3,10,1,1,3,2,0,16,7,L,0.5410000000000004,0.09,0.10999999999999999,1.1633333333333278
4,11,21,1,12,0.12999999999999998,2,2,3,50,96,47,26.070000000001254,0.03,0.01,0.01,20,1,1,1,62,1,1,1,5,0,18,7,L,0.42048387096774215,0.03,0.01,0.01
4,11,22,1,15,0.9600000000000006,4,6,76,25,18,97,3.409999999999992,1.7600000000000013,2.1799999999999975,1.6800000000000013,9,3,3,3,13,4,3,4,6,0,16,7,L,0.2623076923076924,0.4400000000000002,0.7266666666666671,0.4200000000000002
4,12,23,1,8,0.2700000000000001,2,3,102,22,108,52,2.1200000000000014,1.7600000000000013,0.09,0.15,5,4,1,1,7,4,1,1,2,0,14,7,L,0.302857142857143,0.4400000000000002,0.09,0.15
4,12,24,1,7,0.3900000000000002,5,6,6,1,5,74,2.509999999999999,1.9900000000000015,4.3599999999999515,0.04,10,7,5,1,11,7,8,1,6,0.5,39,7,L,0.22818181818181826,0.28428571428571436,0.5450000000000003,0.04
4,13,25,1,12,0.4100000000000002,2,4,46,40,56,42,2.5399999999999987,0.37000000000000016,0.34000000000000014,0.2800000000000001,7,1,1,1,9,1,1,1,5,0.5,34,7,L,0.2822222222222223,0.37000000000000016,0.34000000000000014,0.2800000000000001
4,13,26,1,7,0.25000000000000006,3,5,1,106,10,100,2.509999999999996,1.1500000000000008,0.48000000000000026,0.060000000000000005,7,4,3,1,9,6,3,1,6,0,16,7,L,0.278888888888889,0.19166666666666674,0.16000000000000003,0.060000000000000005
4,14,27,1,13,3.9099999999999606,5,7,111,95,61,25,6.359999999999952,0.7600000000000005,0.2900000000000001,0.13999999999999999,10,1,2,2,12,1,2,2,2,0,14,7,L,0.5299999999999992,0.7600000000000005,0.14500000000000002,0.06999999999999999
4,14,28,1,15,0.35000000000000014,2,3,53,15,41,39,2.6199999999999957,0.7000000000000004,0.7500000000000004,0.8200000000000005,4,2,2,2,9,2,2,3,6,0,20,7,L,0.29111111111111126,0.35000000000000014,0.37500000000000017,0.27333333333333343
4,15,29,1,11,0.47000000000000025,3,4,30,62,68,11,2.9499999999999913,0.3900000000000002,0.10999999999999999,0.21000000000000005,6,2,1,2,8,2,1,2,4,0,19,7,L,0.3687500000000002,0.19500000000000003,0.10999999999999999,0.10499999999999998
4,15,30,1,14,0.8300000000000005,3,7,49,87,56,88,4.079999999999975,1.6100000000000012,0.10999999999999999,0.8200000000000005,8,2,1,3,12,2,1,3,3,0,14,7,L,0.34000000000000014,0.8050000000000006,0.10999999999999999,0.2733333333333335
4,16,31,1,3,0.3900000000000002,2,4,25,110,117,36,4.599999999999955,0.10999999999999999,0.09999999999999999,0.05,9,1,1,1,13,1,1,1,5,0,14,7,L,0.35384615384615403,0.10999999999999999,0.09999999999999999,0.05
4,16,32,1,11,0.36000000000000015,2,5,6,103,98,100,2.350000000000002,0.45000000000000023,0.7400000000000004,0.22000000000000006,10,1,4,1,15,1,5,1,4,0.5,18,7,L,0.1566666666666667,0.45000000000000023,0.14800000000000002,0.22000000000000006
4,17,33,1,15,0.22000000000000006,2,3,97,30,103,50,1.9700000000000013,0.8300000000000005,0.23000000000000007,0.3900000000000002,6,1,1,1,9,1,1,1,6,0,13,7,L,0.21888888888888897,0.8300000000000005,0.23000000000000007,0.3900000000000002
4,17,34,1,12,0.07,2,2,2,91,110,88,176.41999999998458,0.01,0.02,0.02,20,1,1,1,371,1,1,1,5,0,14,7,L,0.47552560646900294,0.01,0.02,0.02
4,18,35,1,14,0.08,1,2,88,86,92,37,2.0200000000000014,0.26000000000000006,1.1900000000000008,1.5800000000000012,8,1,4,7,10,1,4,7,3,0.5,23,7,L,0.20200000000000007,0.26000000000000006,0.29750000000000015,0.2257142857142858
4,18,36,1,11,0.2800000000000001,3,3,4,2,80,25,10.449999999999827,0.5400000000000003,0.03,0.01,17,3,1,1,28,3,1,1,4,0,20,7,L,0.37321428571428583,0.18000000000000005,0.03,0.01
4,19,37,1,3,0.6300000000000003,3,4,11,114,7,50,4.879999999999955,0.3900000000000002,1.480000000000001,0.01,11,2,4,1,18,2,5,1,5,0,18,7,L,0.27111111111111125,0.19500000000000006,0.29600000000000015,0.01
4,19,38,1,11,0.3200000000000001,2,3,42,80,103,47,4.359999999999959,1.0200000000000007,0.36000000000000015,0.04,7,4,1,1,8,4,1,1,4,0,15,7,L,0.5450000000000004,0.2550000000000001,0.36000000000000015,0.04
4,20,39,1,12,0.25000000000000006,2,3,112,93,72,67,2.689999999999992,0.49000000000000027,0.24000000000000007,0.21000000000000005,4,2,1,1,5,4,2,1,5,0,13,7,L,0.5380000000000004,0.12250000000000003,0.12000000000000002,0.21000000000000005
4,20,40,1,15,0.24000000000000007,2,3,17,25,20,15,2.4399999999999973,2.349999999999994,0.6200000000000003,0.02,6,6,2,1,8,6,2,1,6,0.5,41,7,L,0.3050000000000001,0.3916666666666669,0.31000000000000016,0.02
5,1,1,0,5,0.3000000000000001,2,3,44,100,102,9,1.8900000000000012,1.6100000000000012,0.5900000000000003,0.20000000000000004,5,3,1,1,7,4,1,1,5,0,15,7,L,0.27000000000000013,0.4025000000000002,0.5900000000000003,0.20000000000000004
5,1,2,0,7,0.4300000000000002,2,3,51,23,35,20,3.109999999999987,0.22000000000000006,0.6000000000000003,0.09999999999999999,5,1,1,1,11,1,1,1,6,0,21,7,L,0.2827272727272728,0.22000000000000006,0.6000000000000003,0.09999999999999999
5,2,3,0,9,0.5000000000000002,2,4,63,108,98,71,1.7700000000000011,2.7499999999999853,0.16,0.05,4,6,1,1,8,7,1,1,4,0,12,7,L,0.22125000000000006,0.392857142857143,0.16,0.05
5,2,4,0,8,0.5800000000000003,6,7,120,4,58,12,1.4400000000000008,1.7100000000000013,0.38000000000000017,0.5000000000000002,8,3,1,2,9,5,1,2,2,0,18,7,L,0.16000000000000006,0.34200000000000014,0.38000000000000017,0.25000000000000006
5,3,5,0,4,0.4100000000000002,2,3,56,74,59,107,2.989999999999989,1.8000000000000014,0.11999999999999998,0.07,5,1,1,2,7,2,1,2,2,0,13,7,L,0.4271428571428574,0.9000000000000006,0.11999999999999998,0.035
5,3,6,0,7,0.35000000000000014,2,3,112,91,90,31,2.2300000000000018,1.5900000000000012,0.4300000000000002,0.3900000000000002,4,2,1,1,8,3,1,1,6,0,13,7,L,0.2787500000000001,0.5300000000000002,0.4300000000000002,0.3900000000000002
5,4,7,0,7,0.7100000000000004,2,3,103,108,14,42,2.0800000000000014,0.5200000000000002,0.9200000000000006,1.480000000000001,5,2,2,2,6,3,2,4,6,0,15,7,L,0.3466666666666668,0.17333333333333337,0.4600000000000002,0.37000000000000016
5,4,8,0,3,0.2900000000000001,2,3,25,90,30,34,1.3800000000000008,2.7399999999999856,1.0700000000000007,1.1700000000000008,4,3,2,4,5,4,2,4,5,0.5,33,7,L,0.27600000000000013,0.6850000000000004,0.5350000000000004,0.29250000000000015
5,5,9,0,3,0.26000000000000006,2,4,7,86,90,31,6.949999999999902,0.01,3.47999999999997,0.02,8,1,4,1,11,1,5,1,5,0,17,7,L,0.6318181818181813,0.01,0.6959999999999998,0.02
5,5,10,0,1,0.35000000000000014,2,3,80,84,40,43,2.699999999999994,0.4100000000000002,0.9000000000000006,1.0800000000000007,6,2,2,2,8,2,3,2,3,0,16,7,L,0.3375000000000002,0.20500000000000004,0.3000000000000001,0.5400000000000004
5,6,11,0,3,0.16,2,3,27,85,91,12,0.7800000000000004,3.179999999999976,1.9500000000000015,0.36000000000000015,3,4,3,2,4,4,4,2,5,0,17,7,L,0.1950000000000001,0.7949999999999995,0.48750000000000027,0.18000000000000008
5,6,12,0,7,0.35000000000000014,2,4,16,20,18,75,26.95000000000136,0.01,0.01,0.01,19,1,1,1,40,1,1,1,6,0.5,39,7,L,0.6737499999999992,0.01,0.01,0.01
5,7,13,1,2,0.21000000000000005,1,2,9,59,55,57,2.5399999999999943,0.20000000000000004,0.4000000000000002,1.0100000000000007,5,1,2,3,9,1,2,5,4,0.5,30,7,L,0.2822222222222223,0.20000000000000004,0.2,0.20200000000000007
5,7,14,1,15,0.3900000000000002,2,6,19,24,14,67,1.2300000000000006,0.9600000000000006,3.9099999999999606,0.9900000000000007,4,2,5,3,8,2,8,4,6,0.5,40,7,L,0.15375000000000005,0.4800000000000002,0.4887500000000003,0.2475000000000001
5,8,15,1,8,0.22000000000000006,1,2,1,6,61,104,2.5899999999999936,0.3000000000000001,0.4400000000000002,0.09999999999999999,6,1,2,1,7,1,3,1,2,0,18,7,L,0.37000000000000016,0.3000000000000001,0.14666666666666667,0.09999999999999999
5,8,16,1,15,0.5400000000000003,2,5,56,33,32,94,3.2599999999999865,0.36000000000000015,4.739999999999943,0.16,4,1,6,1,8,1,8,1,6,0,17,7,L,0.4075000000000002,0.36000000000000015,0.5924999999999977,0.16
5,9,17,1,3,0.3200000000000001,2,3,26,66,14,28,1.3000000000000007,2.0799999999999996,0.7800000000000005,0.05,5,3,2,1,7,4,2,1,5,0,20,7,L,0.18571428571428575,0.5200000000000002,0.3900000000000002,0.05
5,9,18,1,12,0.2900000000000001,2,3,44,57,90,99,1.4800000000000009,3.0799999999999783,0.7300000000000004,1.1600000000000008,5,7,2,2,7,7,2,2,5,0,14,7,L,0.2114285714285715,0.4400000000000002,0.3650000000000002,0.5800000000000004
5,10,19,1,13,0.2900000000000001,1,2,116,22,115,111,2.959999999999987,2.4599999999999915,0.12999999999999998,0.02,6,2,2,1,10,2,2,1,2,0.5,18,7,L,0.2960000000000001,1.2299999999999995,0.06499999999999999,0.02
5,10,20,1,7,0.2900000000000001,5,6,6,4,50,99,1.0700000000000005,0.8700000000000006,4.6399999999999455,0.02,7,2,4,1,8,3,7,1,6,0,18,7,L,0.13375000000000004,0.2900000000000001,0.6628571428571433,0.02
5,11,21,1,8,0.3900000000000002,2,5,90,99,53,19,2.0500000000000016,0.21000000000000005,0.8600000000000005,0.6900000000000004,3,1,2,2,6,1,2,3,2,0,15,7,L,0.3416666666666669,0.21000000000000005,0.4300000000000002,0.23000000000000007
5,11,22,1,7,0.4000000000000002,6,6,1,11,6,84,1.3500000000000008,0.24000000000000007,0.24000000000000007,0.9500000000000006,8,1,2,1,9,1,2,1,6,0.5,39,7,L,0.15000000000000005,0.24000000000000007,0.12000000000000002,0.9500000000000006
5,12,23,1,3,1.9700000000000015,3,4,53,107,31,56,4.07,0.3900000000000002,0.09999999999999999,0.09,7,3,1,1,8,3,1,1,5,0,15,7,L,0.5087500000000003,0.13,0.09999999999999999,0.09
5,12,24,1,12,0.6700000000000004,10,11,80,114,40,37,3.8399999999999768,1.0000000000000007,0.7400000000000004,1.0200000000000007,13,1,3,2,18,1,4,2,5,0,15,7,L,0.21333333333333343,1.0000000000000007,0.18500000000000005,0.5100000000000003
5,13,25,1,3,0.23000000000000007,2,2,2,28,12,96,32.850000000002076,0.19000000000000003,0.01,0.03,20,1,1,1,55,1,1,1,5,0,20,7,L,0.5972727272727273,0.19000000000000003,0.01,0.03
5,13,26,1,2,0.3200000000000001,2,4,52,18,56,82,1.4700000000000009,1.0700000000000007,0.35000000000000014,0.2700000000000001,4,2,1,1,7,3,1,1,4,0,17,7,L,0.21000000000000008,0.3566666666666668,0.35000000000000014,0.2700000000000001
5,14,27,1,3,1.2300000000000009,4,6,7,82,29,80,2.560000000000002,0.6600000000000004,0.11999999999999998,0.4000000000000002,5,1,1,1,7,1,1,1,5,0,17,7,L,0.36571428571428594,0.6600000000000004,0.11999999999999998,0.4000000000000002
5,14,28,1,12,0.2800000000000001,2,3,45,119,109,68,1.2800000000000007,3.2599999999999745,0.09999999999999999,1.340000000000001,4,4,1,4,5,6,1,4,5,0,13,7,L,0.2560000000000001,0.5433333333333337,0.09999999999999999,0.33500000000000013
5,15,29,1,12,0.6800000000000004,15,15,44,69,82,68,1.2500000000000007,3.45999999999997,0.11999999999999998,0.13999999999999999,16,5,1,1,16,8,1,1,5,0,16,7,L,0.07812500000000001,0.4325000000000002,0.11999999999999998,0.13999999999999999
5,15,30,1,15,0.3900000000000002,2,3,19,16,22,27,1.2300000000000006,11.529999999999799,0.01,0.01,4,13,1,1,5,22,1,1,6,0.5,41,7,L,0.24600000000000008,0.524090909090909,0.01,0.01
5,16,31,1,15,0.4100000000000002,4,6,16,18,17,101,1.1200000000000006,4.609999999999946,0.02,0.02,5,4,1,1,7,5,1,1,6,0.5,38,7,L,0.16000000000000006,0.9220000000000004,0.02,0.02
5,16,32,1,2,0.9200000000000006,16,17,85,55,27,8,2.660000000000002,0.16,0.5900000000000003,2.719999999999986,19,1,2,3,20,1,2,6,4,0,18,7,L,0.13300000000000003,0.16,0.2950000000000001,0.4533333333333336
5,17,33,1,13,0.5700000000000003,2,4,54,33,30,117,2.0400000000000014,1.1400000000000008,0.2700000000000001,0.12999999999999998,4,3,1,1,7,3,1,1,2,0,16,7,L,0.2914285714285716,0.38000000000000017,0.2700000000000001,0.12999999999999998
5,17,34,1,1,0.26000000000000006,2,3,80,76,103,99,1.1400000000000006,1.0100000000000007,0.18000000000000002,0.13999999999999999,3,2,1,1,5,3,1,1,3,0,10,7,L,0.22800000000000006,0.3366666666666668,0.18000000000000002,0.13999999999999999
5,18,35,1,3,3.699999999999965,4,8,104,89,29,2,5.779999999999965,0.21000000000000005,1.280000000000001,0.3900000000000002,8,1,2,1,15,1,2,1,5,0,16,7,L,0.3853333333333335,0.21000000000000005,0.6400000000000005,0.3900000000000002
5,18,36,1,15,0.21000000000000005,2,3,13,18,44,39,0.8400000000000004,0.7800000000000005,0.37000000000000016,0.3900000000000002,3,2,1,2,4,2,1,2,6,0,22,7,L,0.21000000000000008,0.3900000000000002,0.37000000000000016,0.195
5,19,37,1,12,10.339999999999824,10,22,2,89,88,37,10.859999999999824,0.8800000000000006,0.26000000000000006,0.6500000000000004,11,3,1,2,23,3,1,2,5,0,17,7,L,0.47217391304347767,0.29333333333333345,0.26000000000000006,0.3250000000000002
5,19,38,1,15,0.5200000000000002,8,10,16,66,30,101,1.1400000000000006,7.429999999999886,0.060000000000000005,0.07,9,6,1,1,11,12,1,1,6,0,17,7,L,0.10363636363636367,0.619166666666667,0.060000000000000005,0.07
5,20,39,1,11,2.149999999999998,4,7,2,71,76,67,3.479999999999999,0.7400000000000004,0.5700000000000003,0.25000000000000006,7,2,2,1,10,3,2,1,4,0,17,7,L,0.3480000000000002,0.24666666666666676,0.2850000000000001,0.25000000000000006
5,20,40,1,3,0.24000000000000007,2,3,35,32,51,89,4.139999999999961,0.8800000000000006,2.4699999999999913,0.01,7,2,5,1,8,2,5,1,5,0,17,7,L,0.5175000000000003,0.4400000000000003,0.49400000000000027,0.01
5,21,41,1,13,0.45000000000000023,2,3,7,112,119,6,2.7299999999999955,6.039999999999916,4.119999999999957,0.02,5,4,7,1,8,7,7,1,2,0,16,7,L,0.34125000000000016,0.8628571428571379,0.588571428571429,0.02
5,21,42,1,2,0.4100000000000002,2,5,58,20,91,102,2.4899999999999998,0.7200000000000004,0.9700000000000006,0.16,5,1,3,2,11,1,3,2,4,0,15,7,L,0.22636363636363643,0.7200000000000004,0.3233333333333335,0.08
6,1,1,0,9,0.4000000000000002,2,3,13,43,89,66,3.979999999999968,2.020000000000001,0.5300000000000002,0.07,5,4,2,1,12,10,3,1,4,0,18,7,L,0.33166666666666683,0.20200000000000007,0.1766666666666667,0.07
6,1,2,0,6,0.5000000000000002,2,3,60,11,49,55,3.239999999999986,0.6400000000000003,0.6800000000000004,0.47000000000000025,4,2,1,1,6,2,1,1,6,0.5,30,7,L,0.5400000000000004,0.3200000000000001,0.6800000000000004,0.47000000000000025
6,2,3,0,1,0.35000000000000014,2,3,82,80,45,41,1.720000000000001,4.41999999999995,1.0600000000000007,0.8700000000000006,4,8,1,1,5,11,1,1,3,0,16,7,L,0.3440000000000002,0.401818181818182,1.0600000000000007,0.8700000000000006
6,2,4,0,4,0.4100000000000002,2,3,4,105,106,10,5.449999999999937,0.12999999999999998,0.3100000000000001,1.2000000000000008,7,1,2,2,14,1,2,4,2,0,16,7,L,0.38928571428571446,0.12999999999999998,0.15500000000000003,0.3000000000000001
6,3,5,0,9,0.6100000000000003,2,3,62,99,71,67,3.0899999999999914,2.949999999999981,1.5200000000000011,1.1900000000000008,4,3,3,3,9,3,3,3,4,0.5,26,7,L,0.3433333333333335,0.9833333333333341,0.5066666666666669,0.3966666666666669
6,3,6,0,8,0.3300000000000001,2,3,115,76,40,120,1.3500000000000008,5.549999999999926,0.6100000000000003,0.03,3,4,1,1,4,6,1,1,2,0,12,7,L,0.3375000000000002,0.9249999999999934,0.6100000000000003,0.03
6,4,7,0,2,0.5500000000000003,2,3,118,38,111,4,2.7399999999999975,1.5400000000000011,0.3100000000000001,0.5500000000000003,5,2,1,2,9,8,1,2,4,0,15,7,L,0.3044444444444446,0.19250000000000006,0.3100000000000001,0.2750000000000001
6,4,8,0,4,0.36000000000000015,2,3,107,102,22,63,9.849999999999842,0.01,0.04,1.2400000000000009,8,1,1,2,11,1,1,2,2,0,14,7,L,0.8954545454545446,0.01,0.04,0.6200000000000004
6,5,9,0,2,0.38000000000000017,2,3,52,24,53,119,2.699999999999995,2.3199999999999945,0.8100000000000005,1.8900000000000015,5,3,2,3,9,6,2,4,4,0,16,7,L,0.30000000000000016,0.3866666666666669,0.40500000000000014,0.47250000000000025
6,5,10,0,6,0.8500000000000005,2,4,94,104,96,11,2.9100000000000006,1.2200000000000009,0.4300000000000002,0.6400000000000003,5,2,1,2,8,2,1,3,6,0,14,7,L,0.3637500000000002,0.6100000000000003,0.4300000000000002,0.2133333333333334
6,6,11,0,10,0.4300000000000002,2,3,66,97,87,108,4.059999999999967,2.4599999999999915,1.1800000000000008,0.04,6,4,3,1,11,4,4,1,3,0,11,7,L,0.36909090909090925,0.6150000000000004,0.29500000000000015,0.04
6,6,12,0,8,0.4300000000000002,2,4,49,50,15,120,3.399999999999981,0.5300000000000002,1.410000000000001,0.7200000000000004,5,1,3,2,9,1,4,2,2,0,16,7,L,0.377777777777778,0.5300000000000002,0.35250000000000015,0.36000000000000015
6,7,13,1,8,0.21000000000000005,1,2,100,105,71,34,2.4899999999999953,0.3000000000000001,2.5899999999999888,1.270000000000001,6,1,4,2,8,1,5,2,2,0,13,7,L,0.31125000000000014,0.3000000000000001,0.5180000000000003,0.6350000000000003
6,7,14,1,15,0.4300000000000002,2,3,116,19,85,14,3.3599999999999817,0.3200000000000001,0.8600000000000005,0.21000000000000005,5,1,1,1,6,1,1,1,6,0,17,7,L,0.5600000000000004,0.3200000000000001,0.8600000000000005,0.21000000000000005
6,8,15,1,12,0.49000000000000027,2,3,45,78,120,47,1.9300000000000013,2.619999999999988,1.2300000000000009,1.1100000000000008,4,4,2,3,6,4,2,3,5,0,15,7,L,0.3216666666666668,0.6550000000000004,0.6150000000000003,0.3700000000000002
6,8,16,1,3,0.36000000000000015,2,3,25,99,69,64,1.3800000000000008,1.2500000000000009,1.8200000000000014,0.5200000000000002,4,2,3,2,5,2,3,3,5,0,15,7,L,0.27600000000000013,0.6250000000000003,0.606666666666667,0.17333333333333342
6,9,17,1,14,0.5300000000000002,2,3,87,93,105,89,1.8300000000000012,0.8700000000000006,1.8700000000000014,0.2800000000000001,3,1,3,1,4,2,4,1,3,0.5,20,7,L,0.45750000000000024,0.4350000000000002,0.46750000000000025,0.2800000000000001
6,9,18,1,3,0.3300000000000001,2,3,32,14,20,114,1.4600000000000009,2.8799999999999826,1.0100000000000007,0.15,4,3,2,1,6,4,3,1,5,0,19,7,L,0.24333333333333343,0.7200000000000004,0.33666666666666684,0.15
6,10,19,1,1,0.45000000000000023,2,4,76,80,83,84,1.750000000000001,0.5300000000000002,0.3900000000000002,3.329999999999973,5,1,1,5,9,1,1,5,3,1,36,7,L,0.1944444444444445,0.5300000000000002,0.3900000000000002,0.6659999999999998
6,10,20,1,14,0.6600000000000004,2,3,91,21,118,19,2.070000000000001,2.569999999999989,1.5200000000000011,0.5100000000000002,4,3,1,2,5,5,1,2,3,0,17,7,L,0.4140000000000002,0.5140000000000002,1.5200000000000011,0.25500000000000006
6,11,21,1,12,0.5900000000000003,2,4,20,46,85,65,2.0600000000000014,0.6100000000000003,2.619999999999988,0.2700000000000001,3,1,3,1,5,1,3,1,5,0,18,7,L,0.41200000000000025,0.6100000000000003,0.87333333333333385,0.2700000000000001
6,11,22,1,7,0.7500000000000004,9,11,4,1,27,9,1.3200000000000007,2.1199999999999988,1.440000000000001,0.26000000000000006,10,4,2,3,12,4,2,3,6,0.5,41,7,L,0.11000000000000003,0.5300000000000002,0.7200000000000004,0.08666666666666667
6,12,23,1,1,0.3000000000000001,2,3,81,113,82,1,8.859999999999863,2.1399999999999983,3.6799999999999655,4.88999999999994,11,2,4,6,14,2,4,7,3,0,14,7,L,0.6328571428571427,1.0699999999999992,0.9200000000000006,0.6985714285714284
6,12,24,1,11,0.3100000000000001,2,4,63,22,72,105,1.4000000000000008,6.7599999999999,0.01,0.04,4,6,1,1,8,10,1,1,4,0,16,7,L,0.17500000000000007,0.6759999999999997,0.01,0.04
6,13,25,1,1,0.3100000000000001,2,4,78,113,83,15,1.8900000000000012,3.799999999999963,0.9300000000000006,0.09,5,2,2,2,8,2,2,2,3,0,14,7,L,0.2362500000000001,1.8999999999999913,0.4650000000000003,0.045
6,13,26,1,11,0.26000000000000006,1,2,72,91,64,97,1.8600000000000012,1.6800000000000013,0.38000000000000017,0.19000000000000003,4,3,2,1,9,4,2,1,4,0,13,7,L,0.20666666666666672,0.42000000000000026,0.19000000000000003,0.19000000000000003
6,14,27,1,8,0.6200000000000003,4,5,101,21,16,36,11.769999999999808,0.01,9.419999999999844,0.01,12,1,14,1,20,1,24,1,2,0,19,7,L,0.5884999999999978,0.01,0.3925000000000002,0.01
6,14,28,1,12,0.36000000000000015,2,3,115,37,119,118,2.5099999999999985,0.4100000000000002,0.2900000000000001,0.16,6,1,2,1,13,1,2,1,5,0.5,17,7,L,0.19307692307692315,0.4100000000000002,0.14500000000000002,0.16
6,15,29,1,13,0.35000000000000014,2,3,42,12,2,120,3.5699999999999754,1.7400000000000013,0.3200000000000001,0.11999999999999998,5,5,2,1,7,7,2,1,2,0,19,7,L,0.5100000000000003,0.24857142857142867,0.16,0.11999999999999998
6,15,30,1,14,0.6500000000000004,3,4,102,89,105,55,4.849999999999955,0.5700000000000003,2.4599999999999915,0.7000000000000004,9,3,4,1,14,4,5,1,3,0,11,7,L,0.3464285714285716,0.14250000000000002,0.49200000000000027,0.7000000000000004
6,16,31,1,1,0.5600000000000003,3,5,29,107,27,35,2.580000000000001,0.8500000000000005,0.5500000000000003,0.9100000000000006,6,1,2,2,8,1,2,2,3,0.5,32,7,L,0.3225000000000002,0.8500000000000005,0.27500000000000013,0.4550000000000002
6,16,32,1,14,0.34000000000000014,2,3,86,42,24,85,1.4300000000000008,2.569999999999989,0.8200000000000005,0.6800000000000004,3,3,2,3,4,4,3,3,3,0,17,7,L,0.3575000000000002,0.6425000000000004,0.27333333333333343,0.22666666666666674
6,17,33,1,15,0.5600000000000003,7,7,15,101,30,13,3.899999999999973,0.6600000000000004,4.089999999999957,1.1100000000000008,10,2,3,2,13,2,3,2,6,0,19,7,L,0.30000000000000016,0.3300000000000001,1.3633333333333266,0.5550000000000004
6,17,34,1,14,0.47000000000000025,2,3,89,86,40,1,2.5599999999999996,5.559999999999926,0.060000000000000005,0.01,5,5,1,1,10,7,1,1,3,0,17,7,L,0.2560000000000001,0.7942857142857138,0.060000000000000005,0.01
6,18,35,1,2,0.19000000000000003,2,2,14,116,120,60,8.079999999999876,0.01,0.04,0.05,9,1,1,1,13,1,1,1,4,0,14,7,L,0.6215384615384619,0.01,0.04,0.05
6,18,36,1,8,0.37000000000000016,2,6,98,104,8,99,2.3200000000000016,0.4400000000000002,0.15,1.7800000000000014,5,2,1,4,10,3,1,4,2,0.5,18,7,L,0.2320000000000001,0.1466666666666667,0.15,0.44500000000000023
6,19,37,1,7,0.15,2,3,99,50,12,100,3.2999999999999767,0.7800000000000005,0.09999999999999999,0.7200000000000004,7,1,1,2,13,1,1,2,6,0,14,7,L,0.25384615384615394,0.7800000000000005,0.09999999999999999,0.36000000000000015
6,19,38,1,15,0.6900000000000004,3,4,15,13,68,41,2.869999999999998,24.50000000000103,0.060000000000000005,0.01,7,17,1,1,10,34,1,1,6,0,21,7,L,0.28700000000000014,0.7205882352941174,0.060000000000000005,0.01
6,20,39,1,1,0.7700000000000005,2,6,6,34,4,81,2.0100000000000016,1.6500000000000012,0.49000000000000027,0.4300000000000002,5,2,2,2,9,2,2,2,3,0,20,7,L,0.2233333333333334,0.8250000000000005,0.24500000000000008,0.21500000000000002
6,20,40,1,15,0.17,1,2,101,99,54,16,3.5099999999999727,0.3000000000000001,0.5700000000000003,0.11999999999999998,6,1,1,1,12,1,1,1,6,0,14,7,L,0.29250000000000015,0.3000000000000001,0.5700000000000003,0.11999999999999998
6,21,41,1,12,0.5000000000000002,3,5,15,46,72,19,2.6999999999999975,1.1900000000000008,0.5600000000000003,1.1300000000000008,7,3,1,3,11,5,1,3,5,0,21,7,L,0.24545454545454556,0.23800000000000007,0.5600000000000003,0.37666666666666687
6,21,42,1,13,3.049999999999979,4,5,120,4,83,12,3.7899999999999796,0.5800000000000003,0.9800000000000006,0.21000000000000005,6,2,1,2,7,2,1,2,2,0,17,7,L,0.5414285714285718,0.29000000000000015,0.9800000000000006,0.10500000000000001
7,1,1,0,4,0.5000000000000002,2,4,90,99,100,89,3.0799999999999894,0.34000000000000014,0.22000000000000006,1.0200000000000007,4,2,1,2,7,2,1,2,2,0,10,7,L,0.4400000000000002,0.17,0.22000000000000006,0.5100000000000002
7,1,2,0,1,0.4100000000000002,2,5,81,5,84,31,3.88999999999997,1.270000000000001,0.08,0.6000000000000003,6,2,1,1,9,2,1,1,3,0,17,7,L,0.4322222222222225,0.6350000000000003,0.08,0.6000000000000003
7,2,3,0,1,0.7000000000000004,2,4,78,73,2,31,3.26999999999999,0.3000000000000001,1.0600000000000007,0.34000000000000014,8,1,3,1,11,1,4,1,3,0,17,7,L,0.2972727272727274,0.3000000000000001,0.26500000000000007,0.34000000000000014
7,2,4,0,5,0.36000000000000015,2,3,46,108,91,85,2.9799999999999884,2.479999999999991,0.21000000000000005,0.9900000000000007,5,3,1,3,6,3,1,4,5,0,13,7,L,0.496666666666667,0.8266666666666672,0.21000000000000005,0.2475000000000001
7,3,5,0,5,0.8400000000000005,2,4,87,90,43,93,5.579999999999944,0.7300000000000004,0.9700000000000006,0.19000000000000003,10,4,2,1,13,6,2,1,5,0.5,23,7,L,0.42923076923076947,0.12166666666666667,0.4850000000000003,0.19000000000000003
7,3,6,0,1,0.9300000000000006,12,12,79,27,99,98,1.9000000000000012,1.260000000000001,0.45000000000000023,0.9100000000000006,13,2,1,2,13,2,1,3,3,0,12,7,L,0.1461538461538462,0.6300000000000003,0.45000000000000023,0.30333333333333345
7,4,7,0,1,0.5000000000000002,2,3,84,83,74,12,1.4600000000000009,2.07,0.6000000000000003,1.0300000000000007,5,2,2,2,7,2,2,3,3,0.5,24,7,L,0.20857142857142863,1.0350000000000008,0.3000000000000001,0.3433333333333335
7,4,8,0,3,0.26000000000000006,5,5,30,95,16,26,1.0000000000000004,9.009999999999852,0.01,0.7000000000000004,6,8,1,2,6,9,1,2,5,0,19,7,L,0.16666666666666674,1.0011111111111113,0.01,0.3500000000000002
7,5,9,0,1,0.46000000000000024,2,4,99,101,12,77,3.109999999999988,0.45000000000000023,1.5600000000000012,0.07,5,2,3,1,10,2,4,1,3,0,13,7,L,0.31100000000000017,0.2250000000000001,0.3900000000000002,0.07
7,5,10,0,8,0.3200000000000001,2,3,119,30,33,32,1.570000000000001,2.209999999999997,0.12999999999999998,0.09999999999999999,4,3,1,1,6,3,1,1,2,0.5,32,7,L,0.26166666666666677,0.7366666666666671,0.12999999999999998,0.09999999999999999
7,6,11,0,4,0.3300000000000001,2,3,98,100,19,105,3.2599999999999816,0.5800000000000003,0.35000000000000014,2.3099999999999947,7,2,1,4,8,4,1,4,2,0.5,18,7,L,0.4075000000000002,0.14500000000000005,0.35000000000000014,0.5775000000000003
7,6,12,0,3,0.34000000000000014,2,3,26,1,109,111,2.789999999999992,9.839999999999835,0.2900000000000001,0.05,6,9,2,1,8,15,2,1,5,0,15,7,L,0.34875000000000017,0.656,0.14500000000000002,0.05
7,7,13,1,12,0.6400000000000003,2,6,40,41,111,95,1.8300000000000012,1.0100000000000007,1.480000000000001,3.319999999999973,4,2,2,2,8,2,2,2,5,0,15,7,L,0.2287500000000001,0.5050000000000002,0.7400000000000004,1.6599999999999877
7,7,14,1,1,1.470000000000001,4,5,73,36,74,82,3.0100000000000025,0.24000000000000007,1.0200000000000007,0.8000000000000005,7,1,3,3,9,1,3,3,3,0.5,23,7,L,0.33444444444444466,0.24000000000000007,0.34000000000000014,0.2666666666666668
7,8,15,1,12,0.5000000000000002,2,3,7,39,3,88,2.0600000000000014,0.7200000000000004,1.0400000000000007,3.379999999999972,4,2,3,3,5,2,4,3,5,0,20,7,L,0.4120000000000002,0.36000000000000015,0.2600000000000001,1.126666666666658
7,8,16,1,13,0.9800000000000006,12,13,116,64,61,24,2.3600000000000017,5.9999999999999165,0.04,0.07,14,8,1,1,16,10,1,1,2,0,16,7,L,0.14750000000000005,0.6000000000000001,0.04,0.07
7,9,17,1,1,3.3899999999999717,8,10,8,7,116,68,13.379999999999804,0.8100000000000005,0.02,0.03,18,2,1,1,24,2,1,1,3,0,18,7,L,0.5574999999999993,0.40500000000000025,0.02,0.03
7,9,18,1,2,0.6600000000000004,2,5,13,101,91,42,2.4300000000000015,1.0400000000000007,0.23000000000000007,0.19000000000000003,3,1,1,1,6,1,1,1,4,0,16,7,L,0.40500000000000025,1.0400000000000007,0.23000000000000007,0.19000000000000003
7,10,19,1,11,0.5500000000000003,2,3,64,2,63,68,1.4700000000000009,0.7000000000000004,0.7300000000000004,0.22000000000000006,4,2,2,1,5,2,3,1,4,0.5,30,7,L,0.2940000000000001,0.35000000000000014,0.2433333333333334,0.22000000000000006
7,10,20,1,13,0.7200000000000004,12,12,113,48,75,118,9.219999999999864,0.6400000000000003,2.9699999999999807,0.7000000000000004,20,2,5,3,26,2,6,3,2,0,12,7,L,0.35461538461538483,0.3200000000000002,0.4950000000000003,0.23333333333333345
7,11,21,1,13,1.350000000000001,8,11,109,93,61,118,2.540000000000002,1.0500000000000007,0.4100000000000002,0.25000000000000006,10,2,1,2,14,2,1,2,2,0,11,7,L,0.1814285714285715,0.5250000000000004,0.4100000000000002,0.125
7,11,22,1,2,0.5200000000000002,2,3,99,103,107,82,1.8400000000000012,0.4400000000000002,0.3300000000000001,0.49000000000000027,4,1,1,2,5,1,1,2,4,0.5,15,7,L,0.36800000000000016,0.4400000000000002,0.3300000000000001,0.24500000000000005
7,12,23,1,7,18.30000000000006,10,31,84,51,11,5,19.750000000000064,0.3300000000000001,0.01,0.49000000000000027,13,1,1,1,34,1,1,1,6,0,19,7,L,0.5808823529411764,0.3300000000000001,0.01,0.49000000000000027
7,12,24,1,14,0.8000000000000005,10,11,71,46,41,98,2.8500000000000005,0.49000000000000027,2.439999999999992,1.8300000000000014,12,1,3,2,15,1,3,2,3,0,16,7,L,0.19000000000000009,0.49000000000000027,0.8133333333333339,0.9150000000000007
7,13,25,1,8,0.4300000000000002,2,3,104,107,3,38,18.450000000000017,2.4199999999999924,42.15000000000018,0.01,14,5,18,1,34,5,68,1,2,0,15,7,L,0.5426470588235297,0.48400000000000026,0.6198529411764704,0.01
7,13,26,1,13,0.4400000000000002,2,3,115,34,33,26,2.53,2.159999999999998,0.3300000000000001,2.1199999999999988,4,2,1,3,6,3,1,3,2,0.5,32,7,L,0.4216666666666669,0.7200000000000004,0.3300000000000001,0.7066666666666671
7,14,27,1,8,0.45000000000000023,5,6,97,93,85,59,2.3800000000000017,2.569999999999989,0.2900000000000001,6.7699999999999,8,4,1,7,10,5,1,9,2,0,12,7,L,0.2380000000000001,0.5140000000000002,0.2900000000000001,0.7522222222222209
7,14,28,1,11,0.3000000000000001,3,4,62,113,81,66,1.2000000000000006,2.0799999999999996,0.26000000000000006,0.2700000000000001,5,3,1,2,8,5,1,2,4,0,13,7,L,0.15000000000000002,0.4160000000000002,0.26000000000000006,0.13499999999999998
7,15,29,1,12,0.5900000000000003,3,6,41,98,44,62,2.290000000000002,0.4300000000000002,0.26000000000000006,0.6700000000000004,5,1,1,2,12,1,1,2,5,0,16,7,L,0.19083333333333338,0.4300000000000002,0.26000000000000006,0.33500000000000013
7,15,30,1,14,0.37000000000000016,3,4,54,113,85,96,1.8200000000000012,0.4200000000000002,4.319999999999952,0.01,4,1,4,1,5,1,4,1,3,0,12,7,L,0.3640000000000002,0.4200000000000002,1.0800000000000007,0.01
7,16,31,1,15,0.5400000000000003,2,4,98,95,85,102,2.669999999999999,0.45000000000000023,0.24000000000000007,1.480000000000001,5,2,1,3,8,2,1,3,6,0,10,7,L,0.33375000000000016,0.22500000000000006,0.24000000000000007,0.49333333333333357
7,16,32,1,13,0.2800000000000001,1,2,44,110,37,45,2.2500000000000018,0.4200000000000002,0.2900000000000001,2.819999999999984,4,1,2,4,7,1,2,5,2,0.5,32,7,L,0.32142857142857156,0.4200000000000002,0.14500000000000005,0.5640000000000004
7,17,33,1,14,0.4200000000000002,3,4,51,94,87,85,4.5399999999999565,0.11999999999999998,0.05,0.060000000000000005,6,2,1,1,9,2,1,1,3,0.5,22,7,L,0.5044444444444447,0.060000000000000005,0.05,0.060000000000000005
7,17,34,1,3,0.48000000000000026,2,3,31,117,72,7,4.569999999999958,0.5200000000000002,0.10999999999999999,0.13999999999999999,6,1,1,1,12,1,1,1,5,0,17,7,L,0.3808333333333335,0.5200000000000002,0.10999999999999999,0.13999999999999999
7,18,35,1,15,0.4000000000000002,2,4,19,93,106,95,1.750000000000001,0.2800000000000001,1.460000000000001,0.37000000000000016,4,1,2,2,8,1,2,2,6,0,14,7,L,0.21875000000000008,0.2800000000000001,0.7300000000000004,0.18500000000000005
7,18,36,1,13,2.489999999999991,10,17,26,4,29,109,3.629999999999992,11.779999999999793,4.87999999999994,0.01,12,8,9,1,20,9,10,1,2,0,18,7,L,0.18150000000000005,1.308888888888881,0.48800000000000027,0.01
7,19,37,1,13,0.6100000000000003,2,3,119,93,23,51,2.6999999999999997,1.5100000000000011,0.5200000000000002,2.5899999999999888,5,4,2,1,9,4,3,1,2,0,15,7,L,0.3000000000000001,0.37750000000000017,0.17333333333333337,2.5899999999999888
7,19,38,1,12,0.34000000000000014,2,3,46,80,83,73,3.5099999999999767,0.23000000000000007,1.500000000000001,0.6300000000000003,6,1,4,2,11,1,4,2,5,0.5,23,7,L,0.31909090909090926,0.23000000000000007,0.3750000000000002,0.31500000000000017
7,20,39,1,13,0.4300000000000002,2,3,115,15,17,83,3.5599999999999774,0.7100000000000004,3.4399999999999706,0.01,6,1,5,1,8,1,8,1,2,0,17,7,L,0.44500000000000023,0.7100000000000004,0.4300000000000002,0.01
7,20,40,1,14,0.2700000000000001,2,2,1,9,11,107,4.389999999999957,0.10999999999999999,0.10999999999999999,0.13999999999999999,8,1,1,1,9,1,1,1,3,0.5,38,7,L,0.4877777777777779,0.10999999999999999,0.10999999999999999,0.13999999999999999
7,21,41,1,8,1.9400000000000015,7,8,98,104,6,89,3.3900000000000023,1.360000000000001,0.18000000000000002,0.15,9,3,1,1,10,3,1,1,2,0,13,7,L,0.3390000000000002,0.45333333333333364,0.18000000000000002,0.15
7,21,42,1,13,0.3300000000000001,2,4,115,76,65,18,4.929999999999946,2.8399999999999834,0.25000000000000006,0.01,8,3,2,1,11,3,2,1,2,0,15,7,L,0.4481818181818184,0.9466666666666673,0.12500000000000003,0.01
8,1,1,0,10,0.5100000000000002,2,12,4,25,52,94,25.4500000000011,0.01,0.02,0.01,11,1,2,1,496,1,2,1,3,0,18,7,L,0.051310483870967746,0.01,0.01,0.01
8,1,2,0,9,0.6900000000000004,2,16,69,65,16,63,10.239999999999842,2.2199999999999966,1.7900000000000014,0.19000000000000003,5,2,2,2,186,47,27,4,4,0.5,30,7,L,0.055053763440860215,0.04723404255319149,0.0662962962962963,0.0475
8,2,3,0,8,0.8100000000000005,2,14,115,116,4,49,11.639999999999814,0.16,1.320000000000001,2.0500000000000003,4,2,2,2,225,3,25,41,2,0,14,7,L,0.05173333333333333,0.05333333333333333,0.0528,0.05
8,2,4,0,1,1.1600000000000008,2,23,79,81,21,63,10.629999999999843,0.8200000000000005,5.399999999999929,1.1000000000000008,4,2,3,4,203,15,132,21,3,0,16,7,L,0.05236453201970443,0.05466666666666666,0.04090909090909091,0.05238095238095238
8,3,5,0,10,2.299999999999995,2,46,86,93,95,120,10.969999999999855,2.8399999999999834,1.1500000000000008,0.6300000000000003,4,2,3,2,202,66,27,15,3,0.5,20,7,L,0.05430693069306931,0.04303030303030303,0.04259259259259259,0.042
8,3,6,0,9,1.490000000000001,2,23,64,2,1,12,11.759999999999827,0.26000000000000006,1.0600000000000007,0.3200000000000001,4,2,4,2,237,3,25,7,4,0.5,40,7,L,0.04962025316455696,0.08666666666666667,0.0424,0.045714285714285714
8,4,7,0,9,1.0900000000000007,2,21,69,61,64,91,12.759999999999796,0.45000000000000023,1.1900000000000008,2.5499999999999896,4,4,3,5,270,9,27,50,4,0.5,27,7,L,0.04725925925925926,0.05,0.04407407407407407,0.051000000000000004
8,4,8,0,3,1.9200000000000015,2,49,36,32,10,4,10.959999999999853,1.300000000000001,2.2699999999999956,1.2300000000000009,4,2,3,2,226,33,47,26,5,0,22,7,L,0.048495575221238936,0.03939393939393939,0.048297872340425534,0.04730769230769231
8,5,9,0,10,1.1100000000000008,2,25,89,30,72,61,12.6399999999998,2.8899999999999824,1.430000000000001,0.9200000000000006,9,2,7,5,261,60,29,25,3,0,16,7,L,0.04842911877394636,0.04816666666666667,0.04931034482758621,0.0368
8,5,10,0,1,2.209999999999997,2,49,83,115,3,75,11.549999999999843,4.189999999999955,0.3200000000000001,0.13999999999999999,4,2,3,2,217,78,7,3,3,0,14,7,L,0.0532258064516129,0.053717948717948716,0.045714285714285714,0.04666666666666667
8,6,11,0,7,0.6300000000000003,2,18,18,113,112,73,9.28999999999986,1.8500000000000014,1.6000000000000012,0.8300000000000005,4,2,2,3,175,32,38,19,6,0,13,7,L,0.053085714285714285,0.057812499999999996,0.042105263157894736,0.04368421052631579
8,6,12,0,9,0.9800000000000006,2,21,61,28,62,29,12.159999999999807,0.48000000000000026,0.6500000000000004,0.5100000000000002,8,2,2,3,261,8,15,13,4,0,18,7,L,0.04659003831417625,0.06,0.043333333333333335,0.03923076923076923
8,7,13,1,12,0.6100000000000003,2,12,42,101,88,90,11.199999999999818,3.1099999999999777,2.109999999999999,0.20000000000000004,5,2,2,2,224,66,42,3,5,0,13,7,L,0.05,0.04712121212121212,0.05023809523809524,0.06666666666666667
8,7,14,1,11,1.1100000000000008,2,25,62,31,66,61,11.869999999999816,0.6500000000000004,0.8600000000000005,1.1700000000000008,4,2,2,2,258,14,17,28,4,0.5,29,7,L,0.046007751937984495,0.04642857142857143,0.05058823529411765,0.04178571428571429
8,8,15,1,14,3.239999999999975,2,65,90,35,93,64,13.759999999999796,2.149999999999998,0.5500000000000003,0.48000000000000026,4,2,2,3,281,38,11,11,3,0,15,7,L,0.048967971530249114,0.056578947368421055,0.05,0.04363636363636363
8,8,16,1,13,1.7400000000000013,2,32,115,84,48,76,12.85999999999981,2.299999999999995,0.8600000000000005,0.24000000000000007,4,3,3,2,250,46,26,6,2,0,13,7,L,0.05144,0.049999999999999996,0.03307692307692308,0.04
8,9,17,1,7,1.400000000000001,2,29,6,33,2,3,9.329999999999876,3.429999999999971,0.19000000000000003,0.23000000000000007,4,2,2,2,191,76,4,4,6,0.5,41,7,L,0.04884816753926702,0.04513157894736842,0.0475,0.057499999999999996
8,9,18,1,2,0.8400000000000005,2,21,59,73,51,110,11.619999999999814,1.300000000000001,0.26000000000000006,0.19000000000000003,4,2,2,2,243,38,7,2,4,0,13,7,L,0.047818930041152265,0.034210526315789476,0.037142857142857144,0.095
8,10,19,1,13,0.25000000000000006,2,8,14,95,41,44,29.960000000001845,0.02,0.01,0.01,20,2,1,1,599,2,1,1,2,0,19,7,L,0.05001669449081803,0.01,0.01,0.01
8,10,20,1,11,3.2999999999999736,3,81,63,11,104,75,11.63999999999984,2.489999999999991,1.8100000000000014,0.5100000000000002,5,3,2,2,255,53,46,9,4,0,15,7,L,0.04564705882352941,0.0469811320754717,0.03934782608695652,0.056666666666666664
8,11,21,1,14,2.2199999999999966,2,51,85,94,23,19,13.709999999999797,0.6800000000000004,0.7300000000000004,0.3900000000000002,6,2,2,2,258,14,13,8,3,0,18,7,L,0.05313953488372093,0.04857142857142857,0.05615384615384615,0.04875
8,11,22,1,3,2.1399999999999983,3,49,28,10,1,9,10.129999999999873,2.669999999999987,1.450000000000001,0.26000000000000006,10,2,4,3,214,57,30,6,5,0.5,41,7,L,0.04733644859813084,0.04684210526315789,0.04833333333333333,0.043333333333333335
8,12,23,1,1,2.289999999999995,2,43,77,105,100,36,11.089999999999852,3.559999999999968,0.47000000000000025,0.38000000000000017,5,3,2,2,227,79,6,8,3,0,12,7,L,0.048854625550660793,0.045063291139240506,0.07833333333333334,0.0475
8,12,24,1,12,0.9900000000000007,3,30,40,93,85,91,11.949999999999811,0.9400000000000006,0.4100000000000002,0.17,6,3,4,2,262,23,13,4,5,0.5,23,7,L,0.04561068702290076,0.0408695652173913,0.031538461538461536,0.0425
8,13,25,1,2,1.9200000000000015,2,49,50,54,55,57,9.529999999999884,2.4499999999999917,1.9100000000000015,0.5900000000000003,9,3,3,3,199,58,40,18,4,1,48,7,L,0.0478894472361809,0.04224137931034483,0.04775,0.03277777777777778
8,13,26,1,13,0.7300000000000004,2,20,116,31,117,5,10.699999999999832,0.9800000000000006,0.6400000000000003,0.9100000000000006,4,2,2,2,219,18,16,20,2,0,15,7,L,0.04885844748858448,0.05444444444444445,0.04,0.0455
8,14,27,1,8,0.5100000000000002,4,11,10,1,98,104,9.689999999999849,0.47000000000000025,0.5900000000000003,0.48000000000000026,6,2,2,2,200,16,16,13,2,0,16,7,L,0.04845,0.029375,0.036875000000000005,0.036923076923076927
8,14,28,1,12,1.1800000000000008,2,33,48,45,37,88,9.359999999999872,1.8800000000000014,0.3900000000000002,3.789999999999963,4,4,4,14,179,32,7,71,5,0.5,33,7,L,0.05229050279329609,0.058750000000000004,0.05571428571428571,0.05338028169014085
8,15,29,1,14,1.330000000000001,2,26,91,96,59,49,10.019999999999861,1.9000000000000015,5.009999999999938,0.35000000000000014,5,2,6,2,200,36,101,5,3,0,14,7,L,0.0501,0.05277777777777778,0.049603960396039606,0.06999999999999999
8,15,30,1,1,0.7000000000000004,6,13,81,35,32,74,11.079999999999824,0.15,0.6200000000000003,0.10999999999999999,10,2,2,2,202,2,13,3,3,0,16,7,L,0.05485148514851485,0.075,0.047692307692307694,0.03666666666666667
8,16,31,1,7,1.1600000000000008,2,27,32,9,35,5,8.069999999999897,3.7699999999999636,3.179999999999976,1.0000000000000007,8,3,3,6,158,75,62,18,6,0,22,7,L,0.051075949367088605,0.05026666666666667,0.05129032258064516,0.05555555555555555
8,16,32,1,11,1.0400000000000007,16,17,63,71,19,18,11.219999999999828,0.6600000000000004,3.369999999999972,0.2800000000000001,18,2,2,2,218,15,79,5,4,0,20,7,L,0.05146788990825688,0.044,0.04265822784810126,0.056
8,17,33,1,13,0.9000000000000006,6,19,120,117,5,112,10.739999999999835,0.5600000000000003,0.7500000000000004,0.36000000000000015,8,3,2,2,243,11,19,6,2,0.5,18,7,L,0.04419753086419753,0.050909090909090904,0.03947368421052632,0.06
8,17,34,1,14,0.48000000000000026,2,10,96,61,22,24,11.48999999999981,1.300000000000001,0.38000000000000017,1.1100000000000008,6,3,2,2,220,16,8,24,3,0,19,7,L,0.052227272727272726,0.08125,0.0475,0.04625
8,18,35,1,7,0.7900000000000005,3,16,7,3,86,55,8.299999999999885,15.22999999999972,0.01,0.03,5,8,1,1,144,319,1,1,6,0,19,7,L,0.05763888888888889,0.04774294670846395,0.01,0.03
8,18,36,1,1,0.7900000000000005,3,19,76,83,16,75,9.859999999999852,1.1500000000000008,1.8800000000000014,0.5700000000000003,5,2,2,5,201,25,35,11,3,0.5,24,7,L,0.049054726368159204,0.046,0.053714285714285714,0.05181818181818182
8,19,37,1,1,1.1200000000000008,2,25,78,84,75,68,8.989999999999878,0.8700000000000006,1.1200000000000008,5.5799999999999255,8,2,4,8,183,16,21,125,3,0.5,22,7,L,0.04912568306010929,0.054375,0.05333333333333333,0.04464
8,19,38,1,3,1.7100000000000013,2,35,55,25,27,1,13.099999999999802,0.48000000000000026,1.0700000000000007,0.19000000000000003,9,2,4,4,282,4,28,9,5,0,20,7,L,0.046453900709219856,0.12,0.038214285714285715,0.021111111111111112
9,1,1,0,3,0.3900000000000002,2,3,2,34,29,6,2.7599999999999936,0.3200000000000001,0.08,0.21000000000000005,6,2,1,1,20,3,1,2,5,0,22,7,L,0.13800000000000004,0.10666666666666666,0.08,0.10500000000000001
9,1,2,0,5,0.4000000000000002,2,3,41,96,52,49,2.4000000000000017,1.1200000000000008,0.09999999999999999,0.16,5,2,1,2,23,12,1,4,5,0,16,7,L,0.10434782608695654,0.09333333333333334,0.09999999999999999,0.04
9,2,3,0,2,0.5000000000000002,2,5,58,13,87,41,2.639999999999999,0.49000000000000027,0.23000000000000007,0.36000000000000015,4,2,1,2,26,2,1,3,4,0,18,7,L,0.10153846153846155,0.24500000000000005,0.23000000000000007,0.11999999999999998
9,2,4,0,9,0.5100000000000002,2,7,68,27,99,78,2.1600000000000015,0.8500000000000005,1.1100000000000008,0.08,4,2,3,1,27,8,16,1,4,0,14,7,L,0.08,0.10625,0.069375,0.08
9,3,5,0,4,0.4100000000000002,3,4,101,67,5,77,2.569999999999998,0.6000000000000003,0.16,0.4000000000000002,7,2,1,2,22,5,1,5,2,0,15,7,L,0.11681818181818183,0.12000000000000001,0.16,0.08
9,3,6,0,7,0.6700000000000004,2,12,16,55,88,85,2.530000000000002,1.0900000000000007,0.20000000000000004,0.23000000000000007,5,2,2,2,28,8,2,3,6,0,16,7,L,0.09035714285714287,0.13625,0.09999999999999999,0.07666666666666666
9,4,7,0,2,0.47000000000000025,2,6,59,77,21,55,2.2800000000000016,0.6300000000000003,0.21000000000000005,0.08,5,2,2,1,30,7,2,2,4,0,17,7,L,0.076,0.09,0.105,0.04
9,4,8,0,8,0.46000000000000024,2,7,117,48,119,3,2.6699999999999973,0.9200000000000006,0.10999999999999999,0.09,4,2,2,2,35,9,4,3,2,0,15,7,L,0.07628571428571429,0.10222222222222221,0.0275,0.03
9,5,9,0,3,0.3900000000000002,2,6,33,36,10,32,2.290000000000002,0.6800000000000004,0.3200000000000001,0.16,5,3,2,3,28,4,3,3,5,0.5,36,7,L,0.0817857142857143,0.17,0.10666666666666666,0.05333333333333334
9,5,10,0,1,0.38000000000000017,2,6,83,38,39,52,1.9900000000000013,0.6100000000000003,0.35000000000000014,0.15,4,2,2,1,24,4,2,1,3,0,17,7,L,0.08291666666666667,0.15250000000000002,0.17500000000000002,0.15
9,6,11,0,4,0.2900000000000001,2,8,104,99,105,47,1.650000000000001,1.0000000000000007,0.09999999999999999,0.7900000000000005,5,3,1,2,22,8,1,10,2,0.5,17,7,L,0.075,0.12500000000000003,0.09999999999999999,0.079
9,6,12,0,1,0.21000000000000005,2,5,24,20,31,36,2.779999999999989,0.4200000000000002,0.17,0.25000000000000006,5,4,2,2,24,8,2,5,3,0,22,7,L,0.11583333333333336,0.0525,0.08499999999999999,0.049999999999999996
9,7,13,1,3,0.8000000000000005,2,10,109,35,120,29,3.3099999999999907,0.09,1.270000000000001,0.15,6,1,3,2,41,1,8,2,5,0,14,7,L,0.08073170731707317,0.09,0.15875000000000006,0.075
9,7,14,1,12,0.4300000000000002,2,6,46,70,77,63,2.5,0.3200000000000001,0.9200000000000006,0.11999999999999998,4,2,2,1,24,3,8,1,5,0,16,7,L,0.10416666666666667,0.10666666666666669,0.11500000000000002,0.11999999999999998
9,8,15,1,12,0.4100000000000002,2,6,39,118,45,58,2.3200000000000016,1.1300000000000008,0.3900000000000002,0.03,6,3,3,1,22,10,4,1,5,0,16,7,L,0.10545454545454547,0.11300000000000002,0.09750000000000002,0.03
9,8,16,1,8,0.48000000000000026,2,7,105,72,108,80,2.0600000000000014,0.7700000000000005,0.22000000000000006,0.20000000000000004,5,3,2,2,21,9,3,2,2,0,11,7,L,0.0980952380952381,0.08555555555555557,0.07333333333333333,0.1
9,9,17,1,8,0.35000000000000014,2,4,104,44,95,43,2.3900000000000006,0.46000000000000024,0.9900000000000007,0.12999999999999998,4,2,4,2,20,8,9,4,2,0,15,7,L,0.11950000000000002,0.057499999999999996,0.11,0.0325
9,9,18,1,13,0.4300000000000002,2,6,114,69,70,8,2.539999999999999,0.3100000000000001,0.17,0.4200000000000002,6,2,1,2,26,2,1,4,2,0,16,7,L,0.0976923076923077,0.15500000000000003,0.17,0.10500000000000001
9,10,19,1,12,0.6100000000000003,2,10,99,97,38,48,3.2199999999999886,0.38000000000000017,0.7400000000000004,0.23000000000000007,7,2,4,3,27,3,9,4,5,0,14,7,L,0.11925925925925929,0.1266666666666667,0.08222222222222224,0.057499999999999996
9,10,20,1,7,0.7000000000000004,2,7,69,67,27,66,3.4299999999999864,0.36000000000000015,0.15,0.07,7,2,1,1,34,2,1,1,6,0.5,29,7,L,0.10088235294117648,0.18000000000000002,0.15,0.07
9,11,21,1,3,0.3200000000000001,2,4,30,28,65,63,1.9700000000000013,2.0000000000000013,0.6200000000000003,0.05,5,5,3,2,22,19,6,2,5,0,18,7,L,0.08954545454545455,0.10526315789473685,0.10333333333333335,0.025
9,11,22,1,8,0.7200000000000004,2,13,98,101,10,107,2.660000000000002,0.6800000000000004,0.20000000000000004,0.20000000000000004,4,3,2,2,28,7,4,3,2,0.5,18,7,L,0.09500000000000001,0.09714285714285714,0.05,0.06666666666666667
9,12,23,1,14,0.17,2,5,2,85,89,6,3.869999999999965,0.02,0.12999999999999998,0.38000000000000017,7,1,2,2,26,1,2,2,3,0,18,7,L,0.14884615384615388,0.02,0.065,0.19
9,12,24,1,11,0.4200000000000002,2,7,67,61,24,22,2.3000000000000016,1.360000000000001,0.19000000000000003,0.2900000000000001,5,5,1,1,25,11,1,1,4,0,20,7,L,0.09200000000000001,0.12363636363636367,0.19000000000000003,0.2900000000000001
9,13,25,1,3,0.3300000000000001,3,6,30,33,84,28,2.2600000000000016,1.1800000000000008,0.060000000000000005,0.03,5,7,1,1,27,7,1,1,5,0.5,33,7,L,0.08370370370370371,0.16857142857142865,0.060000000000000005,0.03
9,13,26,1,12,0.5700000000000003,2,8,47,96,88,15,2.6100000000000008,0.8200000000000005,0.09999999999999999,0.5900000000000003,4,2,1,3,23,10,1,6,5,0,17,7,L,0.11347826086956524,0.082,0.09999999999999999,0.09833333333333334
9,14,27,1,8,0.6800000000000004,4,8,24,13,19,73,2.929999999999996,3.1599999999999766,0.17,0.060000000000000005,7,10,2,2,23,33,2,2,2,0.5,39,7,L,0.1273913043478261,0.09575757575757578,0.085,0.030000000000000002
9,14,28,1,2,0.47000000000000025,2,7,57,94,110,58,2.2800000000000016,3.089999999999978,1.0100000000000007,0.17,4,7,5,4,23,29,9,4,4,0,13,7,L,0.0991304347826087,0.10655172413793106,0.11222222222222225,0.0425
9,15,29,1,7,0.2800000000000001,2,6,8,11,5,1,1.8000000000000012,0.7000000000000004,2.429999999999992,1.9400000000000015,4,2,4,11,18,9,24,20,6,1,72,7,L,0.10000000000000002,0.07777777777777778,0.10125000000000002,0.09700000000000002
9,15,30,1,15,0.4000000000000002,2,5,17,15,92,30,2.1900000000000017,5.81999999999992,0.07,0.02,4,15,2,1,19,49,2,1,6,0,20,7,L,0.11526315789473686,0.11877551020408166,0.035,0.02
9,16,31,1,1,0.48000000000000026,2,4,53,76,44,39,3.1899999999999866,0.3300000000000001,0.060000000000000005,0.21000000000000005,5,2,1,2,22,6,1,2,3,0,17,7,L,0.14500000000000005,0.055,0.060000000000000005,0.10499999999999998
9,16,32,1,7,0.9200000000000006,4,11,120,11,32,4,2.3600000000000017,0.26000000000000006,0.48000000000000026,1.0000000000000007,6,1,2,4,20,1,5,8,6,0,19,7,L,0.11800000000000002,0.26000000000000006,0.09600000000000002,0.12500000000000003
9,17,33,1,14,0.5000000000000002,5,7,94,5,35,31,2.639999999999999,0.3200000000000001,0.4100000000000002,0.060000000000000005,7,1,2,1,25,2,3,1,3,0,19,7,L,0.10560000000000001,0.16000000000000003,0.13666666666666666,0.060000000000000005
9,17,34,1,11,0.25000000000000006,2,4,70,73,23,14,2.359999999999999,0.49000000000000027,0.25000000000000006,0.5700000000000003,4,2,1,3,24,5,1,9,4,0,19,7,L,0.09833333333333336,0.098,0.25000000000000006,0.06333333333333334
9,18,35,1,2,0.3200000000000001,2,4,13,55,77,24,6.039999999999923,0.01,0.01,0.01,11,1,1,1,48,1,1,1,4,0,19,7,L,0.12583333333333335,0.01,0.01,0.01
9,18,36,1,7,0.7600000000000005,3,9,87,7,28,109,3.339999999999989,0.3000000000000001,1.490000000000001,0.11999999999999998,5,2,5,2,40,3,16,2,6,0,16,7,L,0.0835,0.09999999999999999,0.09312500000000001,0.06
9,19,37,1,3,0.26000000000000006,2,4,31,32,94,115,1.660000000000001,0.49000000000000027,1.470000000000001,0.3200000000000001,4,3,6,2,16,5,15,3,5,0,15,7,L,0.10375000000000001,0.098,0.09800000000000002,0.10666666666666669
9,19,38,1,1,0.8100000000000005,3,8,15,78,76,55,3.4799999999999875,0.23000000000000007,0.22000000000000006,0.09999999999999999,8,2,2,1,27,5,2,2,3,0,16,7,L,0.12888888888888891,0.046,0.10999999999999999,0.05
9,20,39,1,13,0.47000000000000025,2,7,120,119,37,45,1.8800000000000012,0.9200000000000006,0.7300000000000004,0.38000000000000017,4,3,4,1,21,8,9,1,2,0,14,7,L,0.08952380952380952,0.11500000000000002,0.08111111111111113,0.38000000000000017
9,20,40,1,8,0.4200000000000002,2,4,31,99,108,34,1.9700000000000013,0.15,0.6300000000000003,0.22000000000000006,4,1,5,2,21,1,6,3,2,0,14,7,L,0.0938095238095238,0.15,0.10500000000000001,0.07333333333333333
9,21,41,1,1,0.26000000000000006,2,3,15,109,65,26,4.949999999999944,0.01,0.05,0.01,9,1,2,1,40,1,2,1,3,0,17,7,L,0.12375000000000003,0.01,0.025,0.01
9,21,42,1,7,0.5600000000000003,2,9,4,1,9,37,2.2400000000000015,3.47999999999997,0.01,0.07,5,10,1,1,23,28,1,1,6,0.5,41,7,L,0.0973913043478261,0.12428571428571432,0.01,0.07
9,22,43,1,11,0.45000000000000023,2,6,69,65,71,46,2.7799999999999945,0.5400000000000003,0.3100000000000001,0.8900000000000006,4,3,2,3,19,4,7,9,4,0.5,29,7,L,0.14631578947368423,0.135,0.04428571428571428,0.09888888888888889
9,22,44,1,2,0.2800000000000001,2,4,51,60,113,58,2.1700000000000017,0.5900000000000003,0.8800000000000006,0.05,9,7,4,2,20,10,5,2,4,0.5,26,7,L,0.10850000000000001,0.059,0.17600000000000005,0.025
10,1,1,0,9,0.5700000000000003,2,12,67,74,72,68,2.0900000000000016,1.0000000000000007,0.15,0.24000000000000007,5,2,2,2,33,13,2,6,4,0.5,27,7,L,0.06333333333333334,0.07692307692307693,0.07499999999999998,0.04
10,1,2,0,4,0.3200000000000001,2,6,6,101,51,85,2.9399999999999884,0.07,0.18000000000000002,0.22000000000000006,4,1,2,2,39,1,3,2,2,0,15,7,L,0.0753846153846154,0.07,0.06,0.11000000000000003
10,2,3,0,5,0.48000000000000026,2,12,38,53,117,95,2.430000000000002,1.2200000000000009,0.24000000000000007,0.11999999999999998,5,2,2,2,39,21,3,4,5,0,14,7,L,0.062307692307692314,0.058095238095238096,0.07999999999999999,0.03
10,2,4,0,4,0.35000000000000014,2,7,107,16,75,78,2.5399999999999974,1.0400000000000007,0.3900000000000002,0.37000000000000016,4,2,2,2,41,18,6,6,2,0,14,7,L,0.06195121951219512,0.057777777777777775,0.065,0.06166666666666667
10,3,5,0,2,0.45000000000000023,2,7,53,19,84,76,3.0099999999999896,0.21000000000000005,0.5500000000000003,0.08,5,2,2,1,47,2,7,1,4,0,16,7,L,0.06404255319148937,0.10499999999999998,0.07857142857142858,0.08
10,3,6,0,4,0.37000000000000016,2,9,106,2,39,87,2.709999999999994,0.7200000000000004,0.20000000000000004,0.17,6,2,2,2,41,12,3,5,2,0,16,7,L,0.06609756097560976,0.06,0.06666666666666665,0.034
10,4,7,0,7,0.48000000000000026,2,7,19,15,30,69,2.330000000000002,3.8599999999999617,0.01,0.01,5,10,1,1,31,53,1,1,6,0,21,7,L,0.07516129032258065,0.07283018867924529,0.01,0.01
10,4,8,0,8,0.5000000000000002,2,7,110,111,112,2,1.9800000000000013,1.0100000000000007,0.21000000000000005,0.47000000000000025,4,2,2,2,25,17,4,9,2,0.5,18,7,L,0.0792,0.05941176470588235,0.0525,0.052222222222222225
10,5,9,0,3,0.5000000000000002,2,5,32,29,49,26,2.819999999999995,0.3100000000000001,0.35000000000000014,0.09999999999999999,4,2,3,2,28,6,4,7,5,0.5,34,7,L,0.10071428571428573,0.051666666666666666,0.08750000000000002,0.014285714285714285
10,5,10,0,1,0.3200000000000001,2,4,84,77,45,48,2.8299999999999907,0.49000000000000027,0.07,0.16,4,2,1,2,50,11,1,3,3,0,16,7,L,0.0566,0.04454545454545455,0.07,0.05333333333333334
10,6,11,0,8,0.3000000000000001,2,5,115,59,23,50,2.599999999999995,0.7700000000000005,0.3000000000000001,0.2700000000000001,4,2,3,2,31,16,6,3,2,0,16,7,L,0.08387096774193549,0.048125,0.049999999999999996,0.09
10,6,12,0,5,0.7500000000000004,2,18,84,38,45,3,3.209999999999992,0.36000000000000015,0.07,0.4000000000000002,5,2,2,3,53,7,3,7,5,0,19,7,L,0.06056603773584906,0.05142857142857143,0.023333333333333334,0.05714285714285714
10,7,13,1,12,0.35000000000000014,2,5,46,66,81,74,1.630000000000001,1.350000000000001,0.10999999999999999,0.19000000000000003,4,4,1,3,21,23,1,5,5,0,15,7,L,0.07761904761904763,0.058695652173913045,0.10999999999999999,0.038
10,7,14,1,13,0.45000000000000023,2,5,116,112,59,114,2.659999999999997,0.49000000000000027,0.15,0.26000000000000006,5,2,2,3,43,10,5,4,2,0.5,16,7,L,0.061860465116279066,0.049,0.030000000000000002,0.065
10,8,15,1,8,0.5600000000000003,2,11,103,107,65,90,2.9799999999999924,0.3100000000000001,0.34000000000000014,0.26000000000000006,4,2,3,2,45,4,6,3,2,0,11,7,L,0.06622222222222222,0.0775,0.056666666666666664,0.08666666666666667
10,8,16,1,15,0.7200000000000004,2,12,18,80,73,52,2.7300000000000013,0.7400000000000004,0.19000000000000003,0.23000000000000007,4,2,2,2,40,20,5,6,6,0,16,7,L,0.06825,0.037,0.038,0.03833333333333333
10,9,17,1,15,0.3300000000000001,2,6,24,20,19,15,2.7899999999999916,0.12999999999999998,0.48000000000000026,0.13999999999999999,4,1,3,2,38,1,5,4,6,1,72,7,L,0.07342105263157896,0.12999999999999998,0.096,0.035
10,9,18,1,13,0.4200000000000002,2,9,116,120,44,48,2.829999999999993,0.5100000000000002,0.24000000000000007,0.35000000000000014,4,2,3,2,41,10,4,5,2,0,14,7,L,0.06902439024390244,0.051,0.06,0.06999999999999999
10,10,19,1,8,0.13999999999999999,2,2,3,108,107,97,7.069999999999896,0.01,0.01,0.01,14,1,1,1,106,1,1,1,2,0.5,18,7,L,0.06669811320754716,0.01,0.01,0.01
10,10,20,1,13,0.3200000000000001,2,8,110,17,111,49,2.629999999999995,1.1800000000000008,0.09999999999999999,0.05,4,3,2,1,50,14,2,1,2,0,14,7,L,0.0526,0.0842857142857143,0.05,0.05
10,11,21,1,12,0.38000000000000017,2,7,42,51,98,43,2.350000000000002,1.1300000000000008,0.10999999999999999,0.08,5,2,1,2,33,22,2,2,5,0,16,7,L,0.07121212121212121,0.05136363636363636,0.05499999999999999,0.04
10,11,22,1,3,0.5500000000000003,2,12,33,63,31,64,2.859999999999995,1.1700000000000008,0.19000000000000003,0.2900000000000001,4,2,4,2,48,19,5,4,5,0,18,7,L,0.05958333333333333,0.06157894736842105,0.038,0.0725
10,12,23,1,3,0.4400000000000002,2,5,28,26,64,69,2.4000000000000017,0.6700000000000004,0.5500000000000003,0.4100000000000002,5,4,4,4,27,11,12,6,5,0,18,7,L,0.08888888888888889,0.06090909090909092,0.04583333333333334,0.06833333333333333
10,12,24,1,15,0.45000000000000023,3,9,20,16,39,93,2.350000000000002,0.17,1.1400000000000008,0.34000000000000014,5,1,4,2,35,1,17,5,6,0,20,7,L,0.06714285714285714,0.17,0.06705882352941177,0.068
10,13,25,1,13,0.5100000000000002,2,12,115,119,118,23,1.8200000000000012,1.0000000000000007,0.34000000000000014,0.5100000000000002,4,2,2,4,30,13,3,11,2,0.5,18,7,L,0.060666666666666674,0.07692307692307693,0.11333333333333333,0.046363636363636364
10,13,26,1,1,0.6000000000000003,2,14,80,77,84,8,2.3400000000000016,0.8800000000000006,0.18000000000000002,0.8600000000000005,5,3,2,2,44,10,4,17,3,0.5,24,7,L,0.053181818181818184,0.088,0.045,0.05058823529411764
10,14,27,1,14,0.4400000000000002,2,13,91,94,92,113,2.2200000000000015,0.4000000000000002,0.7600000000000005,0.08,4,2,6,2,38,7,15,3,3,0.5,20,7,L,0.05842105263157894,0.05714285714285714,0.05066666666666667,0.02666666666666667
10,14,28,1,12,0.6600000000000004,2,11,39,70,45,41,3.0899999999999928,0.5800000000000003,0.37000000000000016,0.38000000000000017,8,4,2,4,49,8,4,5,5,0.5,34,7,L,0.06306122448979593,0.0725,0.0925,0.076
10,15,29,1,15,0.36000000000000015,2,8,13,15,73,37,2.5099999999999985,0.7000000000000004,0.5600000000000003,0.10999999999999999,4,2,2,2,39,13,5,3,6,0,20,7,L,0.06435897435897436,0.05384615384615385,0.11200000000000004,0.03666666666666667
10,15,30,1,14,0.6700000000000004,2,15,95,87,92,5,3.459999999999985,0.25000000000000006,0.5600000000000003,0.03,6,2,6,1,65,4,8,1,3,0.5,24,7,L,0.053230769230769234,0.0625,0.07,0.03
10,16,31,1,14,0.26000000000000006,2,4,85,70,13,68,2.2200000000000015,0.6900000000000004,0.37000000000000016,0.3100000000000001,5,2,3,2,26,12,8,10,3,0,17,7,L,0.08538461538461539,0.0575,0.04625,0.031
10,16,32,1,3,0.24000000000000007,2,9,27,29,28,36,2.2000000000000015,0.22000000000000006,0.7000000000000004,0.10999999999999999,4,3,2,2,35,5,9,2,5,1,60,7,L,0.06285714285714286,0.044,0.07777777777777779,0.05500000000000001
10,17,33,1,12,0.4300000000000002,2,9,38,48,113,95,2.679999999999996,0.8900000000000006,0.16,0.08,4,2,1,2,37,13,2,2,5,0,15,7,L,0.07243243243243244,0.06846153846153846,0.07999999999999999,0.04
10,17,34,1,7,0.2700000000000001,2,6,4,12,74,65,2.9199999999999875,0.19000000000000003,0.09,0.16,4,2,1,2,55,3,1,3,6,0,19,7,L,0.05309090909090909,0.06333333333333332,0.09,0.05333333333333332
10,18,35,1,11,0.3300000000000001,2,7,69,62,19,91,2.3300000000000014,0.5800000000000003,0.3900000000000002,0.3200000000000001,4,2,2,2,43,9,6,5,4,0,17,7,L,0.05418604651162791,0.06444444444444444,0.065,0.064
10,18,36,1,7,0.2900000000000001,2,6,1,10,9,77,2.5599999999999956,0.37000000000000016,0.37000000000000016,0.3000000000000001,4,3,2,2,37,5,5,2,6,0.5,39,7,L,0.06918918918918919,0.074,0.074,0.15000000000000002
10,19,37,1,12,0.9800000000000006,2,15,74,48,84,41,3.55999999999999,0.5300000000000002,0.16,0.21000000000000005,4,2,2,2,50,11,2,3,5,0,16,7,L,0.0712,0.04818181818181819,0.07999999999999999,0.06999999999999999
10,19,38,1,15,0.5000000000000002,3,14,23,17,91,30,2.4300000000000015,0.6900000000000004,0.8500000000000005,0.5800000000000003,7,7,6,6,36,13,13,10,6,0,20,7,L,0.0675,0.05307692307692308,0.06538461538461539,0.058
10,20,39,1,7,0.7900000000000005,2,15,3,1,2,82,2.5100000000000016,0.9800000000000006,2.020000000000001,0.03,4,6,3,1,45,15,24,1,6,0.5,39,7,L,0.05577777777777778,0.06533333333333333,0.08416666666666667,0.03
10,20,40,1,8,0.3900000000000002,2,11,98,46,93,44,2.4699999999999998,0.6000000000000003,0.07,0.15,4,3,1,1,37,9,1,1,2,0,15,7,L,0.06675675675675675,0.06666666666666667,0.07,0.15
10,21,41,1,15,0.21000000000000005,3,5,13,21,18,42,2.319999999999999,0.2700000000000001,3.4099999999999713,0.01,7,2,8,1,42,5,53,1,6,0.5,41,7,L,0.05523809523809524,0.054,0.06433962264150943,0.01
10,21,42,1,11,0.2900000000000001,2,5,1,2,86,30,7.859999999999883,0.01,0.01,0.02,19,1,1,1,113,1,1,1,4,0,20,7,L,0.06955752212389381,0.01,0.01,0.02
10,22,43,1,14,0.48000000000000026,2,6,91,87,24,92,2.270000000000002,0.7700000000000005,0.10999999999999999,0.34000000000000014,4,4,1,2,40,17,2,8,3,0.5,24,7,L,0.05675,0.045294117647058825,0.05500000000000001,0.042499999999999996
10,22,44,1,1,0.46000000000000024,3,10,80,76,82,8,3.1199999999999877,0.16,0.09999999999999999,0.49000000000000027,5,2,1,7,53,3,1,10,3,0.5,24,7,L,0.05886792452830189,0.05333333333333333,0.09999999999999999,0.049
11,1,1,0,6,0.5300000000000002,2,10,57,84,8,115,3.399999999999983,1.280000000000001,0.24000000000000007,0.2900000000000001,6,3,2,2,35,11,6,2,6,0,15,7,L,0.09714285714285716,0.11636363636363638,0.04,0.145
11,1,2,0,10,0.5900000000000003,2,14,87,31,35,18,3.5799999999999805,1.430000000000001,0.10999999999999999,0.21000000000000005,4,2,1,2,44,21,1,4,3,0,19,7,L,0.08136363636363637,0.0680952380952381,0.10999999999999999,0.0525
11,2,3,0,7,0.6900000000000004,2,7,14,79,82,16,4.589999999999961,1.2200000000000009,0.7400000000000004,0.17,9,4,5,2,36,10,8,2,6,0,18,7,L,0.12750000000000003,0.12200000000000001,0.0925,0.08499999999999999
11,2,4,0,8,1.0600000000000007,2,14,9,118,51,7,4.629999999999969,0.3200000000000001,0.3300000000000001,0.09,6,3,3,1,39,5,4,1,2,0,18,7,L,0.11871794871794873,0.064,0.08249999999999999,0.09
11,3,5,0,8,0.5600000000000003,2,4,2,115,110,9,4.319999999999964,0.49000000000000027,0.09,0.16,7,3,2,2,28,4,3,3,2,0,16,7,L,0.15428571428571433,0.1225,0.030000000000000002,0.05333333333333334
11,3,6,0,10,0.5900000000000003,2,7,87,49,96,53,3.879999999999974,0.48000000000000026,0.09,0.20000000000000004,4,3,1,2,49,7,1,3,3,0,14,7,L,0.07918367346938776,0.06857142857142857,0.09,0.06666666666666667
11,4,7,0,5,0.45000000000000023,4,7,46,37,42,41,3.139999999999987,0.7000000000000004,0.16,0.20000000000000004,6,2,2,3,29,7,2,4,5,1,60,7,L,0.10827586206896553,0.1,0.08,0.049999999999999996
11,4,8,0,3,0.3300000000000001,2,5,33,36,90,96,2.3200000000000016,0.46000000000000024,0.7100000000000004,0.7400000000000004,4,2,2,2,24,3,3,11,5,0,16,7,L,0.09666666666666668,0.15333333333333335,0.23666666666666675,0.06727272727272728
11,5,9,0,4,0.7900000000000005,17,18,94,17,101,103,9.419999999999861,0.02,0.07,0.01,20,1,1,1,92,1,1,1,2,0,13,7,L,0.1023913043478261,0.02,0.07,0.01
11,5,10,0,6,0.6900000000000004,5,10,2,1,44,75,3.139999999999992,7.119999999999893,0.01,0.05,7,15,1,1,36,71,1,1,6,0,20,7,L,0.08722222222222223,0.10028169014084508,0.01,0.05
11,6,11,0,10,0.6600000000000004,2,7,92,110,114,111,2.8599999999999977,1.6600000000000013,0.2700000000000001,0.21000000000000005,6,3,2,2,28,13,4,3,3,0.5,15,7,L,0.10214285714285716,0.12769230769230772,0.0675,0.07
11,6,12,0,3,0.5200000000000002,2,7,30,21,35,27,2.1800000000000015,1.5200000000000011,0.25000000000000006,1.0700000000000007,7,4,3,5,23,13,5,11,5,0.5,36,7,L,0.09478260869565219,0.11692307692307695,0.049999999999999996,0.09727272727272729
11,7,13,1,13,0.6500000000000004,2,8,115,50,117,60,3.0899999999999923,1.490000000000001,0.4400000000000002,0.4200000000000002,5,3,3,3,38,13,8,3,2,0,12,7,L,0.08131578947368422,0.11461538461538463,0.055,0.14000000000000004
11,7,14,1,14,0.5300000000000002,2,7,88,4,95,8,3.8599999999999732,0.6600000000000004,0.13999999999999999,0.6300000000000003,5,2,2,3,33,6,2,5,3,0,18,7,L,0.11696969696969699,0.11000000000000001,0.07,0.12600000000000003
11,8,15,1,2,0.4000000000000002,2,5,89,119,12,109,3.3099999999999823,0.9000000000000006,0.4200000000000002,0.10999999999999999,8,3,3,1,38,11,5,1,4,0,13,7,L,0.08710526315789474,0.08181818181818182,0.08399999999999999,0.10999999999999999
11,8,16,1,1,0.2900000000000001,2,4,81,80,78,84,3.0699999999999847,0.12999999999999998,0.5900000000000003,0.9700000000000006,5,1,5,5,35,1,8,5,3,1,36,7,L,0.08771428571428572,0.12999999999999998,0.07375000000000001,0.19400000000000006
11,9,17,1,2,0.48000000000000026,3,9,49,90,117,112,3.309999999999984,0.48000000000000026,0.34000000000000014,0.16,6,2,2,1,30,4,3,1,4,0,11,7,L,0.11033333333333335,0.12000000000000001,0.11333333333333334,0.16
11,9,18,1,11,0.6800000000000004,2,9,99,72,102,30,4.019999999999973,0.4100000000000002,0.9700000000000006,0.09,7,2,3,3,35,5,6,4,4,0,13,7,L,0.11485714285714288,0.082,0.1616666666666667,0.0225
11,10,19,1,11,0.9600000000000006,2,12,69,27,81,107,4.42999999999997,0.21000000000000005,0.5500000000000003,0.2800000000000001,9,2,2,2,33,2,3,2,4,0,14,7,L,0.13424242424242427,0.105,0.18333333333333338,0.13999999999999999
11,10,20,1,12,0.6000000000000003,6,10,45,42,39,94,2.610000000000001,1.0600000000000007,0.7600000000000005,0.16,8,6,2,1,30,11,10,1,5,0.5,33,7,L,0.08700000000000001,0.09636363636363637,0.07600000000000001,0.16
11,11,21,1,13,0.6000000000000003,2,10,34,92,68,2,4.789999999999956,0.7100000000000004,0.10999999999999999,0.5100000000000002,8,2,2,2,55,11,2,3,2,0,18,7,L,0.0870909090909091,0.06454545454545454,0.05500000000000001,0.17000000000000004
11,11,22,1,12,0.6300000000000003,2,7,48,38,79,37,3.17999999999999,0.9500000000000006,0.3100000000000001,0.23000000000000007,6,3,1,3,29,8,1,3,5,0.5,33,7,L,0.10965517241379312,0.11875000000000001,0.3100000000000001,0.07666666666666666
11,12,23,1,8,0.7300000000000004,2,12,98,102,40,45,2.959999999999997,1.2500000000000009,0.9100000000000006,0.13999999999999999,6,2,2,1,35,9,8,1,2,0,14,7,L,0.08457142857142858,0.1388888888888889,0.11375000000000002,0.13999999999999999
11,12,24,1,1,0.48000000000000026,2,5,76,79,71,81,3.4699999999999807,0.16,1.0400000000000007,0.09,5,1,7,1,34,1,11,1,3,0.5,22,7,L,0.10205882352941179,0.16,0.09454545454545456,0.09
11,13,25,1,1,0.45000000000000023,3,7,78,32,81,36,2.9099999999999917,0.6700000000000004,0.3100000000000001,0.04,7,3,2,1,25,10,3,1,3,0,16,7,L,0.11640000000000003,0.067,0.10333333333333333,0.04
11,13,26,1,14,0.36000000000000015,2,7,90,87,43,88,3.429999999999979,0.48000000000000026,0.7300000000000004,0.09,6,4,2,2,43,6,9,4,3,0.5,23,7,L,0.07976744186046512,0.08000000000000002,0.0811111111111111,0.0225
11,14,27,1,14,0.3200000000000001,2,3,86,89,12,53,2.9699999999999878,0.19000000000000003,1.310000000000001,0.3200000000000001,4,2,3,2,32,3,11,5,3,0,16,7,L,0.0928125,0.06333333333333332,0.1190909090909091,0.064
11,14,28,1,13,0.34000000000000014,2,3,110,116,112,115,3.029999999999987,0.9900000000000007,0.16,1.7500000000000013,5,2,2,8,19,9,2,23,2,1,24,7,L,0.15947368421052635,0.11000000000000001,0.07999999999999999,0.07608695652173915
11,15,29,1,14,0.5200000000000002,2,7,89,85,88,61,3.05999999999999,0.4200000000000002,0.08,0.5000000000000002,4,2,1,2,28,4,1,3,3,0.5,22,7,L,0.10928571428571429,0.105,0.08,0.16666666666666669
11,15,30,1,2,0.9300000000000006,4,12,79,98,51,73,3.869999999999982,0.6700000000000004,0.25000000000000006,0.20000000000000004,8,2,2,2,35,11,3,4,4,0,12,7,L,0.1105714285714286,0.060909090909090906,0.08333333333333331,0.05
11,16,31,1,15,0.45000000000000023,2,6,16,49,91,60,3.839999999999972,0.9100000000000006,0.060000000000000005,0.8800000000000006,10,2,1,5,37,8,1,6,6,0,17,7,L,0.10378378378378379,0.11375,0.060000000000000005,0.1466666666666667
11,16,32,1,12,0.7300000000000004,2,7,37,10,2,46,3.379999999999988,0.7900000000000005,0.6700000000000004,0.09,6,2,2,1,33,8,11,1,5,0,22,7,L,0.10242424242424245,0.09875,0.060909090909090906,0.09
11,17,33,1,14,0.5800000000000003,2,9,90,63,47,6,2.6799999999999997,0.8000000000000005,0.8200000000000005,0.36000000000000015,4,2,2,2,29,6,11,5,3,0,18,7,L,0.09241379310344829,0.13333333333333333,0.07454545454545455,0.072
11,17,34,1,2,1.1000000000000008,3,17,49,57,55,34,4.019999999999983,1.5500000000000012,0.4400000000000002,0.03,6,5,5,2,51,15,7,2,4,0.5,29,7,L,0.07882352941176471,0.10333333333333335,0.06285714285714286,0.015
11,18,35,1,13,1.0600000000000007,2,15,110,41,111,47,2.490000000000002,0.9300000000000006,0.6400000000000003,0.7400000000000004,4,5,3,4,27,7,5,7,2,0,14,7,L,0.09222222222222223,0.13285714285714287,0.12800000000000003,0.10571428571428573
11,18,36,1,3,0.7300000000000004,2,4,100,103,6,4,4.039999999999974,0.46000000000000024,0.19000000000000003,0.20000000000000004,6,2,2,1,35,7,2,1,5,0,16,7,L,0.11542857142857144,0.06571428571428573,0.095,0.20000000000000004
11,19,37,1,13,0.5000000000000002,2,5,119,3,6,109,3.0199999999999907,1.320000000000001,3.0599999999999787,0.01,5,3,9,1,34,10,32,1,2,0,16,7,L,0.08882352941176472,0.13200000000000003,0.09562500000000002,0.01
11,19,38,1,2,0.5800000000000003,2,5,57,55,54,29,3.3999999999999844,1.8400000000000014,0.5000000000000002,0.09,9,5,5,2,31,17,5,3,4,0.5,29,7,L,0.10967741935483873,0.10823529411764707,0.1,0.030000000000000002
11,20,39,1,15,0.5900000000000003,4,7,22,21,18,16,2.66,1.0900000000000007,0.21000000000000005,3.519999999999969,6,2,1,11,21,14,1,43,6,1,72,7,L,0.1266666666666667,0.07785714285714286,0.21000000000000005,0.08186046511627908
11,20,40,1,7,0.7300000000000004,2,7,7,91,113,90,3.1999999999999917,1.470000000000001,0.09,0.3300000000000001,4,7,1,1,35,13,1,1,6,0,14,7,L,0.09142857142857144,0.1130769230769231,0.09,0.3300000000000001
11,21,41,1,14,0.2800000000000001,3,4,19,20,51,97,7.269999999999896,0.01,0.02,0.060000000000000005,13,1,1,2,75,1,1,2,3,0,18,7,L,0.09693333333333334,0.01,0.02,0.03
11,21,42,1,12,1.260000000000001,15,21,48,69,46,8,3.599999999999995,0.7100000000000004,0.09,0.18000000000000002,18,2,1,1,39,5,1,1,5,0,20,7,L,0.09230769230769231,0.14200000000000002,0.09,0.18000000000000002
12,1,1,0,1,0.48000000000000026,2,3,40,44,11,7,4.599999999999957,0.36000000000000015,0.5800000000000003,0.23000000000000007,8,1,2,1,13,1,2,1,3,0,22,7,L,0.35384615384615403,0.36000000000000015,0.2900000000000001,0.23000000000000007
12,1,2,0,10,0.48000000000000026,2,3,22,34,60,85,4.229999999999964,0.6700000000000004,0.25000000000000006,0.24000000000000007,9,2,1,2,14,2,1,2,3,0,18,7,L,0.30214285714285727,0.3350000000000002,0.25000000000000006,0.11999999999999998
12,2,3,0,7,0.47000000000000025,2,3,13,98,104,82,27.690000000001454,0.01,0.01,0.01,20,1,1,1,91,1,1,1,6,0,13,7,L,0.30428571428571444,0.01,0.01,0.01
12,2,4,0,8,0.5200000000000002,2,5,25,49,88,113,4.549999999999959,0.4000000000000002,0.3100000000000001,0.13999999999999999,6,2,2,2,10,2,3,2,2,0,14,7,L,0.4550000000000003,0.2000000000000001,0.10333333333333336,0.06999999999999999
12,3,5,0,7,0.4400000000000002,2,3,15,33,25,110,17.409999999999854,0.01,0.01,0.04,20,1,1,1,44,1,1,1,6,0,18,7,L,0.39568181818181836,0.01,0.01,0.04
12,3,6,0,4,0.5800000000000003,2,5,57,4,39,106,6.099999999999927,0.2700000000000001,0.16,0.09999999999999999,11,2,1,2,24,2,1,2,2,0,17,7,L,0.25416666666666676,0.135,0.16,0.05
12,4,7,0,10,0.6200000000000003,2,5,18,85,23,20,4.239999999999967,0.7700000000000005,0.21000000000000005,0.15,8,3,1,1,16,3,1,1,3,0.5,39,7,L,0.2650000000000001,0.25666666666666677,0.21000000000000005,0.15
12,4,8,0,2,1.0100000000000007,5,8,119,117,55,116,3.6499999999999884,1.400000000000001,0.36000000000000015,0.4100000000000002,8,4,2,2,13,6,3,2,4,0.5,16,7,L,0.28076923076923094,0.23333333333333342,0.11999999999999998,0.20500000000000007
12,5,9,0,7,0.5700000000000003,2,4,14,106,73,77,3.8499999999999743,0.8200000000000005,0.48000000000000026,0.2900000000000001,8,2,2,1,15,2,2,1,6,0,14,7,L,0.25666666666666677,0.41000000000000014,0.24000000000000005,0.2900000000000001
12,5,10,0,8,0.5400000000000003,2,3,2,3,9,87,12.809999999999784,0.01,0.24000000000000007,0.01,16,1,1,1,34,1,1,1,2,0.5,39,7,L,0.37676470588235283,0.01,0.24000000000000007,0.01
12,6,11,0,6,1.2400000000000009,3,9,5,8,117,96,7.039999999999922,0.12999999999999998,0.07,0.10999999999999999,12,1,1,1,25,1,1,1,6,0,17,7,L,0.28160000000000013,0.12999999999999998,0.07,0.10999999999999999
12,6,12,0,9,0.2900000000000001,1,2,72,68,71,83,3.0299999999999856,3.1999999999999758,0.47000000000000025,1.1600000000000008,7,9,2,4,13,13,2,5,4,0.5,27,7,L,0.23307692307692315,0.24615384615384625,0.2350000000000001,0.23200000000000012
12,7,13,1,11,0.5800000000000003,2,3,103,66,79,106,4.129999999999969,0.9800000000000006,0.09999999999999999,0.15,6,3,1,2,8,3,1,2,4,0,11,7,L,0.5162500000000003,0.3266666666666668,0.09999999999999999,0.07500000000000001
12,7,14,1,2,0.35000000000000014,2,3,51,53,56,117,2.659999999999995,0.46000000000000024,0.2800000000000001,1.7600000000000013,6,2,1,5,8,2,1,5,4,0.5,26,7,L,0.33250000000000013,0.2300000000000001,0.2800000000000001,0.35200000000000015
