Subject,Round,Phase,afterbreak,Schema,Schema_RT,Schema_OB,Schema_AS,Cho_1,Cho_2,Cho_3,Cho_4,RT_1,RT_2,RT_3,RT_4,OB_1,OB_2,OB_3,OB_4,AS_1,AS_2,AS_3,AS_4,schema_payoff,AC,performance,breakR,type,dwellmean_1,dwellmean_2,dwellmean_3,dwellmean_4
1,1,1,0,7,0.25000000000000006,2,3,21,22,15,16,0.5700000000000002,0.10999999999999999,0.17,0.4000000000000002,4,1,2,2,6,1,2,2,6,1,72,7,Lc,0.09500000000000001,0.10999999999999999,0.08499999999999999,0.2000000000000001
1,1,2,0,6,0.20000000000000004,2,3,2,4,96,66,0.5000000000000001,0.10999999999999999,0.4000000000000002,0.03,3,1,2,1,4,1,2,1,6,0,19,7,Lc,0.12500000000000003,0.10999999999999999,0.20000000000000004,0.03
1,2,3,0,3,0.21000000000000005,2,3,8,30,51,55,0.7000000000000003,0.23000000000000007,0.03,0.060000000000000005,3,2,1,1,4,2,1,1,5,0,19,7,Lc,0.17500000000000007,0.11500000000000002,0.03,0.060000000000000005
1,2,4,0,1,0.25000000000000006,2,3,16,41,80,21,0.8900000000000003,0.060000000000000005,0.08,0.05,4,1,2,1,5,1,2,1,3,0,20,7,Lc,0.17800000000000005,0.060000000000000005,0.04,0.05
1,3,5,0,4,0.25000000000000006,2,3,34,102,103,51,0.6600000000000003,0.13999999999999999,0.03,0.09,3,2,1,1,4,2,1,1,2,0,13,7,Lc,0.16500000000000004,0.06999999999999999,0.03,0.09
1,3,6,0,9,0.21000000000000005,2,3,61,70,88,66,9.679999999999843,0.01,0.8000000000000005,0.01,17,1,2,1,26,1,2,1,4,0.5,27,7,Lc,0.3723076923076925,0.01,0.40000000000000024,0.01
1,4,7,0,9,0.18000000000000002,2,3,65,22,15,71,0.43000000000000005,0.3000000000000001,0.17,0.03,5,1,1,1,7,1,1,1,4,0,20,7,Lc,0.06142857142857143,0.3000000000000001,0.17,0.03
1,4,8,0,2,0.10999999999999999,2,2,1,37,3,50,9.469999999999844,0.02,0.01,0.01,15,1,1,1,24,1,1,1,4,0,21,7,Lc,0.39458333333333334,0.02,0.01,0.01
1,5,9,0,2,0.21000000000000005,2,3,60,50,59,26,0.4800000000000001,0.08,0.13999999999999999,0.38000000000000017,3,1,1,2,4,1,1,2,4,0.5,29,7,Lc,0.12000000000000002,0.08,0.13999999999999999,0.19000000000000006
1,5,10,0,5,0.23000000000000007,2,5,45,40,4,100,0.6000000000000002,0.11999999999999998,0.09,0.20000000000000004,3,1,1,2,6,1,1,3,5,0,18,7,Lc,0.10000000000000003,0.11999999999999998,0.09,0.06666666666666667
1,6,11,0,2,0.23000000000000007,2,4,10,55,53,6,0.6700000000000003,0.10999999999999999,0.09999999999999999,0.07,3,1,1,1,5,1,1,1,4,0,20,7,Lc,0.13400000000000004,0.10999999999999999,0.09999999999999999,0.07
1,6,12,0,7,0.20000000000000004,2,3,99,88,38,106,0.6000000000000002,1.5100000000000011,0.01,0.18000000000000002,3,2,1,2,4,2,1,2,6,0,12,7,Lc,0.15000000000000005,0.7550000000000006,0.01,0.09
1,7,13,1,10,0.2700000000000001,4,5,85,91,46,41,0.6300000000000002,0.16,0.16,0.22000000000000006,5,1,1,1,6,1,1,1,3,0,16,7,Lc,0.10500000000000002,0.16,0.16,0.22000000000000006
1,7,14,1,6,0.26000000000000006,2,4,8,73,51,5,0.5200000000000001,0.45000000000000023,0.04,0.07,3,2,1,1,5,2,1,1,6,0,19,7,Lc,0.10400000000000001,0.22500000000000006,0.04,0.07
1,8,15,1,3,0.20000000000000004,2,3,32,13,75,23,0.4900000000000001,0.3300000000000001,0.05,0.20000000000000004,4,1,1,1,5,1,1,1,5,0,20,7,Lc,0.098,0.3300000000000001,0.05,0.20000000000000004
1,8,16,1,4,0.19000000000000003,1,2,102,50,103,97,0.5300000000000001,0.16,0.08,0.07,3,1,1,1,4,1,1,1,2,0.5,16,7,Lc,0.1325,0.16,0.08,0.07
1,9,17,1,8,0.21000000000000005,2,3,109,21,19,76,0.6400000000000002,0.16,0.08,0.07,4,1,1,1,5,1,1,1,2,0,17,7,Lc,0.128,0.16,0.08,0.07
1,9,18,1,2,0.2700000000000001,3,4,57,33,8,4,0.8300000000000003,1.1600000000000008,0.01,0.11999999999999998,5,3,1,2,8,3,1,2,4,0,21,7,Lc,0.10375000000000001,0.3866666666666669,0.01,0.05999999999999999
1,10,19,1,9,0.17,2,2,2,78,65,111,15.649999999999714,0.01,0.01,0.01,20,1,1,1,38,1,1,1,4,0,15,7,Lc,0.4118421052631581,0.01,0.01,0.01
1,10,20,1,10,0.17,2,3,90,38,47,86,0.42000000000000004,0.5200000000000002,0.05,0.02,4,2,1,1,5,4,1,1,3,0,16,7,Lc,0.084,0.13,0.05,0.02
1,11,21,1,4,0.5400000000000003,2,3,106,60,81,75,0.7800000000000004,0.20000000000000004,0.09999999999999999,0.08,4,1,1,1,5,1,1,1,2,0,12,7,Lc,0.15600000000000006,0.20000000000000004,0.09999999999999999,0.08
1,11,22,1,5,0.23000000000000007,3,4,44,6,70,62,0.7500000000000003,24.210000000000985,0.01,0.060000000000000005,5,18,1,1,6,49,1,1,5,0,19,7,Lc,0.12500000000000006,0.4940816326530612,0.01,0.060000000000000005
1,12,23,1,2,0.10999999999999999,2,2,13,33,54,35,2.8499999999999854,1.6600000000000013,0.01,0.01,10,4,1,1,11,4,1,1,4,0,20,7,Lc,0.2590909090909092,0.41500000000000026,0.01,0.01
1,12,24,1,4,0.12999999999999998,3,3,1,39,104,66,2.9199999999999844,0.01,0.01,0.01,11,1,1,1,12,1,1,1,2,0,17,7,Lc,0.24333333333333343,0.01,0.01,0.01
1,13,25,1,4,0.23000000000000007,2,3,54,35,32,20,0.8300000000000004,0.09,0.08,0.02,4,1,1,1,6,1,1,1,2,0,20,7,Lc,0.13833333333333336,0.09,0.08,0.02
1,13,26,1,5,0.21000000000000005,2,4,111,8,95,112,0.7200000000000003,0.060000000000000005,0.35000000000000014,0.03,4,1,1,1,7,1,1,1,5,0,13,7,Lc,0.10285714285714288,0.060000000000000005,0.35000000000000014,0.03
1,14,27,1,6,0.2800000000000001,2,4,59,3,2,40,1.3100000000000007,0.2700000000000001,0.7500000000000004,2.859999999999983,7,2,5,2,10,2,5,2,6,0,21,7,Lc,0.13100000000000003,0.13500000000000004,0.15000000000000005,1.4299999999999917
1,14,28,1,8,0.2700000000000001,2,3,23,115,14,87,0.6200000000000002,0.08,0.20000000000000004,0.13999999999999999,3,1,2,2,4,1,4,3,2,0,17,7,Lc,0.15500000000000003,0.08,0.05,0.04666666666666667
1,15,29,1,8,0.37000000000000016,3,5,18,109,39,41,0.8800000000000003,0.10999999999999999,0.01,0.07,5,1,1,3,8,1,1,3,2,0,18,7,Lc,0.11000000000000001,0.10999999999999999,0.01,0.023333333333333334
1,15,30,1,9,0.23000000000000007,2,3,61,67,106,32,0.4800000000000001,0.20000000000000004,0.48000000000000026,0.02,4,1,2,1,5,1,2,1,4,0,15,7,Lc,0.096,0.20000000000000004,0.24000000000000013,0.02
1,16,31,1,10,0.23000000000000007,2,3,87,15,68,91,0.4500000000000001,0.2800000000000001,0.15,0.03,4,1,1,1,5,1,1,1,3,0,16,7,Lc,0.09000000000000001,0.2800000000000001,0.15,0.03
1,16,32,1,8,0.4000000000000002,2,3,115,55,50,80,0.8600000000000004,0.4400000000000002,0.13999999999999999,0.01,4,2,1,1,5,2,1,1,2,0,13,7,Lc,0.17200000000000004,0.22000000000000003,0.13999999999999999,0.01
1,17,33,1,6,0.2700000000000001,3,5,41,6,1,4,0.6100000000000002,0.09999999999999999,4.379999999999951,0.01,4,1,8,1,6,1,9,1,6,0.5,41,7,Lc,0.1016666666666667,0.09999999999999999,0.48666666666666697,0.01
1,17,34,1,9,0.20000000000000004,2,3,64,22,120,15,0.5500000000000002,0.38000000000000017,0.03,0.08,4,2,1,1,5,3,1,1,4,0,18,7,Lc,0.11000000000000001,0.12666666666666668,0.03,0.08
1,18,35,1,2,0.22000000000000006,2,3,16,44,55,45,4.17999999999996,0.01,0.01,0.01,9,1,1,1,14,1,1,1,4,0,20,7,Lc,0.2985714285714287,0.01,0.01,0.01
1,18,36,1,8,0.2800000000000001,2,3,114,117,94,110,0.5600000000000002,0.5400000000000003,0.7100000000000004,0.02,4,2,2,1,5,2,3,1,2,0.5,15,7,Lc,0.11200000000000002,0.27000000000000013,0.23666666666666675,0.02
1,19,37,1,4,0.20000000000000004,2,3,105,100,16,103,0.4900000000000001,0.05,0.23000000000000007,0.03,3,1,1,1,4,1,1,1,2,0.5,18,7,Lc,0.12250000000000003,0.05,0.23000000000000007,0.03
1,19,38,1,8,0.22000000000000006,2,4,11,72,91,119,0.8100000000000004,1.8600000000000014,0.01,0.01,4,2,1,1,6,3,1,1,2,0,15,7,Lc,0.13500000000000004,0.6200000000000004,0.01,0.01
1,20,39,1,8,0.24000000000000007,2,3,111,44,53,79,0.6700000000000003,0.17,0.04,0.34000000000000014,4,2,1,1,7,2,1,1,2,0,14,7,Lc,0.09571428571428572,0.08499999999999999,0.04,0.34000000000000014
1,20,40,1,9,0.22000000000000006,2,7,27,91,8,65,1.2600000000000007,0.01,0.17,0.01,7,1,1,1,12,1,1,1,4,0,18,7,Lc,0.10500000000000002,0.01,0.17,0.01
1,21,41,1,4,0.35000000000000014,3,5,30,105,31,104,1.0700000000000005,0.02,0.16,0.21000000000000005,6,1,2,2,8,1,2,2,2,0,14,7,Lc,0.13375,0.02,0.07999999999999999,0.10500000000000002
1,21,42,1,2,0.21000000000000005,2,3,59,49,117,45,0.5800000000000002,0.08,0.09,0.2800000000000001,3,1,1,3,4,1,1,3,4,0,15,7,Lc,0.14500000000000005,0.08,0.09,0.09333333333333334
1,22,43,1,7,0.9000000000000006,3,5,57,80,56,77,1.2700000000000007,0.22000000000000006,0.060000000000000005,0.09999999999999999,4,1,1,1,6,1,1,1,6,0,14,7,Lc,0.21166666666666678,0.22000000000000006,0.060000000000000005,0.09999999999999999
1,22,44,1,9,1.7900000000000014,7,9,30,91,102,98,2.4200000000000017,0.15,0.01,0.03,9,1,1,1,11,1,1,1,4,0,12,7,Lc,0.2200000000000001,0.15,0.01,0.03
2,1,1,0,9,0.3300000000000001,2,3,29,120,115,14,2.819999999999991,0.37000000000000016,0.15,0.5000000000000002,5,2,1,2,6,3,1,2,4,0,15,7,Lc,0.47000000000000025,0.12333333333333335,0.15,0.2500000000000001
2,1,2,0,4,0.20000000000000004,2,2,3,108,78,99,47.84999999999909,0.6300000000000003,0.02,0.01,20,2,1,1,59,2,1,1,2,0,13,7,Lc,0.8110169491525421,0.31500000000000017,0.02,0.01
2,2,3,0,4,0.20000000000000004,2,3,106,8,28,35,1.700000000000001,1.7400000000000013,0.09,0.09,4,3,1,1,7,3,1,1,2,0,18,7,Lc,0.24285714285714294,0.5800000000000003,0.09,0.09
2,2,4,0,7,0.2700000000000001,2,3,13,76,46,37,1.9800000000000013,0.5600000000000003,0.8300000000000005,0.38000000000000017,6,1,1,1,7,1,1,1,6,0,19,7,Lc,0.282857142857143,0.5600000000000003,0.8300000000000005,0.38000000000000017
2,3,5,0,9,0.4400000000000002,3,4,71,40,68,37,1.3700000000000008,1.5400000000000011,2.6099999999999883,1.0700000000000007,4,4,5,2,5,5,6,2,4,0,18,7,Lc,0.27400000000000013,0.30800000000000016,0.4350000000000002,0.5350000000000004
2,3,6,0,3,0.4000000000000002,2,3,27,50,55,60,1.710000000000001,0.8900000000000006,1.360000000000001,0.13999999999999999,4,2,3,1,7,2,3,1,5,0.5,29,7,Lc,0.24428571428571436,0.4450000000000002,0.4533333333333336,0.13999999999999999
2,4,7,0,2,0.35000000000000014,2,4,100,22,24,18,2.9599999999999884,0.3900000000000002,0.24000000000000007,0.09999999999999999,5,1,2,1,8,1,3,1,4,0.5,38,7,Lc,0.3700000000000002,0.3900000000000002,0.08,0.09999999999999999
2,4,8,0,9,0.3900000000000002,2,3,62,63,29,33,3.38999999999998,0.05,0.12999999999999998,0.19000000000000003,6,1,1,2,8,1,1,3,4,0,18,7,Lc,0.4237499999999999,0.05,0.12999999999999998,0.06333333333333332
2,5,9,0,9,0.22000000000000006,2,3,20,97,13,62,1.0300000000000005,1.7000000000000013,0.10999999999999999,0.9900000000000007,3,3,1,4,4,3,1,5,4,0,18,7,Lc,0.2575000000000001,0.566666666666667,0.10999999999999999,0.19800000000000006
2,5,10,0,6,0.26000000000000006,3,4,8,3,39,10,0.9600000000000004,11.079999999999808,0.03,14.75999999999973,4,8,1,12,5,15,1,19,6,0.5,41,7,Lc,0.1920000000000001,0.7386666666666648,0.03,0.7768421052631583
2,6,11,0,3,0.4400000000000002,3,4,26,19,105,15,1.0700000000000005,1.1900000000000008,0.35000000000000014,1.310000000000001,4,2,1,3,5,3,1,3,5,0,19,7,Lc,0.21400000000000008,0.39666666666666683,0.35000000000000014,0.4366666666666669
2,6,12,0,5,0.22000000000000006,2,3,46,11,113,7,1.740000000000001,0.8100000000000005,1.2000000000000008,1.8800000000000014,5,2,2,3,7,2,3,4,5,0,19,7,Lc,0.24857142857142867,0.4050000000000002,0.4000000000000002,0.47000000000000025
2,7,13,1,2,0.7100000000000004,3,4,55,1,31,58,1.4300000000000008,1.1200000000000008,0.17,0.15,5,3,1,1,6,4,1,1,4,0,19,7,Lc,0.23833333333333345,0.28000000000000014,0.17,0.15
2,7,14,1,1,0.3100000000000001,2,4,80,69,81,14,1.4500000000000008,1.1200000000000008,0.19000000000000003,0.3000000000000001,5,2,2,2,8,2,3,2,3,0,16,7,Lc,0.18125000000000005,0.5600000000000003,0.06333333333333334,0.15000000000000005
2,8,15,1,6,0.6000000000000003,3,5,1,92,56,58,2.3400000000000016,1.1900000000000008,0.09999999999999999,0.16,7,2,1,1,9,2,1,1,6,0,17,7,Lc,0.2600000000000001,0.5950000000000003,0.09999999999999999,0.16
2,8,16,1,3,1.370000000000001,3,4,74,81,26,67,5.039999999999967,0.2700000000000001,2.1299999999999986,0.4100000000000002,5,2,5,2,6,2,5,2,5,0,15,7,Lc,0.8399999999999946,0.13500000000000004,0.42600000000000027,0.20500000000000007
2,9,17,1,10,0.2900000000000001,4,4,72,70,107,104,7.2799999999998954,1.6100000000000012,0.6200000000000003,0.01,15,3,3,1,19,4,3,1,3,0,12,7,Lc,0.3831578947368422,0.40250000000000025,0.20666666666666675,0.01
2,9,18,1,2,0.3100000000000001,2,3,57,30,80,83,2.1600000000000015,0.3000000000000001,0.4400000000000002,0.21000000000000005,6,1,1,1,7,1,1,1,4,0,15,7,Lc,0.3085714285714287,0.3000000000000001,0.4400000000000002,0.21000000000000005
2,10,19,1,4,0.7500000000000004,2,3,106,103,38,66,2.730000000000002,5.599999999999925,0.7900000000000005,0.04,5,3,2,1,6,4,2,1,2,0,13,7,Lc,0.45500000000000024,1.3999999999999964,0.39500000000000024,0.04
2,10,20,1,1,0.2800000000000001,2,3,8,33,78,56,2.1100000000000017,0.7900000000000005,0.2700000000000001,0.11999999999999998,4,2,2,1,6,2,2,1,3,0,18,7,Lc,0.35166666666666685,0.3950000000000002,0.13499999999999998,0.11999999999999998
2,11,21,1,3,0.15,2,2,2,89,9,5,35.87000000000146,0.01,0.01,0.01,20,1,1,1,45,1,1,1,5,0.5,39,7,Lc,0.7971111111111102,0.01,0.01,0.01
2,11,22,1,5,0.16,1,2,43,64,42,71,2.6699999999999906,0.4200000000000002,0.13999999999999999,0.19000000000000003,5,2,3,1,6,3,3,1,5,0,18,7,Lc,0.44500000000000023,0.14000000000000004,0.04666666666666667,0.19000000000000003
2,12,23,1,3,0.2700000000000001,2,3,25,68,27,102,2.1500000000000017,2.719999999999986,0.01,2.1399999999999983,7,5,1,2,9,5,1,2,5,0,16,7,Lc,0.23888888888888898,0.5440000000000004,0.01,1.0699999999999994
2,12,24,1,2,0.36000000000000015,2,3,49,43,50,48,1.3700000000000008,1.340000000000001,3.1599999999999766,0.01,5,3,4,1,6,3,4,1,4,0,18,7,Lc,0.22833333333333342,0.4466666666666669,0.7900000000000006,0.01
2,13,25,1,7,0.21000000000000005,2,4,17,15,16,69,1.0300000000000005,2.7499999999999853,0.04,0.4000000000000002,4,5,1,1,7,6,1,1,6,0.5,40,7,Lc,0.1471428571428572,0.4583333333333336,0.04,0.4000000000000002
2,13,26,1,10,0.36000000000000015,2,3,95,94,42,56,1.8600000000000012,2.2199999999999966,0.04,0.03,5,4,1,1,9,4,1,1,3,0,15,7,Lc,0.20666666666666675,0.5550000000000004,0.04,0.03
2,14,27,1,7,0.26000000000000006,2,3,23,13,117,53,0.9900000000000004,2.159999999999998,1.1000000000000008,0.07,4,2,2,1,5,3,2,1,6,0,18,7,Lc,0.1980000000000001,0.7200000000000005,0.5500000000000004,0.07
2,14,28,1,10,0.6000000000000003,2,3,46,87,91,7,2.1400000000000015,0.8200000000000005,0.35000000000000014,0.38000000000000017,4,1,1,1,6,1,1,1,3,0,17,7,Lc,0.35666666666666685,0.8200000000000005,0.35000000000000014,0.38000000000000017
2,15,29,1,4,0.4000000000000002,3,4,101,47,43,54,2.0300000000000016,0.36000000000000015,0.25000000000000006,0.3300000000000001,6,1,1,1,9,1,1,1,2,0,16,7,Lc,0.22555555555555565,0.36000000000000015,0.25000000000000006,0.3300000000000001
2,15,30,1,3,0.38000000000000017,1,2,34,63,27,25,2.330000000000002,0.7900000000000005,0.16,0.08,3,1,1,1,5,1,1,1,5,0.5,34,7,Lc,0.46600000000000025,0.7900000000000005,0.16,0.08
2,16,31,1,10,0.45000000000000023,2,3,88,95,59,24,1.690000000000001,0.5300000000000002,0.8200000000000005,0.4200000000000002,4,1,2,1,5,1,2,1,3,0,16,7,Lc,0.33800000000000013,0.5300000000000002,0.41000000000000014,0.4200000000000002
2,16,32,1,1,0.4000000000000002,2,3,44,74,3,41,2.1500000000000017,0.8100000000000005,1.1000000000000008,0.09,6,1,4,1,7,1,4,1,3,0,19,7,Lc,0.3071428571428573,0.8100000000000005,0.2750000000000001,0.09
2,17,33,1,8,0.46000000000000024,2,3,85,38,15,44,2.0700000000000016,0.4100000000000002,0.3200000000000001,1.7700000000000014,5,1,2,3,6,1,2,3,2,0,19,7,Lc,0.34500000000000014,0.4100000000000002,0.16000000000000003,0.5900000000000003
2,17,34,1,9,1.2300000000000009,3,3,1,34,100,99,47.459999999999376,0.01,0.01,0.060000000000000005,20,1,1,1,58,1,1,1,4,0,15,7,Lc,0.8182758620689641,0.01,0.01,0.060000000000000005
2,18,35,1,6,0.19000000000000003,2,3,47,37,64,8,2.1300000000000017,0.5300000000000002,1.440000000000001,0.03,5,1,2,1,8,1,2,1,6,0,20,7,Lc,0.2662500000000001,0.5300000000000002,0.7200000000000004,0.03
2,18,36,1,3,0.25000000000000006,2,3,20,112,16,18,3.489999999999975,0.7800000000000005,0.02,0.04,7,2,1,1,10,2,1,1,5,0.5,38,7,Lc,0.3490000000000002,0.3900000000000002,0.02,0.04
2,19,37,1,5,0.21000000000000005,2,3,60,54,113,42,3.1299999999999817,0.47000000000000025,0.2700000000000001,0.5200000000000002,6,2,2,3,8,2,2,3,5,0,15,7,Lc,0.3912500000000002,0.23500000000000004,0.13500000000000004,0.17333333333333342
2,19,38,1,10,0.2900000000000001,2,3,67,97,68,25,3.619999999999973,4.399999999999951,0.01,0.01,7,4,1,1,11,4,1,1,3,0,15,7,Lc,0.3290909090909089,1.099999999999994,0.01,0.01
2,20,39,1,1,0.3900000000000002,2,3,80,77,78,26,2.0700000000000016,0.47000000000000025,3.0799999999999783,5.779999999999921,7,1,7,12,8,1,7,13,3,0.5,23,7,Lc,0.2587500000000001,0.47000000000000025,0.4400000000000002,0.4446153846153845
2,20,40,1,6,0.21000000000000005,2,3,62,39,114,2,2.2500000000000004,0.5900000000000003,0.17,0.4000000000000002,5,2,1,2,7,2,1,3,6,0,17,7,Lc,0.32142857142857156,0.2950000000000001,0.17,0.1333333333333334
2,21,41,1,10,0.11999999999999998,2,2,14,102,62,68,8.359999999999868,0.16,0.01,0.01,11,2,1,1,16,2,1,1,3,0,16,7,Lc,0.5224999999999995,0.07999999999999999,0.01,0.01
2,21,42,1,8,20.230000000000363,11,36,120,75,112,9,20.370000000000363,0.01,1.2200000000000009,2.579999999999989,13,1,4,4,38,1,4,5,2,0,13,7,Lc,0.536052631578947,0.01,0.30500000000000016,0.5160000000000003
3,1,1,0,5,0.35000000000000014,3,5,19,15,64,61,1.2200000000000006,0.17,0.24000000000000007,0.8500000000000005,7,1,1,3,10,1,1,3,5,0,20,7,Lc,0.12200000000000003,0.17,0.24000000000000007,0.28333333333333344
3,1,2,0,3,0.22000000000000006,2,3,33,28,54,111,0.8800000000000004,0.24000000000000007,0.13999999999999999,0.11999999999999998,5,1,1,1,7,1,1,1,5,0,16,7,Lc,0.12571428571428572,0.24000000000000007,0.13999999999999999,0.11999999999999998
3,2,3,0,10,0.19000000000000003,2,3,88,45,5,110,0.7500000000000003,0.9000000000000006,0.09,0.3000000000000001,4,4,1,2,6,4,1,2,3,0,16,7,Lc,0.12500000000000003,0.2250000000000001,0.09,0.15000000000000005
3,2,4,0,3,0.16,2,2,16,56,18,82,8.019999999999877,0.01,0.01,0.01,10,1,1,1,17,1,1,1,5,0,19,7,Lc,0.4717647058823523,0.01,0.01,0.01
3,3,5,0,9,0.23000000000000007,2,3,76,114,112,81,1.4100000000000008,0.10999999999999999,0.07,0.04,4,2,1,1,7,2,1,1,4,0,10,7,Lc,0.20142857142857148,0.05499999999999999,0.07,0.04
3,3,6,0,4,0.21000000000000005,2,3,59,14,54,56,0.9100000000000005,0.5300000000000002,0.2800000000000001,0.03,3,2,2,1,4,2,2,1,2,0.5,30,7,Lc,0.2275000000000001,0.2650000000000001,0.14000000000000004,0.03
3,4,7,0,9,0.3100000000000001,2,4,21,61,38,66,1.0000000000000004,0.22000000000000006,0.21000000000000005,0.09,4,1,1,1,7,1,1,1,4,0,19,7,Lc,0.1428571428571429,0.22000000000000006,0.21000000000000005,0.09
3,4,8,0,6,0.11999999999999998,2,3,34,9,51,103,1.1600000000000006,1.0300000000000007,0.18000000000000002,0.09,5,2,2,1,6,2,2,1,6,0,17,7,Lc,0.1933333333333334,0.5150000000000003,0.09,0.09
3,5,9,0,10,0.3200000000000001,4,6,105,16,20,70,1.3700000000000008,0.09999999999999999,0.10999999999999999,0.05,6,1,1,1,10,1,1,1,3,0,18,7,Lc,0.13700000000000004,0.09999999999999999,0.10999999999999999,0.05
3,5,10,0,8,0.18000000000000002,2,3,112,57,38,115,1.0300000000000005,0.17,0.16,2.0899999999999994,6,1,1,2,9,1,1,2,2,0,13,7,Lc,0.11444444444444446,0.17,0.16,1.0449999999999997
3,6,11,0,4,0.22000000000000006,2,3,97,102,99,1,0.9800000000000005,0.16,0.15,9.319999999999846,4,1,2,10,6,1,2,14,2,0.5,18,7,Lc,0.16333333333333339,0.16,0.075,0.6657142857142856
3,6,12,0,7,0.23000000000000007,2,5,15,16,118,37,2.8799999999999875,16.009999999999703,0.01,0.02,8,16,1,1,15,38,1,1,6,0,19,7,Lc,0.19200000000000006,0.4213157894736844,0.01,0.02
3,7,13,1,10,0.10999999999999999,1,2,39,22,102,100,1.2100000000000009,0.12999999999999998,1.340000000000001,0.01,4,1,2,1,7,1,2,1,3,0,15,7,Lc,0.1728571428571429,0.12999999999999998,0.6700000000000005,0.01
3,7,14,1,3,0.4400000000000002,2,4,119,31,109,77,1.3100000000000007,0.16,0.38000000000000017,0.04,5,1,2,1,8,1,2,1,5,0,12,7,Lc,0.16375000000000003,0.16,0.19000000000000006,0.04
3,8,15,1,1,0.25000000000000006,2,3,63,21,74,19,1.2400000000000007,0.16,0.07,0.060000000000000005,5,2,1,1,8,2,1,1,3,0,19,7,Lc,0.15500000000000003,0.07999999999999999,0.07,0.060000000000000005
3,8,16,1,6,0.3900000000000002,3,4,38,11,1,56,0.9200000000000004,0.37000000000000016,0.3300000000000001,0.7800000000000005,4,1,2,2,5,1,2,2,6,0,21,7,Lc,0.18400000000000005,0.37000000000000016,0.16500000000000004,0.39000000000000024
3,9,17,1,10,0.20000000000000004,2,3,29,32,20,67,1.3000000000000007,0.25000000000000006,0.04,0.24000000000000007,6,1,1,1,8,1,1,1,3,0,20,7,Lc,0.16250000000000006,0.25000000000000006,0.04,0.24000000000000007
3,9,18,1,2,0.4200000000000002,2,3,54,98,82,108,2.2100000000000017,0.4400000000000002,0.10999999999999999,0.01,6,3,2,1,7,3,2,1,4,0,11,7,Lc,0.3157142857142859,0.14666666666666672,0.05499999999999999,0.01
3,10,19,1,4,0.4000000000000002,3,4,107,47,73,108,1.0100000000000005,0.24000000000000007,0.5000000000000002,0.060000000000000005,5,1,2,1,6,1,2,1,2,0,12,7,Lc,0.1683333333333334,0.24000000000000007,0.25000000000000006,0.060000000000000005
3,10,20,1,8,0.24000000000000007,2,3,118,94,88,92,0.7800000000000004,1.300000000000001,0.060000000000000005,0.03,4,6,1,1,5,6,1,1,2,0.5,20,7,Lc,0.15600000000000006,0.21666666666666673,0.060000000000000005,0.03
3,11,21,1,2,0.34000000000000014,2,3,42,56,53,51,1.0100000000000005,0.4000000000000002,2.209999999999997,1.1700000000000008,3,2,4,4,4,2,4,4,4,0.5,29,7,Lc,0.2525000000000001,0.2,0.5525000000000003,0.29250000000000015
3,11,22,1,9,0.17,2,3,34,17,82,84,1.1600000000000006,1.2400000000000009,0.18000000000000002,0.01,4,1,2,1,6,1,2,1,4,0,17,7,Lc,0.1933333333333334,1.2400000000000009,0.09000000000000001,0.01
3,12,23,1,5,0.21000000000000005,3,4,45,110,9,60,0.8600000000000004,0.16,0.6200000000000003,0.10999999999999999,5,1,2,1,6,1,2,1,5,0,17,7,Lc,0.14333333333333337,0.16,0.3100000000000001,0.10999999999999999
3,12,24,1,3,0.3200000000000001,2,4,27,36,18,67,0.8400000000000003,0.37000000000000016,0.13999999999999999,0.09,3,1,2,1,5,1,2,1,5,0,20,7,Lc,0.16800000000000004,0.37000000000000016,0.06999999999999999,0.09
3,13,25,1,10,0.19000000000000003,2,3,89,107,50,106,0.7800000000000004,0.5100000000000002,0.26000000000000006,0.03,4,2,2,1,6,2,4,1,3,0,11,7,Lc,0.13000000000000003,0.25500000000000006,0.06499999999999999,0.03
3,13,26,1,9,0.24000000000000007,2,3,66,81,26,13,0.9700000000000005,0.36000000000000015,0.07,0.07,3,1,1,1,4,1,1,1,4,0,18,7,Lc,0.2425000000000001,0.36000000000000015,0.07,0.07
3,14,27,1,1,0.3200000000000001,5,6,22,27,14,73,0.9600000000000004,0.34000000000000014,0.09999999999999999,0.09999999999999999,6,1,1,1,7,1,1,1,3,0,20,7,Lc,0.1371428571428572,0.34000000000000014,0.09999999999999999,0.09999999999999999
3,14,28,1,4,0.2700000000000001,2,4,103,104,86,97,0.9500000000000004,0.17,0.2800000000000001,0.05,4,1,1,1,7,1,1,1,2,0.5,15,7,Lc,0.13571428571428576,0.17,0.2800000000000001,0.05
3,15,29,1,4,0.23000000000000007,2,3,70,72,65,88,1.0700000000000005,0.16,0.13999999999999999,0.3200000000000001,4,1,1,2,5,1,1,2,2,0.5,27,7,Lc,0.21400000000000008,0.16,0.13999999999999999,0.16000000000000006
3,15,30,1,3,0.24000000000000007,2,4,50,82,13,32,0.9100000000000005,1.8600000000000014,0.01,0.01,3,3,1,1,5,4,1,1,5,0,18,7,Lc,0.18200000000000008,0.46500000000000025,0.01,0.01
3,16,31,1,9,0.3100000000000001,2,3,63,72,7,34,0.9000000000000004,0.48000000000000026,0.6600000000000004,0.01,4,3,3,1,5,3,3,1,4,0,19,7,Lc,0.18000000000000005,0.16000000000000003,0.2200000000000001,0.01
3,16,32,1,7,0.25000000000000006,2,4,13,55,116,39,10.26999999999983,0.01,0.09,0.02,14,1,1,1,20,1,1,1,6,0,17,7,Lc,0.5135000000000003,0.01,0.09,0.02
3,17,33,1,1,0.18000000000000002,2,4,42,77,22,101,1.2100000000000006,0.09,0.26000000000000006,0.09999999999999999,6,1,1,1,8,1,1,1,3,0,16,7,Lc,0.15125000000000005,0.09,0.26000000000000006,0.09999999999999999
3,17,34,1,3,0.18000000000000002,2,3,28,30,8,92,0.7300000000000003,0.4200000000000002,0.13999999999999999,0.11999999999999998,4,2,1,2,7,2,1,2,5,0,19,7,Lc,0.1042857142857143,0.21000000000000005,0.13999999999999999,0.060000000000000005
3,18,35,1,4,0.23000000000000007,3,4,84,40,23,66,1.2100000000000006,0.20000000000000004,0.34000000000000014,0.09999999999999999,4,2,2,1,5,2,2,1,2,0,18,7,Lc,0.24200000000000013,0.1,0.17000000000000007,0.09999999999999999
3,18,36,1,8,0.20000000000000004,2,3,109,4,86,87,0.6200000000000002,0.5200000000000002,0.7300000000000004,0.01,4,1,2,1,5,1,2,1,2,0,14,7,Lc,0.12400000000000004,0.5200000000000002,0.3650000000000002,0.01
3,19,37,1,6,0.15,2,3,85,87,7,93,1.4100000000000008,0.18000000000000002,0.03,0.10999999999999999,4,1,1,1,5,1,1,1,6,0.5,24,7,Lc,0.28200000000000014,0.18000000000000002,0.03,0.10999999999999999
3,19,38,1,7,0.5400000000000003,3,7,61,66,15,13,1.4900000000000009,0.3200000000000001,0.17,1.2000000000000008,5,1,2,4,10,1,2,4,6,0,20,7,Lc,0.14900000000000005,0.3200000000000001,0.08499999999999999,0.3000000000000001
3,20,39,1,3,0.26000000000000006,2,3,70,3,35,2,1.0200000000000005,1.290000000000001,0.01,0.02,5,4,1,1,6,4,1,1,5,0,21,7,Lc,0.17000000000000004,0.3225000000000002,0.01,0.02
3,20,40,1,5,0.38000000000000017,1,3,93,14,86,16,2.0100000000000016,0.01,0.2700000000000001,0.01,3,1,2,1,5,1,2,1,5,0,18,7,Lc,0.4020000000000002,0.01,0.13500000000000004,0.01
3,21,41,1,8,0.18000000000000002,3,4,115,57,43,54,0.7600000000000003,0.2700000000000001,0.18000000000000002,0.07,5,1,1,1,7,1,1,1,2,0,15,7,Lc,0.1085714285714286,0.2700000000000001,0.18000000000000002,0.07
3,21,42,1,10,0.17,2,3,86,17,68,94,0.7100000000000003,0.2800000000000001,0.2700000000000001,0.060000000000000005,4,1,2,1,5,1,3,1,3,0,16,7,Lc,0.14200000000000004,0.2800000000000001,0.09000000000000001,0.060000000000000005
3,22,43,1,6,0.3100000000000001,2,3,39,6,48,86,1.0000000000000004,3.9099999999999606,2.9899999999999802,0.01,5,8,8,1,6,11,9,1,6,0,19,7,Lc,0.16666666666666669,0.35545454545454563,0.3322222222222224,0.01
3,22,44,1,9,0.11999999999999998,1,2,19,83,26,110,0.8300000000000004,0.4100000000000002,0.23000000000000007,0.07,2,2,2,1,3,2,3,1,4,0,16,7,Lc,0.2766666666666668,0.2050000000000001,0.07666666666666666,0.07
4,1,1,0,3,0.09,2,2,25,58,80,75,0.7100000000000003,0.16,0.2800000000000001,0.060000000000000005,4,1,3,2,7,1,5,3,5,0,15,7,Lc,0.10142857142857144,0.16,0.056,0.02
4,1,2,0,9,0.18000000000000002,2,6,68,103,100,72,0.9300000000000005,0.19000000000000003,0.04,0.09999999999999999,4,2,1,2,18,5,1,2,4,0,12,7,Lc,0.05166666666666667,0.038,0.04,0.049999999999999996
4,2,3,0,5,0.15,2,3,44,73,59,46,0.7300000000000003,0.34000000000000014,0.07,0.02,5,3,2,2,6,5,4,2,5,0,17,7,Lc,0.1216666666666667,0.068,0.0175,0.01
4,2,4,0,7,0.11999999999999998,2,4,19,18,62,34,0.6600000000000003,0.15,0.09,0.09999999999999999,4,2,1,2,10,2,2,3,6,0,21,7,Lc,0.066,0.07500000000000001,0.045,0.03333333333333333
4,3,5,0,7,0.23000000000000007,4,5,20,70,95,19,1.1200000000000006,0.2700000000000001,0.01,0.01,9,3,1,1,13,4,1,1,6,0,19,7,Lc,0.08615384615384616,0.06749999999999999,0.01,0.01
4,3,6,0,1,0.08,2,2,79,35,98,49,0.7900000000000004,0.45000000000000023,0.01,0.01,6,4,1,1,12,7,1,1,3,0,14,7,Lc,0.06583333333333333,0.06428571428571428,0.01,0.01
4,4,7,0,5,0.13999999999999999,3,4,42,39,64,81,0.6200000000000002,0.10999999999999999,0.45000000000000023,0.09,7,1,4,2,11,1,4,2,5,0,17,7,Lc,0.056363636363636366,0.10999999999999999,0.11250000000000002,0.045000000000000005
4,4,8,0,3,0.18000000000000002,2,4,28,91,90,59,0.7000000000000003,0.2800000000000001,0.060000000000000005,0.09999999999999999,5,3,1,2,10,4,1,2,5,0,15,7,Lc,0.07,0.06999999999999999,0.060000000000000005,0.05
4,5,9,0,9,0.20000000000000004,3,4,35,31,93,62,0.7500000000000003,0.19000000000000003,0.23000000000000007,0.03,5,4,2,2,9,4,3,2,4,0,17,7,Lc,0.08333333333333334,0.0475,0.07666666666666667,0.015
4,5,10,0,6,0.09999999999999999,2,2,8,81,84,60,2.0200000000000014,0.01,0.01,0.01,13,1,1,1,25,1,1,1,6,0,16,7,Lc,0.08080000000000001,0.01,0.01,0.01
4,6,11,0,3,0.2700000000000001,2,3,36,65,11,66,0.7100000000000003,0.15,0.15,0.08,6,2,1,2,9,2,1,3,5,0,19,7,Lc,0.0788888888888889,0.075,0.15,0.02666666666666667
4,6,12,0,4,0.12999999999999998,2,4,106,54,104,89,0.7900000000000004,0.16,0.07,0.4300000000000002,5,2,2,3,12,6,2,3,2,0,11,7,Lc,0.06583333333333334,0.02666666666666667,0.035,0.1433333333333334
4,7,13,1,6,0.09,2,3,1,44,12,8,0.5700000000000003,0.5400000000000003,0.02,0.09,5,4,1,2,7,5,1,2,6,0.5,41,7,Lc,0.08142857142857145,0.10800000000000001,0.02,0.045
4,7,14,1,7,0.11999999999999998,2,2,18,22,23,107,0.7400000000000003,0.9600000000000006,1.0700000000000007,0.01,5,4,5,1,12,4,6,1,6,0.5,38,7,Lc,0.06166666666666667,0.2400000000000001,0.1783333333333334,0.01
4,8,15,1,9,0.15,2,5,71,8,69,43,0.5900000000000002,0.5700000000000003,0.26000000000000006,0.01,4,3,4,1,7,5,4,1,4,0,19,7,Lc,0.0842857142857143,0.11400000000000002,0.06499999999999999,0.01
4,8,16,1,2,0.15,2,4,59,84,75,36,1.640000000000001,0.02,0.02,0.01,9,1,1,1,11,1,1,1,4,0,15,7,Lc,0.14909090909090914,0.02,0.02,0.01
4,9,17,1,10,0.09,2,3,85,93,67,87,0.7200000000000003,0.4300000000000002,0.25000000000000006,0.01,7,3,2,1,10,3,2,1,3,0.5,22,7,Lc,0.07200000000000001,0.1433333333333334,0.12500000000000003,0.01
4,9,18,1,4,0.13999999999999999,2,3,104,107,18,20,0.7700000000000004,1.7000000000000013,2.0000000000000013,0.04,5,9,13,1,7,10,18,1,2,0,16,7,Lc,0.11000000000000003,0.17000000000000004,0.11111111111111113,0.04
4,10,19,1,6,0.3300000000000001,2,3,4,74,102,82,0.9000000000000004,0.07,0.04,0.08,5,2,1,2,7,2,1,2,6,0,14,7,Lc,0.1285714285714286,0.035,0.04,0.04
4,10,20,1,10,0.18000000000000002,2,3,86,18,92,16,0.8900000000000005,0.47000000000000025,0.09999999999999999,0.060000000000000005,6,3,1,1,10,4,1,1,3,0,18,7,Lc,0.08900000000000001,0.11750000000000002,0.09999999999999999,0.060000000000000005
4,11,21,1,3,0.2900000000000001,7,8,29,36,92,33,0.8900000000000003,0.10999999999999999,0.17,0.02,9,1,4,1,15,1,4,1,5,0.5,33,7,Lc,0.059333333333333335,0.10999999999999999,0.0425,0.02
4,11,22,1,4,0.09999999999999999,2,3,82,46,98,80,0.5600000000000003,0.6800000000000004,0.01,0.10999999999999999,5,7,1,2,9,8,1,2,2,0,13,7,Lc,0.06222222222222223,0.085,0.01,0.055
4,12,23,1,4,2.909999999999982,13,35,101,102,47,17,3.159999999999982,0.13999999999999999,0.07,0.19000000000000003,16,2,1,3,39,2,1,3,2,0,15,7,Lc,0.08102564102564104,0.06999999999999999,0.07,0.06333333333333334
4,12,24,1,3,0.12999999999999998,2,3,2,34,84,55,8.739999999999862,0.01,0.01,0.01,20,1,1,1,76,1,1,1,5,0,18,7,Lc,0.11500000000000002,0.01,0.01,0.01
4,13,25,1,9,0.060000000000000005,2,3,72,62,40,70,0.32000000000000006,0.36000000000000015,0.10999999999999999,0.15,4,3,1,2,5,3,1,2,4,0.5,29,7,Lc,0.06400000000000002,0.12000000000000002,0.10999999999999999,0.07499999999999998
4,13,26,1,2,0.17,2,3,73,99,28,57,0.9800000000000005,0.16,0.02,0.03,8,2,1,1,14,2,1,1,4,0,14,7,Lc,0.07,0.07999999999999999,0.02,0.03
4,14,27,1,10,0.08,2,4,41,64,63,61,0.8500000000000004,0.060000000000000005,0.4200000000000002,0.02,8,2,3,2,12,2,3,2,3,0.5,29,7,Lc,0.07083333333333335,0.03,0.14,0.01
4,14,28,1,4,0.3200000000000001,7,8,104,51,17,84,0.7200000000000003,0.4200000000000002,0.37000000000000016,0.09999999999999999,9,4,3,1,16,7,5,1,2,0,15,7,Lc,0.045,0.060000000000000005,0.07400000000000001,0.09999999999999999
4,15,29,1,2,0.2700000000000001,2,5,46,57,42,41,0.8900000000000003,0.5400000000000003,0.02,0.11999999999999998,7,4,1,2,16,4,1,2,4,0.5,34,7,Lc,0.055625,0.13500000000000004,0.02,0.05999999999999999
4,15,30,1,9,0.09999999999999999,3,3,62,66,100,15,0.39000000000000007,0.17,0.7700000000000005,0.4200000000000002,5,2,5,2,5,3,5,2,4,0,16,7,Lc,0.07800000000000001,0.05666666666666666,0.15400000000000005,0.2100000000000001
4,16,31,1,5,0.22000000000000006,2,3,45,104,51,56,1.0100000000000005,0.19000000000000003,0.4100000000000002,0.05,6,2,3,2,8,2,3,2,5,0,15,7,Lc,0.12625,0.095,0.13666666666666671,0.025
4,16,32,1,3,0.060000000000000005,2,3,34,64,26,29,0.8400000000000005,0.3300000000000001,0.01,0.01,7,5,1,1,11,5,1,1,5,0.5,34,7,Lc,0.07636363636363637,0.06600000000000002,0.01,0.01
4,17,33,1,10,0.09,2,3,92,28,96,54,0.6500000000000002,0.2800000000000001,0.03,0.20000000000000004,5,3,1,3,11,5,1,3,3,0,15,7,Lc,0.05909090909090909,0.056,0.03,0.06666666666666667
4,17,34,1,9,0.15,2,4,69,66,1,8,1.0500000000000005,0.24000000000000007,0.01,0.03,7,3,1,1,10,3,1,1,4,0,20,7,Lc,0.10500000000000001,0.08,0.01,0.03
4,18,35,1,9,0.04,2,2,72,63,91,93,0.5900000000000003,0.09,0.060000000000000005,0.10999999999999999,6,2,1,2,9,2,1,2,4,0,14,7,Lc,0.06555555555555556,0.045000000000000005,0.060000000000000005,0.055
4,18,36,1,2,0.19000000000000003,3,4,59,2,52,12,0.6500000000000002,0.2800000000000001,0.04,0.3000000000000001,5,4,1,5,9,6,1,5,4,0,20,7,Lc,0.07222222222222223,0.04666666666666666,0.04,0.06
4,19,37,1,3,0.07,1,2,36,97,79,84,0.6200000000000003,0.2700000000000001,0.08,0.19000000000000003,4,2,1,4,11,2,1,5,5,0,13,7,Lc,0.056363636363636366,0.135,0.08,0.038
4,19,38,1,5,0.11999999999999998,2,3,1,41,91,63,18.880000000000134,0.13999999999999999,0.01,0.01,20,2,1,1,168,2,1,1,5,0,18,7,Lc,0.1123809523809524,0.06999999999999999,0.01,0.01
4,20,39,1,1,0.38000000000000017,3,6,63,78,81,68,1.1100000000000005,0.18000000000000002,0.20000000000000004,0.01,8,2,5,1,13,2,5,1,3,0,14,7,Lc,0.08538461538461538,0.09,0.04,0.01
4,20,40,1,8,0.11999999999999998,2,4,111,39,120,96,0.7200000000000003,0.07,0.12999999999999998,0.2700000000000001,6,1,2,2,12,1,2,2,2,0,12,7,Lc,0.06,0.07,0.065,0.13500000000000004
4,21,41,1,6,0.18000000000000002,3,5,117,83,2,112,0.7500000000000003,0.19000000000000003,0.04,0.21000000000000005,7,2,1,3,11,2,1,3,6,0,13,7,Lc,0.06818181818181818,0.095,0.04,0.06999999999999999
4,21,42,1,7,0.19000000000000003,4,5,41,89,46,22,0.8300000000000004,0.20000000000000004,0.04,0.03,8,2,1,1,10,2,1,1,6,0,19,7,Lc,0.083,0.09999999999999999,0.04,0.03
4,22,43,1,5,0.21000000000000005,2,4,66,44,84,98,0.9300000000000005,0.13999999999999999,0.04,0.08,5,2,1,1,8,3,1,1,5,0,14,7,Lc,0.11625000000000002,0.04666666666666666,0.04,0.08
4,22,44,1,6,0.16,2,4,11,8,95,110,1.0500000000000005,0.4100000000000002,0.24000000000000007,0.01,10,4,2,1,14,6,3,1,6,0,17,7,Lc,0.07500000000000001,0.06833333333333334,0.08,0.01
5,1,1,0,8,0.13999999999999999,1,2,117,32,88,86,0.26999999999999996,0.23000000000000007,0.6800000000000004,0.01,3,1,2,1,4,1,2,1,2,0,13,7,Lc,0.0675,0.23000000000000007,0.34000000000000014,0.01
5,1,2,0,1,0.12999999999999998,1,2,84,99,42,40,0.3,0.19000000000000003,0.04,0.04,3,3,1,1,4,4,1,1,3,0,15,7,Lc,0.075,0.047499999999999994,0.04,0.04
5,2,3,0,1,0.17,2,3,77,71,62,101,0.32,0.5900000000000003,1.0500000000000007,0.04,4,3,2,1,5,3,2,1,3,0,13,7,Lc,0.064,0.19666666666666674,0.5250000000000004,0.04
5,2,4,0,2,0.15,2,3,48,16,93,96,0.5200000000000001,0.26000000000000006,0.01,0.05,4,2,1,1,5,2,1,1,4,0,17,7,Lc,0.10400000000000001,0.13000000000000003,0.01,0.05
5,3,5,0,10,0.17,2,4,89,117,38,91,0.4000000000000001,0.12999999999999998,0.060000000000000005,0.03,4,1,1,1,6,1,1,1,3,0,13,7,Lc,0.06666666666666668,0.12999999999999998,0.060000000000000005,0.03
5,3,6,0,1,0.15,2,3,56,97,77,25,0.4,0.060000000000000005,0.02,0.09,3,1,1,1,4,1,1,1,3,0,14,7,Lc,0.10000000000000002,0.060000000000000005,0.02,0.09
5,4,7,0,3,0.19000000000000003,2,4,96,4,10,109,0.37000000000000005,0.34000000000000014,0.08,0.09999999999999999,3,2,1,2,5,3,1,2,5,0,17,7,Lc,0.07400000000000001,0.11333333333333334,0.08,0.05
5,4,8,0,4,0.23000000000000007,2,3,101,45,107,50,0.46000000000000013,0.08,0.10999999999999999,0.08,4,2,2,1,5,2,2,1,2,0,13,7,Lc,0.092,0.04,0.055,0.08
5,5,9,0,6,0.15,2,3,2,1,91,9,0.22999999999999998,15.349999999999717,0.01,0.01,4,16,1,1,5,29,1,1,6,0.5,39,7,Lc,0.046,0.5293103448275864,0.01,0.01
5,5,10,0,4,0.2900000000000001,14,14,39,18,15,97,1.9100000000000013,2.4099999999999926,0.8800000000000006,0.13999999999999999,18,5,4,1,19,6,4,1,2,0,19,7,Lc,0.10052631578947373,0.40166666666666684,0.2200000000000001,0.13999999999999999
5,6,11,0,7,0.13999999999999999,2,3,105,19,106,15,0.43000000000000005,0.11999999999999998,0.20000000000000004,0.01,3,2,1,1,4,2,1,1,6,0,16,7,Lc,0.10750000000000003,0.05999999999999999,0.20000000000000004,0.01
5,6,12,0,8,0.17,2,3,25,77,52,35,0.5000000000000001,0.9700000000000006,0.01,0.01,4,2,1,1,6,2,1,1,2,0,17,7,Lc,0.08333333333333333,0.4850000000000003,0.01,0.01
5,7,13,1,8,0.15,1,2,48,119,109,111,0.5600000000000002,0.02,0.01,0.02,2,1,1,1,3,1,1,1,2,0.5,17,7,Lc,0.18666666666666673,0.02,0.01,0.02
5,7,14,1,7,0.12999999999999998,2,3,22,49,26,27,0.29,0.20000000000000004,0.03,0.07,4,2,1,1,5,2,1,1,6,0,20,7,Lc,0.058,0.09999999999999999,0.03,0.07
5,8,15,1,5,0.15,2,4,42,77,72,83,1.3600000000000008,0.03,0.01,0.01,4,1,1,1,6,1,1,1,5,0,15,7,Lc,0.2266666666666668,0.03,0.01,0.01
5,8,16,1,3,0.17,2,3,27,58,21,14,0.25,0.2700000000000001,0.03,0.05,3,2,1,1,4,2,1,1,5,0,21,7,Lc,0.0625,0.13500000000000004,0.03,0.05
5,9,17,1,3,0.19000000000000003,2,3,36,50,116,35,0.6900000000000003,0.01,1.1700000000000008,0.01,5,1,5,1,6,1,5,1,5,0,16,7,Lc,0.11500000000000002,0.01,0.23400000000000007,0.01
5,9,18,1,4,0.19000000000000003,2,3,66,17,80,84,0.4000000000000001,0.11999999999999998,0.04,0.03,3,2,1,1,4,2,1,1,2,0,16,7,Lc,0.10000000000000002,0.060000000000000005,0.04,0.03
5,10,19,1,6,0.16,2,3,12,90,111,9,0.29,0.13999999999999999,0.45000000000000023,0.01,4,1,2,1,5,1,2,1,6,0,17,7,Lc,0.058,0.13999999999999999,0.2250000000000001,0.01
5,10,20,1,1,1.8000000000000014,8,15,74,30,15,108,1.8900000000000015,0.11999999999999998,0.04,0.01,10,1,1,1,17,1,1,1,3,0,16,7,Lc,0.11117647058823532,0.11999999999999998,0.04,0.01
5,11,21,1,9,0.12999999999999998,2,3,70,33,97,104,0.18999999999999997,0.20000000000000004,0.4100000000000002,0.16,3,1,2,1,4,1,2,1,4,0,13,7,Lc,0.0475,0.20000000000000004,0.2050000000000001,0.16
5,11,22,1,5,3.4999999999999694,9,16,3,113,51,45,4.25999999999997,0.01,0.01,0.01,11,1,1,1,18,1,1,1,5,0,17,7,Lc,0.2366666666666668,0.01,0.01,0.01
5,12,23,1,5,0.15,2,3,42,48,10,7,0.32,0.15,0.02,0.04,3,2,1,1,4,2,1,1,5,0,22,7,Lc,0.08,0.075,0.02,0.04
5,12,24,1,10,0.17,2,3,115,31,93,16,0.4600000000000001,0.060000000000000005,2.899999999999982,2.5999999999999885,3,1,7,5,4,1,11,5,3,0,16,7,Lc,0.11500000000000002,0.060000000000000005,0.2636363636363638,0.5200000000000004
5,13,25,1,10,0.11999999999999998,2,3,91,102,93,100,3.649999999999969,2.0300000000000007,1.7700000000000014,1.7900000000000014,12,5,6,2,14,5,6,2,3,0,10,7,Lc,0.26071428571428584,0.4060000000000002,0.29500000000000015,0.8950000000000007
5,13,26,1,2,0.2700000000000001,2,3,120,8,115,60,0.4600000000000001,0.09999999999999999,0.6700000000000004,0.4300000000000002,3,1,3,1,4,1,3,1,4,0,14,7,Lc,0.11500000000000002,0.09999999999999999,0.2233333333333334,0.4300000000000002
5,14,27,1,2,0.13999999999999999,3,4,116,80,110,2,0.35000000000000003,0.13999999999999999,0.04,0.04,4,1,1,1,5,1,1,1,4,0,13,7,Lc,0.07,0.13999999999999999,0.04,0.04
5,14,28,1,7,0.11999999999999998,2,3,21,65,14,96,0.5400000000000001,0.01,0.01,0.07,4,1,1,1,5,1,1,1,6,0,19,7,Lc,0.10800000000000004,0.01,0.01,0.07
5,15,29,1,6,0.11999999999999998,2,3,3,2,95,68,0.19999999999999998,3.8099999999999627,0.08,0.02,4,10,1,1,5,12,1,1,6,0,19,7,Lc,0.04,0.31750000000000017,0.08,0.02
5,15,30,1,4,0.19000000000000003,3,4,102,31,97,13,0.36000000000000004,0.12999999999999998,0.060000000000000005,0.03,5,1,2,1,6,1,2,1,2,0,15,7,Lc,0.06,0.12999999999999998,0.03,0.03
5,16,31,1,3,0.19000000000000003,2,4,25,95,101,99,4.929999999999944,0.03,0.01,0.25000000000000006,13,1,1,2,16,1,1,2,5,0,12,7,Lc,0.30812500000000015,0.03,0.01,0.12500000000000003
5,16,32,1,1,0.17,2,3,110,62,118,72,0.43000000000000005,0.07,0.07,0.03,3,1,1,1,4,1,1,1,3,0,12,7,Lc,0.10750000000000001,0.07,0.07,0.03
5,17,33,1,9,0.15,2,3,19,110,63,69,0.8100000000000004,0.01,0.05,0.01,4,1,2,1,5,1,2,1,4,0,16,7,Lc,0.16200000000000006,0.01,0.025,0.01
5,17,34,1,5,2.06,9,11,40,12,56,50,2.07,0.12999999999999998,0.060000000000000005,1.370000000000001,10,1,1,3,12,1,1,3,5,0,19,7,Lc,0.17250000000000013,0.12999999999999998,0.060000000000000005,0.45666666666666694
5,18,35,1,8,0.21000000000000005,2,4,117,5,110,86,0.4300000000000001,1.2100000000000009,0.03,0.01,4,2,1,1,6,2,1,1,2,0,13,7,Lc,0.07166666666666667,0.6050000000000004,0.03,0.01
5,18,36,1,4,0.11999999999999998,2,5,97,104,18,84,0.22999999999999998,0.08,0.48000000000000026,0.01,3,1,2,1,6,1,2,1,2,0,13,7,Lc,0.03833333333333333,0.08,0.24000000000000013,0.01
5,19,37,1,7,0.09,2,2,14,94,21,86,0.40000000000000013,0.07,0.02,0.7600000000000005,4,2,1,2,5,2,1,2,6,0,18,7,Lc,0.07999999999999999,0.035,0.02,0.3800000000000002
5,19,38,1,4,0.34000000000000014,8,9,83,9,71,103,0.4400000000000001,0.12999999999999998,0.25000000000000006,0.02,9,1,1,2,10,1,1,2,2,0,15,7,Lc,0.044,0.12999999999999998,0.25000000000000006,0.01
5,20,39,1,4,0.2700000000000001,6,7,106,88,62,24,0.38000000000000006,0.10999999999999999,0.10999999999999999,1.8800000000000014,8,2,1,3,9,2,1,3,2,0,15,7,Lc,0.042222222222222223,0.05500000000000001,0.10999999999999999,0.6266666666666671
5,20,40,1,5,0.12999999999999998,1,2,37,8,83,118,0.20999999999999996,0.21000000000000005,0.17,0.02,2,2,1,1,3,2,1,1,5,0,16,7,Lc,0.07,0.105,0.17,0.02
5,21,41,1,2,0.24000000000000007,3,5,10,54,58,96,0.38000000000000006,0.04,0.060000000000000005,0.07,4,1,1,1,6,1,1,1,4,0,17,7,Lc,0.06333333333333332,0.04,0.060000000000000005,0.07
5,21,42,1,7,0.22000000000000006,2,4,47,13,20,19,1.2900000000000007,0.5500000000000003,0.4100000000000002,0.7000000000000004,4,2,3,3,6,3,3,4,6,0.5,41,7,Lc,0.2150000000000001,0.1833333333333334,0.13666666666666671,0.17500000000000004
5,22,43,1,2,0.20000000000000004,2,3,92,53,114,44,0.5900000000000002,0.04,0.5800000000000003,0.5800000000000003,4,1,4,2,5,1,4,2,4,0,14,7,Lc,0.11800000000000004,0.04,0.14500000000000005,0.29000000000000015
5,22,44,1,9,0.12999999999999998,2,3,36,71,81,13,0.24999999999999994,0.04,0.25000000000000006,0.04,3,1,1,1,4,1,1,1,4,0,18,7,Lc,0.0625,0.04,0.25000000000000006,0.04
6,1,1,0,2,0.16,2,3,51,98,28,6,0.38000000000000006,0.12999999999999998,0.10999999999999999,0.19000000000000003,3,1,1,1,4,1,1,1,4,0,17,7,Lc,0.09500000000000001,0.12999999999999998,0.10999999999999999,0.19000000000000003
6,1,2,0,9,0.17,2,3,22,70,38,77,0.42000000000000004,0.060000000000000005,0.07,0.07,3,1,1,1,4,1,1,1,4,0,18,7,Lc,0.10500000000000001,0.060000000000000005,0.07,0.07
6,2,3,0,5,0.15,2,2,15,80,39,74,14.109999999999747,0.01,0.02,0.01,16,1,1,1,26,1,1,1,5,0,17,7,Lc,0.5426923076923079,0.01,0.02,0.01
6,2,4,0,4,0.15,2,3,104,52,28,11,0.43000000000000005,0.17,0.03,0.08,4,2,1,1,5,3,1,1,2,0,17,7,Lc,0.086,0.05666666666666667,0.03,0.08
6,3,5,0,5,0.12999999999999998,2,3,45,22,109,78,0.35000000000000003,0.13999999999999999,0.09,0.07,4,1,1,1,5,1,1,1,5,0,16,7,Lc,0.07,0.13999999999999999,0.09,0.07
6,3,6,0,6,0.16,2,3,12,2,108,32,0.33,0.2800000000000001,0.03,0.04,4,2,1,1,5,2,1,1,6,0,19,7,Lc,0.066,0.14,0.03,0.04
6,4,7,0,3,0.16,2,3,33,29,54,25,0.4600000000000001,0.04,0.09,3.1299999999999772,3,1,1,5,4,1,1,6,5,0.5,34,7,Lc,0.11500000000000002,0.04,0.09,0.521666666666667
6,4,8,0,1,0.10999999999999999,2,2,15,46,109,22,39.81000000000067,0.03,0.01,0.01,20,1,1,1,60,1,1,1,3,0,19,7,Lc,0.6635,0.03,0.01,0.01
6,5,9,0,2,0.16,2,3,98,54,57,22,0.43000000000000005,0.060000000000000005,0.07,0.10999999999999999,3,1,1,1,4,1,1,1,4,0,16,7,Lc,0.10750000000000001,0.060000000000000005,0.07,0.10999999999999999
6,5,10,0,9,0.16,2,4,38,72,63,68,0.38000000000000006,0.08,0.09,0.05,3,1,1,1,5,1,1,1,4,0.5,29,7,Lc,0.07600000000000001,0.08,0.09,0.05
6,6,11,0,7,0.19000000000000003,3,4,16,114,85,40,0.4600000000000001,0.08,0.9400000000000006,0.01,5,1,2,1,6,1,3,1,6,0,16,7,Lc,0.07666666666666667,0.08,0.3133333333333335,0.01
6,6,12,0,3,0.13999999999999999,2,4,25,104,30,108,2.0800000000000014,0.01,0.01,0.01,4,1,1,1,6,1,1,1,5,0,14,7,Lc,0.3466666666666669,0.01,0.01,0.01
6,7,13,1,10,0.10999999999999999,2,3,87,96,34,120,0.33000000000000007,0.22000000000000006,0.01,0.04,4,2,1,1,5,2,1,1,3,0,13,7,Lc,0.06599999999999999,0.11000000000000001,0.01,0.04
6,7,14,1,2,0.16,2,3,7,54,51,83,0.4900000000000001,0.07,0.060000000000000005,0.060000000000000005,3,1,1,1,4,1,1,1,4,0,17,7,Lc,0.12250000000000003,0.07,0.060000000000000005,0.060000000000000005
6,8,15,1,5,0.09,2,2,46,47,57,106,0.28,0.10999999999999999,0.11999999999999998,0.03,3,1,1,1,3,1,1,1,5,0,16,7,Lc,0.09333333333333335,0.10999999999999999,0.11999999999999998,0.03
6,8,16,1,3,0.12999999999999998,2,3,113,27,25,115,0.45000000000000007,0.05,0.22000000000000006,0.04,3,1,2,1,4,1,2,1,5,0,14,7,Lc,0.11250000000000003,0.05,0.11000000000000003,0.04
6,9,17,1,6,0.09,2,2,2,9,118,93,0.29000000000000004,0.09,0.08,0.11999999999999998,3,1,1,2,3,1,1,2,6,0,17,7,Lc,0.09666666666666668,0.09,0.08,0.060000000000000005
6,9,18,1,5,0.10999999999999999,2,3,38,58,53,97,0.37000000000000005,0.11999999999999998,0.09,0.02,4,1,1,1,5,1,2,1,5,0,15,7,Lc,0.074,0.11999999999999998,0.045,0.02
6,10,19,1,8,0.16,3,4,114,119,21,47,0.5200000000000001,0.05,0.08,0.01,5,1,1,1,6,1,1,1,2,0,15,7,Lc,0.08666666666666668,0.05,0.08,0.01
6,10,20,1,6,0.15,2,3,103,6,58,104,0.4,0.07,0.13999999999999999,0.09,3,1,1,1,4,1,1,1,6,0,14,7,Lc,0.10000000000000002,0.07,0.13999999999999999,0.09
6,11,21,1,2,0.18000000000000002,4,5,58,16,93,51,0.5200000000000001,0.05,0.09999999999999999,0.03,6,1,1,1,7,1,1,1,4,0,17,7,Lc,0.07428571428571429,0.05,0.09999999999999999,0.03
6,11,22,1,9,0.09999999999999999,2,3,68,62,8,99,0.31000000000000005,0.060000000000000005,1.330000000000001,0.01,3,1,2,1,4,1,2,1,4,0,16,7,Lc,0.07750000000000001,0.060000000000000005,0.6650000000000004,0.01
6,12,23,1,10,0.09,2,3,104,95,49,90,0.3800000000000001,0.09,1.0900000000000007,0.01,3,1,2,1,4,1,2,1,3,0,12,7,Lc,0.09500000000000003,0.09,0.5450000000000004,0.01
6,12,24,1,1,0.08,2,2,75,78,81,119,0.24,0.09999999999999999,0.09,0.07,3,1,1,1,3,1,1,1,3,0.5,20,7,Lc,0.08,0.09999999999999999,0.09,0.07
6,13,25,1,3,0.10999999999999999,3,3,30,26,6,54,0.31000000000000005,0.16,0.060000000000000005,0.08,4,2,1,1,4,3,1,1,5,0,20,7,Lc,0.07750000000000001,0.05333333333333334,0.060000000000000005,0.08
6,13,26,1,7,0.11999999999999998,2,3,41,71,38,15,0.8700000000000004,0.01,0.10999999999999999,3.0199999999999796,3,1,1,2,4,1,1,2,6,0,20,7,Lc,0.2175000000000001,0.01,0.10999999999999999,1.5099999999999898
6,14,27,1,7,0.12999999999999998,2,3,75,16,15,62,0.5600000000000002,0.03,0.04,0.03,3,1,1,1,4,1,1,1,6,0,19,7,Lc,0.14000000000000007,0.03,0.04,0.03
6,14,28,1,10,0.13999999999999999,1,2,34,89,49,2,0.44000000000000006,0.05,0.13999999999999999,0.04,2,1,1,1,3,1,1,1,3,0,18,7,Lc,0.1466666666666667,0.05,0.13999999999999999,0.04
6,15,29,1,1,0.12999999999999998,2,3,38,82,76,58,0.5500000000000002,0.02,0.03,0.07,3,1,1,1,4,1,1,1,3,0,15,7,Lc,0.13750000000000007,0.02,0.03,0.07
6,15,30,1,7,0.13999999999999999,2,3,21,111,62,36,0.43000000000000005,0.09,0.060000000000000005,0.05,4,1,1,1,5,1,1,1,6,0,17,7,Lc,0.08600000000000002,0.09,0.060000000000000005,0.05
6,16,31,1,1,0.13999999999999999,2,3,79,77,63,38,0.38000000000000006,0.17,0.02,0.13999999999999999,4,2,1,1,5,2,1,1,3,0,15,7,Lc,0.076,0.08499999999999999,0.02,0.13999999999999999
6,16,32,1,2,0.19000000000000003,4,5,96,51,35,88,0.4700000000000001,0.13999999999999999,0.11999999999999998,0.01,5,1,1,1,6,1,1,1,4,0,15,7,Lc,0.07833333333333335,0.13999999999999999,0.11999999999999998,0.01
6,17,33,1,8,0.20000000000000004,2,3,118,38,94,86,0.5500000000000002,0.03,0.11999999999999998,0.35000000000000014,4,1,1,1,5,1,1,1,2,0,13,7,Lc,0.11000000000000001,0.03,0.11999999999999998,0.35000000000000014
6,17,34,1,1,0.13999999999999999,2,3,73,84,20,98,0.39,0.060000000000000005,0.05,0.060000000000000005,3,1,1,1,4,1,1,1,3,0,14,7,Lc,0.09750000000000002,0.060000000000000005,0.05,0.060000000000000005
6,18,35,1,3,0.19000000000000003,3,6,36,62,108,1,0.4200000000000001,0.21000000000000005,1.2200000000000009,0.7400000000000004,5,1,2,3,8,1,2,3,5,0,17,7,Lc,0.052500000000000005,0.21000000000000005,0.6100000000000004,0.24666666666666676
6,18,36,1,5,0.21000000000000005,2,3,119,45,58,21,0.4400000000000001,0.05,0.10999999999999999,0.05,3,1,1,1,4,1,1,1,5,0,17,7,Lc,0.11000000000000001,0.05,0.10999999999999999,0.05
6,19,37,1,6,0.25000000000000006,4,5,83,73,10,30,0.5000000000000001,0.12999999999999998,0.04,0.060000000000000005,5,2,1,1,6,2,1,1,6,0,17,7,Lc,0.08333333333333334,0.06499999999999999,0.04,0.060000000000000005
6,19,38,1,5,0.10999999999999999,2,2,38,44,63,101,0.33000000000000007,0.11999999999999998,0.23000000000000007,0.03,3,1,1,1,3,1,1,1,5,0,16,7,Lc,0.11000000000000001,0.11999999999999998,0.23000000000000007,0.03
6,20,39,1,7,0.08,2,2,24,20,101,44,0.26,0.13999999999999999,0.11999999999999998,0.04,3,1,1,1,3,1,1,1,6,0,19,7,Lc,0.08666666666666667,0.13999999999999999,0.11999999999999998,0.04
6,20,40,1,10,0.12999999999999998,2,3,85,51,5,9,0.5200000000000001,0.08,0.09,0.03,4,1,2,1,5,1,2,1,3,0,19,7,Lc,0.10400000000000004,0.08,0.045000000000000005,0.03
6,21,41,1,9,0.09,2,2,63,65,33,80,0.29000000000000004,0.10999999999999999,0.11999999999999998,0.04,3,1,2,1,3,1,2,1,4,0,16,7,Lc,0.09666666666666668,0.10999999999999999,0.060000000000000005,0.04
6,21,42,1,10,0.15,2,3,94,5,39,3,0.39000000000000007,0.13999999999999999,0.03,0.5200000000000002,4,1,1,2,5,1,1,2,3,0,20,7,Lc,0.078,0.13999999999999999,0.03,0.2600000000000001
6,22,43,1,2,0.09999999999999999,2,2,57,56,113,9,0.30000000000000004,0.09999999999999999,0.21000000000000005,0.2700000000000001,3,1,1,2,3,1,1,2,4,0,16,7,Lc,0.10000000000000002,0.09999999999999999,0.21000000000000005,0.13500000000000004
6,22,44,1,9,0.11999999999999998,2,3,65,22,92,18,0.38000000000000006,0.09,0.10999999999999999,0.03,4,1,1,1,5,1,1,1,4,0,19,7,Lc,0.076,0.09,0.10999999999999999,0.03
7,1,1,0,4,0.22000000000000006,2,3,97,7,48,9,1.550000000000001,0.21000000000000005,0.04,0.09999999999999999,5,1,1,1,7,1,1,1,2,0,19,7,Lc,0.22142857142857153,0.21000000000000005,0.04,0.09999999999999999
7,1,2,0,8,0.24000000000000007,2,3,77,120,64,15,1.2800000000000007,0.20000000000000004,0.09999999999999999,0.05,4,2,1,1,8,2,1,1,2,0,15,7,Lc,0.16000000000000003,0.09999999999999999,0.09999999999999999,0.05
7,2,3,0,9,0.19000000000000003,2,4,9,41,1,38,1.1300000000000006,0.13999999999999999,0.21000000000000005,2.2799999999999954,5,1,2,4,7,1,2,5,4,0,22,7,Lc,0.16142857142857148,0.13999999999999999,0.105,0.4560000000000003
7,2,4,0,10,0.21000000000000005,2,4,118,114,57,24,0.9400000000000005,0.18000000000000002,0.22000000000000006,0.10999999999999999,4,1,2,1,6,1,2,1,3,0,14,7,Lc,0.15666666666666673,0.18000000000000002,0.11000000000000001,0.10999999999999999
7,3,5,0,5,0.13999999999999999,1,2,102,14,106,103,1.2100000000000006,0.09,0.07,0.10999999999999999,3,1,1,2,5,1,1,2,5,0.5,18,7,Lc,0.24200000000000008,0.09,0.07,0.05500000000000001
7,3,6,0,8,0.23000000000000007,2,4,117,66,115,61,1.4800000000000009,0.12999999999999998,0.03,0.6500000000000004,5,1,1,3,7,1,1,3,2,0,12,7,Lc,0.21142857142857155,0.12999999999999998,0.03,0.21666666666666676
7,4,7,0,10,0.12999999999999998,2,3,16,93,26,59,2.3399999999999967,0.01,0.08,0.08,7,1,1,2,8,1,1,2,3,0,18,7,Lc,0.29250000000000015,0.01,0.08,0.04
7,4,8,0,8,0.21000000000000005,1,2,110,117,68,8,1.0900000000000005,0.4100000000000002,0.22000000000000006,0.21000000000000005,4,2,2,1,6,2,2,1,2,0,14,7,Lc,0.1816666666666667,0.20500000000000002,0.10999999999999999,0.21000000000000005
7,5,9,0,2,0.3100000000000001,2,3,54,76,116,109,0.8300000000000003,0.3100000000000001,0.13999999999999999,0.08,4,2,1,1,5,3,1,1,4,0,11,7,Lc,0.16600000000000006,0.10333333333333336,0.13999999999999999,0.08
7,5,10,0,10,0.2900000000000001,4,6,43,94,92,106,1.0500000000000005,0.24000000000000007,0.07,0.3100000000000001,7,2,1,2,9,2,1,2,3,0,13,7,Lc,0.1166666666666667,0.12000000000000001,0.07,0.155
7,6,11,0,8,0.19000000000000003,2,3,12,33,49,52,1.9200000000000013,0.7000000000000004,0.01,0.02,6,2,1,1,7,2,1,1,2,0,19,7,Lc,0.2742857142857144,0.35000000000000014,0.01,0.02
7,6,12,0,10,0.34000000000000014,2,3,66,87,40,20,1.570000000000001,0.10999999999999999,0.09,0.01,7,1,1,1,9,1,1,1,3,0,18,7,Lc,0.17444444444444446,0.10999999999999999,0.09,0.01
7,7,13,1,6,0.25000000000000006,2,3,47,94,45,50,1.3000000000000007,0.7800000000000005,0.01,0.02,3,2,1,1,4,2,1,1,6,0,17,7,Lc,0.3250000000000002,0.39000000000000024,0.01,0.02
7,7,14,1,9,0.36000000000000015,3,4,63,99,103,80,1.4600000000000009,0.07,0.20000000000000004,0.09,6,1,2,2,7,1,2,2,4,0,11,7,Lc,0.20857142857142866,0.07,0.1,0.045
7,8,15,1,5,0.18000000000000002,2,3,2,62,42,45,1.0700000000000005,1.0700000000000007,0.02,3.5399999999999685,4,3,1,8,6,8,1,11,5,0,20,7,Lc,0.17833333333333337,0.13375000000000004,0.02,0.321818181818182
7,8,16,1,2,0.7500000000000004,3,5,112,52,53,79,1.540000000000001,0.18000000000000002,0.060000000000000005,0.07,5,1,1,1,7,1,1,1,4,0,13,7,Lc,0.22000000000000008,0.18000000000000002,0.060000000000000005,0.07
7,9,17,1,5,0.24000000000000007,2,3,66,70,39,12,0.7900000000000004,0.3100000000000001,0.20000000000000004,0.08,3,2,1,1,4,2,1,1,5,0,19,7,Lc,0.19750000000000006,0.155,0.20000000000000004,0.08
7,9,18,1,4,0.21000000000000005,2,3,20,35,92,31,0.8000000000000004,0.45000000000000023,0.08,0.13999999999999999,4,3,1,2,6,5,1,2,2,0,19,7,Lc,0.13333333333333336,0.09,0.08,0.06999999999999999
7,10,19,1,3,0.26000000000000006,2,4,30,25,114,112,0.7600000000000002,0.4100000000000002,0.4100000000000002,0.08,4,2,1,1,6,3,1,1,5,0,14,7,Lc,0.1266666666666667,0.13666666666666666,0.4100000000000002,0.08
7,10,20,1,5,0.24000000000000007,2,3,38,12,3,87,0.8300000000000004,1.1600000000000008,0.02,0.01,4,2,1,1,6,3,1,1,5,0,20,7,Lc,0.13833333333333336,0.3866666666666669,0.02,0.01
7,11,21,1,5,0.2900000000000001,2,3,48,38,52,51,1.0600000000000005,0.20000000000000004,0.16,0.21000000000000005,4,1,1,2,7,1,1,2,5,0,18,7,Lc,0.15142857142857147,0.20000000000000004,0.16,0.10500000000000001
7,11,22,1,4,0.38000000000000017,8,9,100,99,97,26,0.9400000000000004,0.20000000000000004,0.3300000000000001,0.10999999999999999,10,1,3,1,12,1,4,1,2,0.5,17,7,Lc,0.07833333333333334,0.20000000000000004,0.08250000000000002,0.10999999999999999
7,12,23,1,7,0.16,2,2,13,53,18,83,25.730000000001198,0.01,0.03,0.01,20,1,2,1,53,1,2,1,6,0,19,7,Lc,0.4854716981132075,0.01,0.015,0.01
7,12,24,1,5,0.17,2,3,40,100,2,94,1.2200000000000006,0.12999999999999998,0.09999999999999999,0.4200000000000002,5,1,1,1,6,1,1,1,5,0,16,7,Lc,0.20333333333333342,0.12999999999999998,0.09999999999999999,0.4200000000000002
7,13,25,1,10,0.3300000000000001,2,3,118,52,49,12,0.8600000000000003,0.37000000000000016,0.12999999999999998,0.25000000000000006,5,2,1,1,6,2,1,1,3,0,16,7,Lc,0.14333333333333337,0.18500000000000005,0.12999999999999998,0.25000000000000006
7,13,26,1,1,0.23000000000000007,2,3,77,22,102,76,0.9400000000000005,0.3200000000000001,0.07,0.7800000000000005,4,1,1,2,6,1,1,2,3,0,14,7,Lc,0.1566666666666667,0.3200000000000001,0.07,0.39000000000000024
7,14,27,1,8,0.3000000000000001,2,3,2,111,87,5,1.580000000000001,1.2200000000000009,0.02,0.02,8,4,1,1,11,4,1,1,2,0,17,7,Lc,0.14363636363636367,0.30500000000000016,0.02,0.02
7,14,28,1,2,0.3100000000000001,2,3,56,76,35,24,0.8200000000000003,0.4300000000000002,0.26000000000000006,0.060000000000000005,3,1,1,1,4,1,1,1,4,0,18,7,Lc,0.20500000000000004,0.4300000000000002,0.26000000000000006,0.060000000000000005
7,15,29,1,4,1.450000000000001,5,7,77,107,74,100,1.490000000000001,0.3900000000000002,0.23000000000000007,0.12999999999999998,6,1,1,1,8,1,1,1,2,0,10,7,Lc,0.18625000000000008,0.3900000000000002,0.23000000000000007,0.12999999999999998
7,15,30,1,10,0.17,3,4,47,114,89,110,1.4100000000000008,0.01,0.26000000000000006,0.01,6,1,2,1,7,1,2,1,3,0,12,7,Lc,0.2014285714285715,0.01,0.13000000000000003,0.01
7,16,31,1,6,0.24000000000000007,3,5,5,1,81,40,0.7700000000000004,1.280000000000001,0.02,0.04,5,4,1,1,7,4,1,1,6,0,20,7,Lc,0.11000000000000003,0.3200000000000001,0.02,0.04
7,16,32,1,7,0.19000000000000003,2,3,22,49,21,89,0.6800000000000003,0.4300000000000002,0.09,0.4200000000000002,4,2,1,2,5,2,1,2,6,0,19,7,Lc,0.13600000000000004,0.21500000000000008,0.09,0.21000000000000002
7,17,33,1,3,0.17,2,3,26,49,94,95,0.6400000000000002,0.48000000000000026,0.7200000000000004,0.6600000000000004,4,2,4,3,5,2,5,3,5,0,15,7,Lc,0.12800000000000003,0.24000000000000007,0.14400000000000002,0.2200000000000001
7,17,34,1,7,0.23000000000000007,2,3,19,15,46,67,0.7500000000000003,6.099999999999914,0.01,0.01,4,15,1,1,5,21,1,1,6,0,21,7,Lc,0.15000000000000002,0.2904761904761906,0.01,0.01
7,18,35,1,4,0.18000000000000002,2,3,68,11,107,78,2.1000000000000014,0.01,0.01,0.01,5,1,1,1,6,1,1,1,2,0,15,7,Lc,0.3500000000000002,0.01,0.01,0.01
7,18,36,1,10,1.480000000000001,3,5,13,94,115,56,2.3800000000000017,0.09,0.05,0.11999999999999998,5,1,1,1,8,1,1,1,3,0,15,7,Lc,0.29750000000000015,0.09,0.05,0.11999999999999998
7,19,37,1,3,0.16,2,3,25,17,66,27,0.5600000000000002,0.49000000000000027,0.11999999999999998,0.05,4,1,1,1,5,1,1,1,5,0,20,7,Lc,0.11200000000000002,0.49000000000000027,0.11999999999999998,0.05
7,19,38,1,10,0.18000000000000002,2,3,93,7,10,118,0.6600000000000003,1.450000000000001,0.01,0.02,3,3,1,1,4,3,1,1,3,0,17,7,Lc,0.16500000000000006,0.48333333333333356,0.01,0.02
7,20,39,1,9,0.2800000000000001,3,4,61,16,116,14,0.7500000000000003,1.7300000000000013,0.01,0.5800000000000003,5,3,1,3,6,4,1,3,4,0,18,7,Lc,0.12500000000000003,0.4325000000000002,0.01,0.1933333333333334
7,20,40,1,4,0.15,2,3,8,56,10,101,3.529999999999972,0.01,0.02,0.02,7,1,1,1,8,1,1,1,2,0,18,7,Lc,0.4412499999999985,0.01,0.02,0.02
7,21,41,1,4,0.3200000000000001,2,3,62,24,16,107,1.540000000000001,0.36000000000000015,0.07,0.01,4,3,1,1,5,3,1,1,2,0,18,7,Lc,0.30800000000000016,0.12000000000000005,0.07,0.01
7,21,42,1,5,0.5400000000000003,5,6,46,89,86,90,1.1500000000000006,0.15,0.10999999999999999,0.09999999999999999,6,1,1,1,7,1,1,1,5,0.5,23,7,Lc,0.16428571428571434,0.15,0.10999999999999999,0.09999999999999999
7,22,43,1,9,0.16,2,3,61,63,77,80,0.7900000000000004,0.7600000000000005,0.7100000000000004,0.12999999999999998,4,4,2,1,7,4,2,1,4,0,14,7,Lc,0.11285714285714288,0.19000000000000006,0.35500000000000015,0.12999999999999998
7,22,44,1,8,0.18000000000000002,2,4,15,120,116,32,0.8100000000000004,0.18000000000000002,0.12999999999999998,0.4100000000000002,3,1,1,1,5,2,1,1,2,0,15,7,Lc,0.16200000000000006,0.09,0.12999999999999998,0.4100000000000002
8,1,1,0,9,0.2800000000000001,2,5,40,70,65,45,0.6000000000000002,0.03,0.08,0.10999999999999999,4,1,1,2,8,1,1,3,4,0,18,7,Lc,0.07500000000000001,0.03,0.08,0.03666666666666667
8,1,2,0,8,0.2900000000000001,2,5,111,49,118,33,0.4600000000000001,0.12999999999999998,0.2700000000000001,0.07,4,1,3,1,7,1,3,1,2,0,13,7,Lc,0.06571428571428571,0.12999999999999998,0.09,0.07
8,2,3,0,3,0.19000000000000003,2,3,25,36,59,24,0.45000000000000007,0.18000000000000002,0.26000000000000006,0.26000000000000006,3,2,2,2,4,3,2,2,5,0,20,7,Lc,0.11250000000000002,0.06,0.13000000000000003,0.13000000000000003
8,2,4,0,8,0.24000000000000007,2,4,115,81,43,80,0.5100000000000001,0.26000000000000006,0.05,0.09999999999999999,4,2,1,2,8,3,1,2,2,0,13,7,Lc,0.06375,0.08666666666666667,0.05,0.05
8,3,5,0,5,0.20000000000000004,2,3,48,8,5,57,0.5200000000000001,0.7100000000000004,0.3300000000000001,0.01,4,3,2,1,7,7,2,1,5,0,21,7,Lc,0.07428571428571429,0.10142857142857145,0.16500000000000006,0.01
8,3,6,0,1,0.17,2,3,79,77,76,80,0.42000000000000004,0.05,0.08,0.22000000000000006,4,1,1,3,5,1,1,3,3,1,36,7,Lc,0.084,0.05,0.08,0.07333333333333333
8,4,7,0,7,0.20000000000000004,2,5,19,18,103,100,0.33,4.689999999999944,0.05,0.01,4,14,1,1,7,32,1,1,6,0,16,7,Lc,0.047142857142857146,0.14656250000000004,0.05,0.01
8,4,8,0,8,0.23000000000000007,2,6,116,30,11,35,0.5600000000000002,0.20000000000000004,0.05,0.10999999999999999,4,2,1,1,10,3,1,1,2,0,18,7,Lc,0.056,0.06666666666666667,0.05,0.10999999999999999
8,5,9,0,6,0.25000000000000006,2,3,9,3,108,30,0.7100000000000003,0.09,0.17,0.2700000000000001,5,2,2,2,7,2,3,2,6,0,19,7,Lc,0.10142857142857145,0.045,0.05666666666666667,0.13500000000000004
8,5,10,0,5,0.3100000000000001,2,4,46,110,42,18,0.5500000000000002,0.23000000000000007,0.22000000000000006,0.05,4,2,1,2,6,4,1,2,5,0,18,7,Lc,0.09166666666666666,0.0575,0.22000000000000006,0.025
8,6,11,0,9,0.17,2,3,66,69,43,37,0.43000000000000005,0.08,0.17,0.09999999999999999,4,2,2,1,10,3,2,1,4,0,18,7,Lc,0.043000000000000003,0.02666666666666667,0.08499999999999999,0.09999999999999999
8,6,12,0,10,0.34000000000000014,2,7,90,105,3,7,0.46000000000000013,0.16,0.13999999999999999,0.09,4,1,2,1,9,1,3,1,3,0,17,7,Lc,0.051111111111111114,0.16,0.04666666666666667,0.09
8,7,13,1,9,1.1800000000000008,6,11,65,66,4,90,1.2300000000000009,0.04,0.2700000000000001,0.09,7,1,2,1,12,1,3,1,4,0,17,7,Lc,0.10250000000000004,0.04,0.09,0.09
8,7,14,1,1,0.17,2,3,79,52,49,28,0.4100000000000001,0.16,0.12999999999999998,0.13999999999999999,4,1,1,2,7,1,1,2,3,0,16,7,Lc,0.05857142857142857,0.16,0.12999999999999998,0.06999999999999999
8,8,15,1,1,0.25000000000000006,2,6,80,69,75,64,0.5700000000000002,0.26000000000000006,0.05,0.02,4,2,2,1,8,3,2,1,3,0,14,7,Lc,0.07125000000000001,0.08666666666666668,0.025,0.02
8,8,16,1,7,0.18000000000000002,2,5,108,89,24,53,0.44000000000000006,0.15,0.01,0.12999999999999998,3,2,1,1,6,2,1,1,6,0,15,7,Lc,0.07333333333333335,0.07499999999999998,0.01,0.12999999999999998
8,9,17,1,2,0.5200000000000002,4,5,49,39,56,94,0.8700000000000003,0.7700000000000005,0.01,0.01,6,4,1,1,7,5,1,1,4,0,16,7,Lc,0.12428571428571432,0.15400000000000005,0.01,0.01
8,9,18,1,3,0.23000000000000007,3,4,36,110,78,118,0.5600000000000002,0.18000000000000002,0.02,0.13999999999999999,5,1,1,3,6,1,1,3,5,0,12,7,Lc,0.09333333333333335,0.18000000000000002,0.02,0.04666666666666667
8,10,19,1,9,0.3300000000000001,3,6,69,77,81,42,0.42000000000000015,0.5300000000000002,0.03,0.02,4,3,1,1,7,3,1,1,4,0,15,7,Lc,0.060000000000000005,0.17666666666666672,0.03,0.02
8,10,20,1,7,0.19000000000000003,2,3,18,13,21,104,0.4800000000000001,2.949999999999981,0.01,0.01,4,11,1,1,5,17,1,1,6,0.5,38,7,Lc,0.09600000000000002,0.17352941176470593,0.01,0.01
8,11,21,1,10,0.18000000000000002,2,3,88,94,20,113,0.38000000000000006,0.05,0.18000000000000002,0.05,4,1,2,1,6,1,2,1,3,0,14,7,Lc,0.06333333333333332,0.05,0.09,0.05
8,11,22,1,3,0.23000000000000007,2,6,30,83,26,10,0.37000000000000005,0.5300000000000002,0.04,0.04,4,3,2,1,10,5,2,1,5,0,19,7,Lc,0.037000000000000005,0.10600000000000004,0.02,0.04
8,12,23,1,6,0.19000000000000003,2,5,4,2,89,93,0.33,4.189999999999955,0.01,0.03,4,12,1,1,7,16,1,1,6,0,18,7,Lc,0.047142857142857146,0.26187500000000014,0.01,0.03
8,12,24,1,2,0.3100000000000001,2,6,105,54,50,21,0.7300000000000003,0.02,0.05,0.05,4,1,1,2,9,1,1,3,4,0,16,7,Lc,0.08111111111111112,0.02,0.05,0.016666666666666666
8,13,25,1,2,0.26000000000000006,3,5,54,55,98,92,0.4900000000000001,0.04,0.26000000000000006,0.08,5,1,1,2,7,1,2,3,4,0,13,7,Lc,0.06999999999999999,0.04,0.13,0.026666666666666665
8,13,26,1,9,0.18000000000000002,3,4,32,66,33,14,3.5399999999999725,0.01,0.02,0.09999999999999999,16,1,1,2,25,1,1,2,4,0,20,7,Lc,0.14160000000000003,0.01,0.02,0.049999999999999996
8,14,27,1,5,0.26000000000000006,2,3,43,61,96,103,0.5700000000000002,0.09999999999999999,0.02,0.11999999999999998,5,2,1,2,7,3,1,2,5,0,14,7,Lc,0.08142857142857143,0.03333333333333333,0.02,0.060000000000000005
8,14,28,1,8,0.10999999999999999,2,3,119,113,82,32,0.24999999999999997,0.10999999999999999,0.3200000000000001,0.16,3,1,2,2,4,1,3,3,2,0,12,7,Lc,0.0625,0.10999999999999999,0.10666666666666667,0.05333333333333334
8,15,29,1,3,0.18000000000000002,2,5,34,13,87,17,0.32,0.10999999999999999,0.21000000000000005,0.02,4,2,2,1,7,2,3,1,5,0,20,7,Lc,0.045714285714285714,0.055,0.07,0.02
8,15,30,1,5,0.4100000000000002,4,5,47,43,62,7,0.5900000000000002,0.10999999999999999,0.16,0.05,5,1,2,1,6,1,3,1,5,0,20,7,Lc,0.09833333333333334,0.10999999999999999,0.05333333333333334,0.05
8,16,31,1,4,0.4400000000000002,4,10,97,57,41,51,0.6400000000000002,0.15,0.02,0.16,6,2,1,2,12,2,1,2,2,0,15,7,Lc,0.05333333333333333,0.07499999999999998,0.02,0.08
8,16,32,1,8,0.3900000000000002,2,5,4,110,66,2,0.7100000000000003,0.02,0.13999999999999999,0.05,4,1,1,1,8,1,1,1,2,0,18,7,Lc,0.08875000000000001,0.02,0.13999999999999999,0.05
8,17,33,1,6,0.3300000000000001,2,3,10,108,5,89,0.6700000000000003,0.09,0.09,0.04,4,1,1,1,5,1,1,1,6,0,17,7,Lc,0.134,0.09,0.09,0.04
8,17,34,1,2,0.2900000000000001,4,4,112,119,118,116,2.769999999999991,0.07,2.909999999999982,0.7600000000000005,13,2,7,6,15,2,8,7,4,1,24,7,Lc,0.18466666666666673,0.035,0.3637500000000002,0.10857142857142857
8,18,35,1,9,0.2700000000000001,2,5,70,72,44,99,0.8000000000000003,0.060000000000000005,0.12999999999999998,0.03,4,1,2,1,11,1,2,1,4,0,15,7,Lc,0.07272727272727274,0.060000000000000005,0.065,0.03
8,18,36,1,8,0.25000000000000006,2,4,117,51,58,75,0.6000000000000002,0.49000000000000027,0.01,0.060000000000000005,5,4,1,1,8,5,1,1,2,0,13,7,Lc,0.07500000000000001,0.09800000000000002,0.01,0.060000000000000005
8,19,37,1,1,0.23000000000000007,2,4,83,75,80,120,0.4200000000000001,0.23000000000000007,0.07,0.03,4,3,2,1,6,4,2,1,3,0.5,20,7,Lc,0.07,0.057499999999999996,0.035,0.03
8,19,38,1,7,0.21000000000000005,3,4,21,67,14,68,0.38000000000000006,0.11999999999999998,0.05,0.26000000000000006,5,2,1,1,6,2,1,1,6,0,20,7,Lc,0.06333333333333334,0.06,0.05,0.26000000000000006
8,20,39,1,4,0.21000000000000005,3,5,70,40,93,3,0.4800000000000001,1.0600000000000007,0.4200000000000002,0.25000000000000006,5,5,2,4,8,9,2,4,2,0,18,7,Lc,0.06,0.11777777777777781,0.21000000000000005,0.0625
8,20,40,1,2,0.2800000000000001,3,7,57,55,117,18,0.5200000000000001,0.07,0.10999999999999999,0.08,5,1,1,2,11,1,1,2,4,0,16,7,Lc,0.04727272727272727,0.07,0.10999999999999999,0.04
8,21,41,1,10,0.23000000000000007,2,4,86,49,13,17,0.46000000000000013,0.16,0.09,0.08,4,2,1,2,8,3,1,3,3,0,19,7,Lc,0.057499999999999996,0.05333333333333333,0.09,0.02666666666666667
8,21,42,1,5,0.2900000000000001,2,4,114,43,9,44,0.6600000000000003,0.09,0.17,0.05,4,1,2,2,7,1,2,2,5,0,18,7,Lc,0.09428571428571428,0.09,0.08499999999999999,0.025
8,22,43,1,5,0.24000000000000007,2,3,41,40,61,69,0.5800000000000002,0.4100000000000002,0.01,0.01,4,2,1,1,5,3,1,1,5,0,18,7,Lc,0.116,0.13666666666666671,0.01,0.01
8,22,44,1,3,0.35000000000000014,2,4,32,49,8,103,0.46000000000000013,0.13999999999999999,0.20000000000000004,0.26000000000000006,4,1,2,2,6,1,2,3,5,0,17,7,Lc,0.07666666666666667,0.13999999999999999,0.09999999999999999,0.08666666666666667
9,1,1,0,3,0.18000000000000002,2,3,29,30,28,81,0.4800000000000001,0.060000000000000005,0.13999999999999999,0.04,4,1,2,1,9,1,2,1,5,0.5,33,7,Lc,0.05333333333333333,0.060000000000000005,0.07,0.04
9,1,2,0,5,0.2900000000000001,2,4,42,45,49,44,0.6200000000000002,0.10999999999999999,0.15,0.04,4,2,2,1,9,3,3,1,5,0.5,34,7,Lc,0.06888888888888889,0.03666666666666667,0.049999999999999996,0.04
9,2,3,0,2,0.23000000000000007,2,6,56,50,112,59,0.6800000000000003,0.05,0.07,0.19000000000000003,6,1,1,2,13,1,1,2,4,0.5,26,7,Lc,0.05230769230769231,0.05,0.07,0.09500000000000001
9,2,4,0,7,0.20000000000000004,2,4,24,83,84,27,0.5600000000000002,0.13999999999999999,0.03,0.09,4,2,1,1,14,3,1,1,6,0,17,7,Lc,0.04,0.04666666666666667,0.03,0.09
9,3,5,0,10,0.15,2,3,87,85,112,91,0.5200000000000001,0.01,0.16,0.02,4,1,2,1,8,1,5,1,3,0.5,20,7,Lc,0.065,0.01,0.032,0.02
9,3,6,0,1,0.22000000000000006,2,7,80,82,102,101,0.5400000000000001,0.17,0.3300000000000001,0.03,4,1,2,2,14,1,8,2,3,0,10,7,Lc,0.03857142857142857,0.17,0.04125,0.015
9,4,7,0,10,0.09999999999999999,2,4,2,48,94,9,3.3499999999999748,0.02,0.01,0.02,20,2,1,1,59,2,1,1,3,0,20,7,Lc,0.05677966101694915,0.01,0.01,0.02
9,4,8,0,2,0.12999999999999998,1,2,56,19,116,22,0.4900000000000001,0.13999999999999999,0.07,0.02,3,2,2,1,9,2,2,1,4,0,18,7,Lc,0.05444444444444445,0.07,0.035,0.02
9,5,9,0,2,0.20000000000000004,2,6,54,20,55,23,0.5100000000000001,0.18000000000000002,0.01,0.060000000000000005,4,2,1,1,16,6,1,1,4,0,20,7,Lc,0.031875,0.03,0.01,0.060000000000000005
9,5,10,0,10,0.18000000000000002,2,8,90,89,71,68,0.43000000000000005,0.3000000000000001,0.03,0.15,4,2,1,2,13,5,2,2,3,0,14,7,Lc,0.03307692307692308,0.060000000000000005,0.015,0.075
9,6,11,0,10,0.22000000000000006,2,7,91,23,21,88,0.5500000000000002,0.16,0.12999999999999998,0.09,4,2,2,2,17,4,6,2,3,0,18,7,Lc,0.03235294117647059,0.04,0.021666666666666667,0.045
9,6,12,0,1,0.2700000000000001,4,6,78,110,46,111,0.5900000000000002,0.13999999999999999,0.15,0.05,6,2,2,2,10,3,4,2,3,0,12,7,Lc,0.059,0.04666666666666667,0.0375,0.025
9,7,13,1,2,0.22000000000000006,2,6,56,41,108,101,0.6400000000000002,0.07,0.22000000000000006,0.09,4,2,2,2,10,3,6,2,4,0,13,7,Lc,0.064,0.023333333333333334,0.03666666666666667,0.045
9,7,14,1,9,0.25000000000000006,2,4,65,83,109,76,0.6300000000000002,0.03,0.12999999999999998,0.01,4,1,2,1,14,1,2,1,4,0,12,7,Lc,0.045,0.03,0.065,0.01
9,8,15,1,8,0.15,2,4,120,110,116,113,0.4700000000000001,0.05,0.13999999999999999,0.10999999999999999,4,1,1,2,13,1,1,4,2,1,24,7,Lc,0.036153846153846154,0.05,0.13999999999999999,0.0275
9,8,16,1,6,0.19000000000000003,2,4,8,1,76,30,0.4300000000000001,0.9000000000000006,0.01,0.01,4,8,1,1,6,21,1,1,6,0,20,7,Lc,0.07166666666666667,0.04285714285714286,0.01,0.01
9,9,17,1,8,0.25000000000000006,5,7,113,109,39,83,0.5800000000000002,0.02,0.11999999999999998,0.09999999999999999,7,1,3,2,12,1,3,4,2,0,12,7,Lc,0.04833333333333333,0.02,0.04,0.025
9,9,18,1,7,0.21000000000000005,2,5,22,16,103,66,0.5300000000000001,0.17,0.02,0.09999999999999999,4,2,1,2,11,3,1,2,6,0,18,7,Lc,0.04818181818181818,0.056666666666666664,0.02,0.05
9,10,19,1,6,0.19000000000000003,2,4,12,4,67,31,0.5400000000000001,0.03,0.16,0.46000000000000024,4,1,2,4,9,1,3,11,6,0,21,7,Lc,0.060000000000000005,0.03,0.05333333333333334,0.04181818181818182
9,10,20,1,2,0.23000000000000007,2,9,53,108,41,88,0.4800000000000001,0.22000000000000006,0.09,0.08,4,2,2,2,13,6,3,2,4,0,14,7,Lc,0.036923076923076927,0.03666666666666667,0.03,0.04
9,11,21,1,9,0.20000000000000004,2,4,70,92,34,32,0.6200000000000002,0.07,0.16,0.04,4,1,3,1,8,1,6,1,4,0,17,7,Lc,0.0775,0.07,0.02666666666666667,0.04
9,11,22,1,5,0.22000000000000006,2,7,43,98,102,81,0.5400000000000001,0.26000000000000006,0.08,0.03,4,2,1,1,15,7,1,1,5,0,12,7,Lc,0.036,0.037142857142857144,0.08,0.03
9,12,23,1,5,0.36000000000000015,13,15,38,17,15,14,0.8100000000000004,0.6000000000000003,0.09,4.679999999999945,15,5,2,17,22,9,2,62,5,0.5,41,7,Lc,0.03681818181818182,0.06666666666666667,0.045,0.07548387096774194
9,12,24,1,6,0.11999999999999998,2,3,3,11,113,76,0.5500000000000002,0.02,0.12999999999999998,0.02,4,1,3,1,18,1,6,1,6,0,17,7,Lc,0.030555555555555558,0.02,0.021666666666666667,0.02
9,13,25,1,9,0.22000000000000006,2,4,61,1,26,2,0.5500000000000002,0.24000000000000007,0.01,0.060000000000000005,4,3,1,2,8,8,1,2,4,0,21,7,Lc,0.06875,0.03,0.01,0.03
9,13,26,1,2,0.2700000000000001,5,10,50,42,84,16,0.6100000000000002,0.15,0.07,0.05,7,2,2,1,20,4,3,1,4,0,18,7,Lc,0.0305,0.0375,0.023333333333333334,0.05
9,14,27,1,6,0.25000000000000006,2,9,1,98,83,102,0.7400000000000003,0.05,0.04,0.060000000000000005,4,1,1,1,17,1,2,1,6,0,13,7,Lc,0.043529411764705886,0.05,0.02,0.060000000000000005
9,14,28,1,3,0.2900000000000001,2,9,29,25,116,119,0.5600000000000002,0.23000000000000007,0.03,0.05,4,2,1,2,15,4,1,2,5,0,14,7,Lc,0.037333333333333336,0.0575,0.03,0.025
9,15,29,1,7,0.3200000000000001,8,10,18,14,76,21,0.5200000000000001,1.460000000000001,0.02,0.01,10,10,1,1,16,23,1,1,6,0.5,39,7,Lc,0.0325,0.06347826086956522,0.02,0.01
9,15,30,1,5,0.19000000000000003,2,4,37,61,43,101,0.6200000000000002,0.04,0.08,0.07,4,1,3,2,14,1,5,2,5,0,16,7,Lc,0.04428571428571428,0.04,0.016,0.035
9,16,31,1,8,0.2900000000000001,2,5,114,72,7,86,0.5600000000000002,0.13999999999999999,0.12999999999999998,0.05,4,1,2,2,13,1,3,2,2,0,15,7,Lc,0.043076923076923075,0.13999999999999999,0.043333333333333335,0.025
9,16,32,1,1,0.2700000000000001,2,8,80,104,36,27,0.5500000000000002,0.11999999999999998,0.12999999999999998,0.060000000000000005,4,2,2,2,12,3,3,3,3,0,15,7,Lc,0.04583333333333333,0.04,0.043333333333333335,0.02
9,17,33,1,9,0.46000000000000024,13,17,61,38,69,14,0.7900000000000004,0.10999999999999999,0.22000000000000006,0.09999999999999999,15,2,2,2,21,2,5,2,4,0,19,7,Lc,0.037619047619047614,0.055,0.044000000000000004,0.05
9,17,34,1,3,0.2900000000000001,2,7,31,10,36,27,0.6700000000000003,0.08,0.07,0.05,5,1,2,1,15,1,3,1,5,0.5,36,7,Lc,0.04466666666666667,0.08,0.023333333333333334,0.05
9,18,35,1,10,0.22000000000000006,2,5,92,66,20,97,0.4900000000000001,0.24000000000000007,0.49000000000000027,0.01,4,2,5,1,7,2,13,1,3,0,15,7,Lc,0.07,0.11999999999999998,0.03769230769230769,0.01
9,18,36,1,2,0.17,2,5,57,113,77,74,0.44000000000000006,0.25000000000000006,0.10999999999999999,0.09999999999999999,4,3,2,3,7,6,5,3,4,0,12,7,Lc,0.06285714285714286,0.041666666666666664,0.022000000000000002,0.03333333333333333
9,19,37,1,8,0.26000000000000006,2,5,111,40,46,10,0.7600000000000002,0.11999999999999998,0.02,0.03,7,2,1,1,15,3,1,1,2,0,18,7,Lc,0.050666666666666665,0.04,0.02,0.03
9,19,38,1,10,0.26000000000000006,2,7,90,104,107,101,0.5100000000000001,0.6200000000000003,0.02,0.7000000000000004,5,5,1,11,13,11,1,18,3,0.5,15,7,Lc,0.039230769230769236,0.05636363636363636,0.02,0.03888888888888889
9,20,39,1,6,0.22000000000000006,2,4,10,104,9,73,0.46000000000000013,0.20000000000000004,0.05,0.07,5,2,1,2,8,3,1,2,6,0,17,7,Lc,0.0575,0.06666666666666667,0.05,0.035
9,20,40,1,10,0.25000000000000006,2,8,63,92,94,115,0.7200000000000003,0.02,0.060000000000000005,0.05,4,1,1,1,17,1,1,1,3,0,12,7,Lc,0.042352941176470586,0.02,0.060000000000000005,0.05
9,21,41,1,7,0.21000000000000005,2,6,21,15,41,76,0.5300000000000001,0.15,0.7900000000000005,0.01,5,2,9,1,12,3,14,1,6,0,20,7,Lc,0.04416666666666667,0.05,0.05642857142857143,0.01
9,21,42,1,6,0.5300000000000002,17,23,5,105,4,98,0.6900000000000003,0.25000000000000006,0.10999999999999999,0.03,19,3,2,1,25,4,3,1,6,0,16,7,Lc,0.0276,0.0625,0.03666666666666667,0.03
9,22,43,1,9,0.24000000000000007,4,9,63,69,37,118,0.5600000000000002,0.04,0.3000000000000001,0.05,6,1,4,2,16,1,7,2,4,0,15,7,Lc,0.035,0.04,0.04285714285714286,0.025
9,22,44,1,4,0.24000000000000007,3,5,14,91,102,34,1.2600000000000007,0.060000000000000005,0.01,0.01,13,3,1,1,21,3,1,1,2,0,16,7,Lc,0.06,0.02,0.01,0.01
10,1,1,0,5,0.2700000000000001,2,6,47,85,38,54,0.3400000000000001,0.7500000000000004,0.060000000000000005,0.05,4,2,3,1,8,3,3,1,5,0,17,7,Lc,0.0425,0.25000000000000006,0.02,0.05
10,1,2,0,1,0.48000000000000026,2,6,76,68,72,103,0.7600000000000003,0.09999999999999999,0.4000000000000002,0.060000000000000005,4,1,3,1,8,3,3,1,3,0,13,7,Lc,0.09500000000000001,0.03333333333333333,0.13333333333333336,0.060000000000000005
10,2,3,0,8,0.7800000000000005,2,12,20,113,24,15,0.9600000000000005,0.01,0.21000000000000005,0.03,3,1,2,1,13,1,3,1,2,0.5,38,7,Lc,0.07384615384615385,0.01,0.07,0.03
10,2,4,0,4,0.36000000000000015,2,4,100,106,91,89,0.3900000000000001,0.2800000000000001,0.09,0.15,4,3,1,2,6,5,1,3,2,0,10,7,Lc,0.065,0.056,0.09,0.05
10,3,5,0,3,0.11999999999999998,2,4,35,34,24,32,0.18,0.04,1.1300000000000008,0.3100000000000001,3,1,6,6,5,1,9,6,5,0.5,36,7,Lc,0.036000000000000004,0.04,0.1255555555555556,0.051666666666666666
10,3,6,0,10,0.25000000000000006,2,4,87,98,100,54,0.36000000000000004,0.3300000000000001,0.16,0.48000000000000026,4,3,1,6,6,5,1,8,3,0,11,7,Lc,0.06,0.066,0.16,0.06
10,4,7,0,9,0.4100000000000002,2,7,63,64,77,65,0.5300000000000001,0.03,0.37000000000000016,0.07,3,1,3,1,8,1,6,1,4,0.5,27,7,Lc,0.06625,0.03,0.06166666666666667,0.07
10,4,8,0,3,0.46000000000000024,2,7,25,88,101,104,0.6100000000000002,0.11999999999999998,0.2900000000000001,0.5200000000000002,4,1,2,6,9,1,2,8,5,0,12,7,Lc,0.06777777777777777,0.11999999999999998,0.14500000000000005,0.065
10,5,9,0,9,0.36000000000000015,4,9,87,61,110,114,0.6400000000000002,0.23000000000000007,0.4100000000000002,0.09999999999999999,5,2,3,2,10,3,6,2,4,0,11,7,Lc,0.064,0.07666666666666667,0.06833333333333333,0.049999999999999996
10,5,10,0,2,0.26000000000000006,2,6,59,53,57,1,0.32000000000000006,0.01,0.07,1.1400000000000008,3,1,1,7,7,1,1,16,4,0.5,30,7,Lc,0.045714285714285714,0.01,0.07,0.07125000000000001
10,6,11,0,6,0.46000000000000024,2,4,7,5,39,47,0.48000000000000026,0.09999999999999999,2.1399999999999983,0.17,4,1,9,2,6,1,21,3,6,0,22,7,Lc,0.08000000000000002,0.09999999999999999,0.10190476190476191,0.05666666666666667
10,6,12,0,3,0.5000000000000002,2,9,25,13,64,61,0.5200000000000002,0.37000000000000016,0.05,0.12999999999999998,3,3,1,2,10,4,1,2,5,0,19,7,Lc,0.052,0.0925,0.05,0.065
10,7,13,1,1,0.34000000000000014,2,10,81,56,10,32,0.3900000000000001,0.060000000000000005,0.12999999999999998,0.13999999999999999,4,1,1,2,12,1,1,2,3,0,18,7,Lc,0.0325,0.060000000000000005,0.12999999999999998,0.07
10,7,14,1,7,0.3000000000000001,2,6,17,14,67,21,0.45000000000000007,1.6900000000000013,0.01,0.09,4,9,1,2,8,18,1,2,6,0.5,40,7,Lc,0.05625,0.0938888888888889,0.01,0.045
10,8,15,1,5,0.5500000000000003,2,6,40,37,46,61,0.7100000000000003,0.12999999999999998,0.05,0.46000000000000024,4,2,1,3,8,3,1,7,5,0.5,34,7,Lc,0.08875000000000001,0.043333333333333335,0.05,0.06571428571428571
10,8,16,1,1,0.18000000000000002,2,3,80,73,35,36,0.29000000000000004,0.03,0.18000000000000002,0.02,4,1,2,1,6,1,2,1,3,0,16,7,Lc,0.04833333333333333,0.03,0.09,0.02
10,9,17,1,4,0.6300000000000003,2,7,101,55,7,45,0.9500000000000004,0.22000000000000006,0.3000000000000001,0.08,4,1,4,2,9,1,5,2,2,0,17,7,Lc,0.10555555555555558,0.22000000000000006,0.060000000000000005,0.04
10,9,18,1,9,0.18000000000000002,3,5,19,78,115,35,2.859999999999987,0.01,0.04,0.01,12,1,2,1,40,1,2,1,4,0,16,7,Lc,0.07150000000000001,0.01,0.02,0.01
10,10,19,1,3,0.26000000000000006,2,7,28,32,25,31,0.4600000000000001,0.08,0.17,0.04,4,2,2,1,13,3,4,1,5,1,60,7,Lc,0.03538461538461539,0.026666666666666665,0.0425,0.04
10,10,20,1,1,0.7600000000000005,3,8,78,9,111,114,1.0000000000000004,0.09999999999999999,0.11999999999999998,0.03,5,2,2,1,12,3,2,1,3,0,13,7,Lc,0.08333333333333334,0.03333333333333333,0.05999999999999999,0.03
10,11,21,1,2,0.5200000000000002,3,8,50,100,48,98,0.6000000000000002,0.2800000000000001,0.2800000000000001,0.3000000000000001,5,4,3,5,10,6,3,6,4,0,13,7,Lc,0.060000000000000005,0.046666666666666676,0.09333333333333332,0.05
10,11,22,1,3,0.35000000000000014,3,5,35,25,28,116,0.47000000000000014,0.11999999999999998,1.0900000000000007,0.8400000000000005,4,2,3,6,6,3,13,7,5,0.5,32,7,Lc,0.07833333333333334,0.04,0.08384615384615385,0.12000000000000004
10,12,23,1,8,0.22000000000000006,2,4,114,41,111,115,0.26000000000000006,0.26000000000000006,0.38000000000000017,0.04,4,2,4,1,6,4,6,1,2,0.5,17,7,Lc,0.043333333333333335,0.065,0.06333333333333334,0.04
10,12,24,1,3,0.18000000000000002,2,4,28,64,81,32,0.25,0.12999999999999998,0.24000000000000007,0.05,4,1,3,1,6,2,3,1,5,0,17,7,Lc,0.041666666666666664,0.06499999999999999,0.08,0.05
10,13,25,1,9,0.25000000000000006,2,6,71,76,103,73,0.39,0.13999999999999999,0.38000000000000017,0.38000000000000017,4,2,2,5,8,3,3,6,4,0,12,7,Lc,0.048749999999999995,0.04666666666666667,0.1266666666666667,0.06333333333333335
10,13,26,1,7,0.2800000000000001,3,9,13,21,14,22,0.38000000000000006,0.04,1.6100000000000012,0.01,4,1,10,1,10,1,22,1,6,1,72,7,Lc,0.038,0.04,0.0731818181818182,0.01
10,14,27,1,4,0.10999999999999999,2,4,5,92,10,108,3.9199999999999626,0.01,0.01,0.11999999999999998,16,1,1,2,53,1,1,3,2,0,17,7,Lc,0.0739622641509434,0.01,0.01,0.04
10,14,28,1,3,0.24000000000000007,2,7,34,81,50,75,0.6400000000000002,0.22000000000000006,0.060000000000000005,0.17,6,1,1,3,13,1,1,5,5,0,15,7,Lc,0.04923076923076924,0.22000000000000006,0.060000000000000005,0.034
10,15,29,1,5,0.17,4,6,2,93,37,44,9.439999999999847,0.01,0.01,0.01,20,1,1,1,118,1,1,1,5,0,19,7,Lc,0.08,0.01,0.01,0.01
10,15,30,1,9,0.23000000000000007,2,4,25,62,65,75,0.32000000000000006,0.01,0.23000000000000007,0.24000000000000007,3,1,2,3,5,1,2,4,4,0,16,7,Lc,0.064,0.01,0.115,0.060000000000000005
10,16,31,1,7,0.3100000000000001,2,5,18,14,24,118,0.3300000000000001,2.259999999999996,0.01,0.07,4,10,1,2,7,29,1,2,6,0.5,38,7,Lc,0.04714285714285714,0.07793103448275862,0.01,0.035
10,16,32,1,6,0.6700000000000004,4,8,8,6,76,79,0.7600000000000003,1.0100000000000007,0.01,0.01,6,6,1,1,10,9,1,1,6,0,18,7,Lc,0.07600000000000001,0.11222222222222226,0.01,0.01
10,17,33,1,6,0.4200000000000002,2,4,11,91,6,2,0.4900000000000002,0.04,0.25000000000000006,0.5600000000000003,4,1,2,4,6,1,3,6,6,0.5,39,7,Lc,0.08166666666666668,0.04,0.08333333333333334,0.09333333333333335
10,17,34,1,9,0.4200000000000002,2,5,72,80,27,23,0.7300000000000003,0.35000000000000014,0.6900000000000004,0.01,4,4,7,1,9,8,8,1,4,0,18,7,Lc,0.08111111111111112,0.04375,0.08625000000000002,0.01
10,18,35,1,5,0.49000000000000027,2,6,38,74,83,37,0.5400000000000003,0.09999999999999999,0.3000000000000001,0.3100000000000001,4,1,3,3,8,1,3,3,5,0,16,7,Lc,0.0675,0.09999999999999999,0.1,0.10333333333333333
10,18,36,1,7,0.2700000000000001,3,5,16,13,17,66,0.42000000000000004,1.5600000000000012,0.01,0.12999999999999998,5,5,1,2,7,18,1,2,6,0.5,40,7,Lc,0.06,0.08666666666666668,0.01,0.065
10,19,37,1,7,0.18000000000000002,2,4,13,27,53,94,0.38000000000000006,0.07,0.2700000000000001,0.12999999999999998,4,1,2,1,6,1,2,1,6,0,18,7,Lc,0.06333333333333334,0.07,0.13499999999999998,0.12999999999999998
10,19,38,1,5,0.19000000000000003,2,3,38,43,44,84,0.26,0.24000000000000007,0.18000000000000002,0.2900000000000001,3,2,4,4,4,3,5,5,5,0.5,33,7,Lc,0.065,0.08000000000000002,0.036000000000000004,0.05800000000000001
10,20,39,1,7,0.5500000000000003,2,9,22,19,63,18,0.6200000000000003,0.04,0.47000000000000025,1.6500000000000012,4,1,3,10,11,1,3,20,6,0.5,40,7,Lc,0.056363636363636366,0.04,0.1566666666666667,0.08250000000000002
10,20,40,1,8,0.49000000000000027,3,7,119,57,42,95,0.7200000000000003,0.11999999999999998,0.3100000000000001,0.03,5,2,3,1,10,4,5,1,2,0,14,7,Lc,0.07200000000000001,0.030000000000000002,0.062000000000000006,0.03
10,21,41,1,1,0.16,3,3,16,44,75,116,2.4899999999999944,0.01,0.01,0.03,9,1,1,1,31,1,1,1,3,0,16,7,Lc,0.08032258064516129,0.01,0.01,0.03
10,21,42,1,6,0.22000000000000006,2,5,10,8,12,85,0.4300000000000001,1.0000000000000007,0.02,0.01,4,6,1,1,7,13,1,1,6,0.5,39,7,Lc,0.06142857142857144,0.07692307692307693,0.02,0.01
10,22,43,1,10,0.2800000000000001,2,3,86,88,95,25,0.44000000000000006,0.02,0.5300000000000002,0.09999999999999999,3,1,2,1,4,1,4,1,3,0.5,23,7,Lc,0.11,0.02,0.13250000000000003,0.09999999999999999
10,22,44,1,6,0.19000000000000003,2,3,2,11,43,6,0.29000000000000004,0.11999999999999998,1.290000000000001,0.02,3,2,7,1,4,3,11,1,6,0.5,41,7,Lc,0.0725,0.04,0.11727272727272729,0.02
11,1,1,0,9,0.19000000000000003,2,3,82,67,65,101,0.36000000000000004,0.01,0.08,0.05,3,1,1,1,4,1,1,1,4,0,13,7,Lc,0.09,0.01,0.08,0.05
11,1,2,0,10,0.13999999999999999,1,2,47,88,57,16,0.32,0.08,0.04,0.05,2,2,1,1,3,2,1,1,3,0,18,7,Lc,0.10666666666666667,0.04,0.04,0.05
11,2,3,0,10,0.25000000000000006,2,4,93,14,51,94,0.28,0.15,0.08,0.04,3,1,1,1,5,1,1,1,3,0,16,7,Lc,0.056,0.15,0.08,0.04
11,2,4,0,3,0.19000000000000003,2,3,35,75,98,81,0.31,0.04,0.10999999999999999,0.060000000000000005,4,1,1,1,5,1,1,1,5,0,13,7,Lc,0.062,0.04,0.10999999999999999,0.060000000000000005
11,3,5,0,3,0.35000000000000014,11,12,67,26,1,80,0.5600000000000002,0.25000000000000006,0.19000000000000003,0.01,12,2,2,1,13,3,2,1,5,0,18,7,Lc,0.04307692307692308,0.08333333333333336,0.095,0.01
11,3,6,0,2,0.34000000000000014,9,9,54,40,104,16,0.5300000000000001,0.46000000000000024,1.500000000000001,0.22000000000000006,10,2,3,3,10,2,3,3,4,0,17,7,Lc,0.053000000000000005,0.23000000000000012,0.5000000000000003,0.07333333333333333
11,4,7,0,4,0.23000000000000007,2,3,53,97,86,23,0.37000000000000005,0.04,0.4000000000000002,0.02,3,1,2,1,4,1,2,1,2,0,15,7,Lc,0.0925,0.04,0.2000000000000001,0.02
11,4,8,0,8,0.34000000000000014,12,13,111,39,1,38,0.4800000000000001,1.8100000000000014,0.12999999999999998,0.03,13,5,3,1,14,6,3,1,2,0,18,7,Lc,0.03428571428571429,0.3016666666666668,0.04333333333333333,0.03
11,5,9,0,6,0.46000000000000024,10,12,5,38,96,10,0.7800000000000004,0.03,0.11999999999999998,0.02,12,1,1,1,14,1,1,1,6,0,20,7,Lc,0.055714285714285716,0.03,0.11999999999999998,0.02
11,5,10,0,1,0.26000000000000006,4,5,80,64,111,81,0.7900000000000003,0.03,0.09999999999999999,0.09999999999999999,6,1,1,1,7,1,1,1,3,0,12,7,Lc,0.11285714285714289,0.03,0.09999999999999999,0.09999999999999999
11,6,11,0,8,0.17,2,3,117,112,47,63,0.34,0.01,0.08,0.060000000000000005,4,1,1,1,5,1,1,1,2,0,13,7,Lc,0.068,0.01,0.08,0.060000000000000005
11,6,12,0,4,0.3900000000000002,19,19,99,21,90,87,0.6100000000000002,0.07,0.5000000000000002,0.03,20,2,3,2,22,2,3,2,2,0,14,7,Lc,0.027727272727272725,0.035,0.1666666666666667,0.015
11,7,13,1,6,0.19000000000000003,2,3,83,5,72,2,0.39000000000000007,0.01,0.05,0.04,4,1,2,1,6,1,2,1,6,0,19,7,Lc,0.065,0.01,0.025,0.04
11,7,14,1,7,0.12999999999999998,2,3,21,95,20,45,0.6200000000000002,0.02,0.02,0.01,4,1,1,1,5,1,1,1,6,0,20,7,Lc,0.12400000000000004,0.02,0.02,0.01
11,8,15,1,3,0.12999999999999998,2,3,35,32,30,102,0.22999999999999998,0.01,0.11999999999999998,0.03,3,1,2,1,4,1,2,1,5,0.5,32,7,Lc,0.0575,0.01,0.060000000000000005,0.03
11,8,16,1,6,0.19000000000000003,2,4,10,70,46,40,0.26,0.23000000000000007,0.13999999999999999,0.02,4,1,1,1,6,1,1,1,6,0,20,7,Lc,0.043333333333333335,0.23000000000000007,0.13999999999999999,0.02
11,9,17,1,8,0.13999999999999999,1,2,111,95,70,87,0.26999999999999996,0.13999999999999999,0.060000000000000005,0.07,2,1,1,1,3,1,1,1,2,0,12,7,Lc,0.09,0.13999999999999999,0.060000000000000005,0.07
11,9,18,1,1,0.16,2,3,23,60,105,75,0.36000000000000004,0.3300000000000001,0.04,0.08,3,2,1,2,4,2,1,2,3,0,15,7,Lc,0.09000000000000001,0.16500000000000006,0.04,0.04
11,10,19,1,7,0.26000000000000006,2,3,20,70,61,112,0.43000000000000005,0.17,0.16,0.34000000000000014,4,3,2,1,5,3,2,1,6,0,16,7,Lc,0.086,0.056666666666666664,0.07999999999999999,0.34000000000000014
11,10,20,1,10,0.25000000000000006,9,10,89,88,92,32,0.39,0.03,0.04,0.3900000000000002,11,1,1,1,12,1,1,1,3,0.5,23,7,Lc,0.0325,0.03,0.04,0.3900000000000002
11,11,21,1,1,0.20000000000000004,2,3,76,73,28,50,0.45000000000000007,0.04,1.1900000000000008,0.05,4,1,3,1,5,1,3,1,3,0,15,7,Lc,0.09000000000000001,0.04,0.39666666666666694,0.05
11,11,22,1,10,0.16,1,2,4,87,101,44,0.41000000000000003,0.01,0.21000000000000005,0.04,2,1,2,1,3,1,2,1,3,0,16,7,Lc,0.1366666666666667,0.01,0.10500000000000002,0.04
11,12,23,1,9,0.18000000000000002,2,3,69,64,87,4,0.3,0.13999999999999999,0.01,0.07,4,2,1,2,5,3,1,2,4,0,17,7,Lc,0.06,0.04666666666666666,0.01,0.035
11,12,24,1,1,0.16,2,3,82,24,53,120,0.33,0.10999999999999999,0.060000000000000005,0.04,3,1,1,1,4,1,1,1,3,0,15,7,Lc,0.0825,0.10999999999999999,0.060000000000000005,0.04
11,13,25,1,1,0.25000000000000006,2,3,73,59,58,82,0.43000000000000005,0.05,0.09999999999999999,0.01,4,1,2,1,5,1,2,1,3,0,14,7,Lc,0.08600000000000001,0.05,0.049999999999999996,0.01
11,13,26,1,10,0.5100000000000002,7,9,6,97,100,4,0.7400000000000003,2.109999999999999,1.460000000000001,0.01,8,3,8,1,10,4,9,1,3,0,16,7,Lc,0.07400000000000002,0.5275000000000003,0.16222222222222227,0.01
11,14,27,1,3,0.24000000000000007,3,4,35,54,57,56,0.3500000000000001,0.2700000000000001,0.23000000000000007,0.03,5,1,1,1,6,1,1,1,5,0.5,29,7,Lc,0.058333333333333334,0.2700000000000001,0.23000000000000007,0.03
11,14,28,1,8,0.17,2,3,114,19,69,14,0.22000000000000003,0.17,1.420000000000001,0.01,4,1,3,1,5,1,3,1,2,0,18,7,Lc,0.044000000000000004,0.17,0.47333333333333366,0.01
11,15,29,1,8,0.20000000000000004,2,3,112,82,115,70,0.30000000000000004,1.260000000000001,1.7800000000000014,0.3300000000000001,4,3,3,2,5,3,4,2,2,0,11,7,Lc,0.06,0.42000000000000026,0.4450000000000003,0.16500000000000004
11,15,30,1,10,0.6000000000000003,11,11,91,102,52,93,0.6100000000000003,0.09,0.16,2.4699999999999913,12,2,1,3,12,2,1,4,3,0,12,7,Lc,0.05083333333333334,0.045,0.16,0.6174999999999998
11,16,31,1,8,0.23000000000000007,3,5,119,110,28,73,0.4100000000000001,0.03,0.18000000000000002,0.05,4,1,1,1,6,1,1,1,2,0,12,7,Lc,0.06833333333333334,0.03,0.18000000000000002,0.05
11,16,32,1,7,0.35000000000000014,11,13,52,18,85,44,0.5400000000000001,0.04,0.38000000000000017,0.01,12,1,2,1,14,1,3,1,6,0,18,7,Lc,0.038571428571428576,0.04,0.12666666666666668,0.01
11,17,33,1,7,0.19000000000000003,2,3,17,53,59,102,0.34,0.02,0.07,0.3200000000000001,4,1,1,2,5,1,1,2,6,0,16,7,Lc,0.068,0.02,0.07,0.16
11,17,34,1,8,0.2900000000000001,9,9,117,118,71,80,0.32000000000000006,0.060000000000000005,0.21000000000000005,0.02,10,1,2,1,10,1,3,1,2,0,11,7,Lc,0.032,0.060000000000000005,0.06999999999999999,0.02
11,18,35,1,8,0.21000000000000005,5,5,113,13,92,70,0.35000000000000003,0.13999999999999999,0.8100000000000005,0.5400000000000003,7,1,4,3,7,1,4,3,2,0,15,7,Lc,0.05,0.13999999999999999,0.20250000000000004,0.18000000000000005
11,18,36,1,2,0.6300000000000003,5,5,103,76,80,75,0.8300000000000004,0.9600000000000006,0.6500000000000004,0.02,6,3,3,1,6,3,3,1,4,0.5,20,7,Lc,0.13833333333333336,0.3200000000000001,0.21666666666666673,0.02
11,19,37,1,1,0.15,2,3,80,79,54,113,0.26999999999999996,0.02,0.12999999999999998,0.060000000000000005,3,1,2,2,4,1,3,2,3,0,12,7,Lc,0.0675,0.02,0.043333333333333335,0.03
11,19,38,1,6,0.15,3,3,2,8,96,70,0.3,0.02,0.26000000000000006,0.04,4,1,1,1,4,1,1,1,6,0,19,7,Lc,0.075,0.02,0.26000000000000006,0.04
11,20,39,1,3,0.21000000000000005,3,4,36,33,32,94,0.36000000000000004,0.04,0.060000000000000005,0.09999999999999999,4,1,1,1,5,1,1,1,5,0.5,33,7,Lc,0.072,0.04,0.060000000000000005,0.09999999999999999
11,20,40,1,1,0.15,2,3,74,80,66,17,0.29,1.0800000000000007,0.03,0.08,4,3,1,2,5,3,1,2,3,0,16,7,Lc,0.057999999999999996,0.3600000000000002,0.03,0.04
11,21,41,1,5,0.22000000000000006,2,3,68,43,3,65,0.38000000000000006,0.01,0.21000000000000005,0.01,3,1,2,1,4,1,2,1,5,0,19,7,Lc,0.095,0.01,0.10500000000000001,0.01
11,21,42,1,3,0.4400000000000002,12,13,25,50,79,34,0.46000000000000024,0.8300000000000005,1.5500000000000012,0.3100000000000001,13,3,2,2,14,3,2,2,5,0,17,7,Lc,0.032857142857142856,0.2766666666666668,0.7750000000000006,0.155
11,22,43,1,3,0.10999999999999999,2,2,64,77,13,14,1.2300000000000009,0.05,0.01,0.11999999999999998,6,1,1,1,7,1,1,1,5,0,19,7,Lc,0.17571428571428577,0.05,0.01,0.11999999999999998
11,22,44,1,6,0.23000000000000007,2,4,7,2,40,55,0.37000000000000005,0.12999999999999998,0.07,0.6100000000000003,4,1,2,2,6,1,2,2,6,0,21,7,Lc,0.06166666666666666,0.12999999999999998,0.035,0.30500000000000016
12,1,1,0,8,0.4300000000000002,2,7,109,111,19,16,1.3700000000000008,0.03,0.10999999999999999,0.08,4,1,1,1,14,1,1,1,2,0,16,7,Lc,0.09785714285714286,0.03,0.10999999999999999,0.08
12,1,2,0,6,0.2700000000000001,2,6,2,32,5,9,1.1300000000000006,0.09,0.09999999999999999,0.10999999999999999,4,1,2,2,14,1,3,2,6,0.5,41,7,Lc,0.08071428571428574,0.09,0.03333333333333333,0.05500000000000001
12,2,3,0,2,0.3900000000000002,2,4,52,113,16,22,0.9900000000000004,0.2800000000000001,0.17,0.07,4,2,2,1,8,2,3,1,4,0,18,7,Lc,0.12375000000000001,0.14,0.05666666666666667,0.07
12,2,4,0,4,0.3100000000000001,2,5,103,98,82,97,0.9700000000000004,0.4300000000000002,0.10999999999999999,0.060000000000000005,4,2,2,1,11,3,2,1,2,0.5,15,7,Lc,0.0881818181818182,0.14333333333333334,0.055,0.060000000000000005
12,3,5,0,1,0.5300000000000002,3,6,74,80,23,21,1.1600000000000006,0.26000000000000006,0.04,0.24000000000000007,5,1,1,2,8,1,1,4,3,0,18,7,Lc,0.14500000000000002,0.26000000000000006,0.04,0.06
12,3,6,0,6,0.21000000000000005,2,3,2,68,40,61,0.6600000000000003,0.46000000000000024,0.12999999999999998,0.21000000000000005,4,2,1,2,5,3,1,2,6,0,19,7,Lc,0.13200000000000003,0.15333333333333338,0.12999999999999998,0.10500000000000001
12,4,7,0,3,0.37000000000000016,3,6,27,12,58,1,0.8600000000000004,2.149999999999998,0.20000000000000004,0.01,5,5,1,1,8,17,1,1,5,0,21,7,Lc,0.10750000000000003,0.12647058823529414,0.20000000000000004,0.01
12,4,8,0,7,0.4000000000000002,3,5,19,18,16,68,1.1300000000000006,0.25000000000000006,2.7799999999999847,0.15,5,2,12,1,13,3,27,1,6,0.5,40,7,Lc,0.08692307692307694,0.08333333333333333,0.10296296296296296,0.15
12,5,9,0,5,0.36000000000000015,2,4,41,43,46,77,1.2000000000000006,0.09,0.20000000000000004,0.18000000000000002,5,1,2,2,9,2,3,5,5,0.5,33,7,Lc,0.13333333333333336,0.045,0.06666666666666667,0.036000000000000004
12,5,10,0,7,0.3300000000000001,2,10,14,20,97,107,1.1600000000000006,0.20000000000000004,0.03,0.16,4,2,1,2,16,2,1,3,6,0,16,7,Lc,0.07250000000000001,0.09999999999999999,0.03,0.05333333333333334
12,6,11,0,3,0.25000000000000006,2,3,31,70,119,34,0.9300000000000004,0.37000000000000016,0.22000000000000006,0.5100000000000002,4,2,2,3,7,5,4,4,5,0,16,7,Lc,0.13285714285714287,0.074,0.055,0.12750000000000003
12,6,12,0,4,0.4100000000000002,3,5,75,99,41,77,1.3100000000000007,0.07,0.09999999999999999,0.21000000000000005,5,1,1,2,8,1,1,5,2,0,13,7,Lc,0.16375000000000003,0.07,0.09999999999999999,0.041999999999999996
12,7,13,1,2,0.34000000000000014,2,3,55,102,38,47,1.1000000000000005,0.060000000000000005,0.4000000000000002,0.09,4,1,3,2,11,1,3,2,4,0,16,7,Lc,0.1,0.060000000000000005,0.13333333333333333,0.045
12,7,14,1,3,0.24000000000000007,3,3,29,34,80,66,0.7600000000000003,0.13999999999999999,0.4100000000000002,0.2700000000000001,5,1,3,2,6,1,3,5,5,0,17,7,Lc,0.12666666666666668,0.13999999999999999,0.1366666666666667,0.054
12,8,15,1,9,0.36000000000000015,5,7,70,63,22,14,1.0900000000000005,0.09,0.2900000000000001,0.15,7,1,2,1,13,1,6,1,4,0,20,7,Lc,0.08384615384615386,0.09,0.04833333333333333,0.15
12,8,16,1,1,0.3300000000000001,2,5,115,60,74,83,1.1600000000000006,0.15,0.060000000000000005,0.3100000000000001,4,2,1,3,12,2,1,6,3,0,12,7,Lc,0.09666666666666666,0.07499999999999998,0.060000000000000005,0.05166666666666667
12,9,17,1,9,0.36000000000000015,4,6,67,71,75,77,1.2100000000000006,0.10999999999999999,0.2900000000000001,0.5800000000000003,6,1,3,2,11,1,7,3,4,0,14,7,Lc,0.11000000000000003,0.10999999999999999,0.04142857142857143,0.1933333333333334
12,9,18,1,7,0.34000000000000014,2,5,16,109,19,24,0.9500000000000004,0.4300000000000002,0.03,0.25000000000000006,6,2,1,2,12,2,1,2,6,0.5,38,7,Lc,0.07916666666666668,0.21500000000000002,0.03,0.12499999999999999
12,10,19,1,2,0.20000000000000004,4,4,1,57,89,119,3.5599999999999725,0.01,0.15,0.01,13,1,3,1,31,1,3,1,4,0,15,7,Lc,0.11483870967741938,0.01,0.05,0.01
12,10,20,1,1,0.2700000000000001,3,5,82,75,102,64,1.0300000000000005,0.09999999999999999,0.15,0.08,6,1,1,1,15,1,1,1,3,0,12,7,Lc,0.06866666666666667,0.09999999999999999,0.15,0.08
12,11,21,1,9,0.3000000000000001,2,5,70,69,71,88,1.0000000000000004,0.09999999999999999,0.11999999999999998,0.5000000000000002,4,1,1,2,11,2,1,5,4,0.5,27,7,Lc,0.09090909090909091,0.049999999999999996,0.11999999999999998,0.1
12,11,22,1,7,0.3300000000000001,3,6,24,14,73,119,0.8700000000000003,0.17,0.7200000000000004,0.18000000000000002,5,1,2,2,10,1,3,3,6,0,17,7,Lc,0.08700000000000002,0.17,0.24000000000000007,0.06
12,12,23,1,4,0.26000000000000006,2,3,108,51,59,55,0.8700000000000003,0.5300000000000002,0.02,0.09,4,3,1,2,13,5,1,2,2,0.5,26,7,Lc,0.06692307692307692,0.106,0.02,0.045
12,12,24,1,10,0.2900000000000001,2,6,24,86,115,116,0.9500000000000004,0.12999999999999998,0.4200000000000002,0.08,3,1,3,2,7,1,6,2,3,0,13,7,Lc,0.13571428571428576,0.12999999999999998,0.06999999999999999,0.04
12,13,25,1,1,0.3200000000000001,4,6,80,84,61,17,0.8700000000000003,0.15,0.36000000000000015,0.07,6,2,2,1,11,3,4,1,3,0,16,7,Lc,0.0790909090909091,0.05,0.09,0.07
12,13,26,1,6,0.23000000000000007,2,3,10,55,90,53,0.7200000000000003,0.4300000000000002,0.36000000000000015,0.11999999999999998,4,2,2,1,9,4,4,1,6,0,17,7,Lc,0.08000000000000002,0.10750000000000001,0.09,0.11999999999999998
12,14,27,1,1,0.2800000000000001,3,5,78,13,112,119,0.8700000000000003,0.38000000000000017,0.18000000000000002,0.02,5,2,2,1,11,5,3,1,3,0,13,7,Lc,0.0790909090909091,0.07600000000000001,0.060000000000000005,0.02
12,14,28,1,10,0.2700000000000001,2,7,89,86,66,11,0.9300000000000004,0.34000000000000014,0.07,0.060000000000000005,6,2,1,1,16,3,1,1,3,0,16,7,Lc,0.058125,0.11333333333333333,0.07,0.060000000000000005
12,15,29,1,10,0.34000000000000014,4,5,85,61,36,89,1.0000000000000004,0.46000000000000024,0.20000000000000004,0.02,6,2,2,1,11,5,3,1,3,0,15,7,Lc,0.09090909090909091,0.09200000000000001,0.06666666666666667,0.02
12,15,30,1,6,0.25000000000000006,2,4,4,8,80,97,0.7700000000000002,0.8400000000000005,0.34000000000000014,0.02,4,4,2,1,6,6,2,1,6,0,17,7,Lc,0.12833333333333335,0.14,0.17000000000000004,0.02
12,16,31,1,6,0.3000000000000001,3,4,87,12,11,38,1.1700000000000006,0.03,0.10999999999999999,1.390000000000001,5,1,2,4,13,1,3,8,6,0,20,7,Lc,0.09,0.03,0.03666666666666667,0.17375000000000004
12,16,32,1,1,0.34000000000000014,3,5,82,52,78,13,0.6500000000000002,0.46000000000000024,0.2900000000000001,0.05,5,2,2,1,7,3,4,1,3,0,16,7,Lc,0.09285714285714287,0.15333333333333335,0.07250000000000001,0.05
12,17,33,1,6,0.26000000000000006,2,5,86,54,10,3,1.0400000000000005,0.38000000000000017,0.05,0.26000000000000006,5,3,1,4,8,6,1,4,6,0,19,7,Lc,0.13000000000000003,0.06333333333333332,0.05,0.065
12,17,34,1,9,0.2700000000000001,2,4,72,82,17,71,0.7500000000000003,0.6200000000000003,0.15,0.03,4,3,2,1,8,6,2,1,4,0,17,7,Lc,0.09375000000000001,0.10333333333333335,0.07499999999999998,0.03
12,18,35,1,4,0.2900000000000001,4,7,100,74,10,104,0.8000000000000003,0.6700000000000004,0.03,0.09999999999999999,6,2,1,2,11,5,1,2,2,0,13,7,Lc,0.07272727272727272,0.134,0.03,0.05
12,18,36,1,10,0.2800000000000001,2,3,96,41,44,110,1.0700000000000005,0.08,0.17,0.16,4,1,1,2,7,1,1,3,3,0,15,7,Lc,0.15285714285714289,0.08,0.17,0.05333333333333334
12,19,37,1,2,0.34000000000000014,2,4,50,58,46,39,1.2400000000000007,0.16,1.5300000000000011,0.01,4,2,5,1,12,2,10,1,4,0,18,7,Lc,0.10333333333333336,0.07999999999999999,0.15300000000000005,0.01
12,19,38,1,9,0.2700000000000001,2,5,65,100,77,71,0.8600000000000003,0.4200000000000002,0.09999999999999999,0.05,4,2,2,1,11,2,2,1,4,0,13,7,Lc,0.07818181818181819,0.21000000000000008,0.05,0.05
12,20,39,1,3,0.21000000000000005,2,3,29,108,106,61,0.8300000000000004,0.2700000000000001,0.09,0.07,4,2,1,2,11,2,1,3,5,0,13,7,Lc,0.07545454545454545,0.13499999999999998,0.09,0.023333333333333334
12,20,40,1,8,0.24000000000000007,2,5,113,115,2,74,1.1000000000000005,1.2300000000000009,0.38000000000000017,0.01,4,4,2,1,19,10,2,1,2,0,13,7,Lc,0.05789473684210526,0.12300000000000003,0.19000000000000009,0.01
12,21,41,1,7,0.5900000000000003,5,9,21,116,71,77,1.0600000000000005,1.9400000000000015,1.1700000000000008,0.5300000000000002,7,3,9,6,17,14,11,7,6,0,15,7,Lc,0.06235294117647059,0.1385714285714286,0.10636363636363638,0.07571428571428572
12,21,42,1,10,0.4000000000000002,2,3,87,55,101,56,1.1400000000000006,0.04,0.21000000000000005,0.13999999999999999,5,1,1,2,15,1,1,2,3,0,13,7,Lc,0.07600000000000001,0.04,0.21000000000000005,0.07
12,22,43,1,10,0.3000000000000001,2,5,86,59,3,57,0.6700000000000003,0.6300000000000003,0.03,0.4100000000000002,4,3,1,3,9,10,1,4,3,0,17,7,Lc,0.07444444444444445,0.063,0.03,0.10250000000000002
12,22,44,1,5,0.3100000000000001,2,4,14,44,23,21,1.1400000000000006,0.10999999999999999,0.15,0.2900000000000001,5,1,3,3,7,1,4,6,5,0.5,41,7,Lc,0.16285714285714292,0.10999999999999999,0.0375,0.04833333333333333
13,1,1,0,8,0.20000000000000004,2,3,115,114,46,55,0.4000000000000001,0.09999999999999999,0.11999999999999998,0.6900000000000004,4,1,1,2,5,1,1,2,2,0,13,7,Lc,0.08,0.09999999999999999,0.11999999999999998,0.3450000000000002
13,1,2,0,4,0.19000000000000003,2,3,66,100,36,26,0.5700000000000002,0.03,0.26000000000000006,0.02,4,1,2,1,5,1,2,1,2,0,16,7,Lc,0.11400000000000003,0.03,0.13000000000000003,0.02
13,2,3,0,9,0.17,2,3,69,107,42,48,0.4000000000000001,0.11999999999999998,0.09,0.05,4,1,1,1,5,1,1,1,4,0,16,7,Lc,0.07999999999999999,0.11999999999999998,0.09,0.05
13,2,4,0,2,0.24000000000000007,6,7,60,30,10,4,0.4100000000000001,0.26000000000000006,2.53999999999999,0.02,8,1,5,1,9,1,7,1,4,0,21,7,Lc,0.04555555555555556,0.26000000000000006,0.36285714285714304,0.02
13,3,5,0,1,0.22000000000000006,2,4,82,28,84,113,0.4800000000000001,0.16,0.01,0.17,4,2,1,2,7,2,1,2,3,0,13,7,Lc,0.06857142857142857,0.08,0.01,0.08499999999999999
13,3,6,0,9,0.16,2,3,64,98,106,66,0.31,0.3300000000000001,0.12999999999999998,0.01,4,2,1,1,5,2,1,1,4,0,12,7,Lc,0.062,0.165,0.12999999999999998,0.01
13,4,7,0,8,0.17,2,3,83,116,7,30,0.4800000000000001,0.01,0.15,0.03,3,1,1,1,4,1,1,1,2,0,16,7,Lc,0.12000000000000002,0.01,0.15,0.03
13,4,8,0,5,0.3900000000000002,19,21,61,69,20,46,0.8000000000000004,0.01,0.37000000000000016,0.45000000000000023,20,1,3,4,25,1,4,4,5,0,19,7,Lc,0.032,0.01,0.09250000000000003,0.11250000000000004
13,5,9,0,7,0.36000000000000015,14,15,112,13,23,19,0.6100000000000002,0.09,0.2800000000000001,0.38000000000000017,16,1,2,2,18,1,2,2,6,0.5,38,7,Lc,0.03388888888888889,0.09,0.14000000000000004,0.19000000000000009
13,5,10,0,4,0.20000000000000004,2,4,99,105,104,69,0.4900000000000001,0.05,0.09,0.12999999999999998,3,1,1,2,5,1,1,2,2,0.5,16,7,Lc,0.09800000000000002,0.05,0.09,0.065
13,6,11,0,8,0.25000000000000006,2,4,111,117,68,67,0.4600000000000001,1.260000000000001,0.01,0.01,4,2,1,1,6,2,1,1,2,0,12,7,Lc,0.07666666666666667,0.6300000000000004,0.01,0.01
13,6,12,0,1,0.16,2,3,13,97,40,102,0.7200000000000003,0.02,0.09,0.05,4,1,1,1,5,1,1,1,3,0,15,7,Lc,0.14400000000000004,0.02,0.09,0.05
13,7,13,1,7,0.18000000000000002,2,3,115,19,23,117,0.39000000000000007,0.15,0.01,0.13999999999999999,3,2,1,2,4,2,1,3,6,0,16,7,Lc,0.09750000000000002,0.075,0.01,0.04666666666666667
13,7,14,1,10,0.15,2,4,88,87,47,48,0.35000000000000003,0.07,0.3000000000000001,0.060000000000000005,3,1,2,1,5,1,3,1,3,0,16,7,Lc,0.07,0.07,0.10000000000000002,0.060000000000000005
13,8,15,1,2,0.20000000000000004,4,5,58,49,30,8,0.45000000000000007,1.0600000000000007,0.09,1.1500000000000008,6,4,2,3,7,6,2,3,4,0,19,7,Lc,0.06428571428571428,0.17666666666666672,0.045000000000000005,0.3833333333333335
