Subject,Round,Phase,afterbreak,Schema,Schema_RT,Schema_OB,Schema_AS,Cho_1,Cho_2,Cho_3,Cho_4,RT_1,RT_2,RT_3,RT_4,OB_1,OB_2,OB_3,OB_4,AS_1,AS_2,AS_3,AS_4,schema_payoff,AC,performance,breakR,type,dwellmean_1,dwellmean_2,dwellmean_3,dwellmean_4
1,1,1,0,6,0.26000000000000006,2,3,6,93,25,8,1.8000000000000012,1.8500000000000014,1.2300000000000009,3.229999999999975,6,3,4,7,9,4,4,9,6,0,20,7,H,0.20000000000000007,0.46250000000000024,0.3075000000000001,0.35888888888888903
1,1,2,0,9,0.3000000000000001,2,4,24,44,72,13,2.2000000000000015,2.389999999999993,0.04,0.10999999999999999,3,5,1,1,5,6,1,1,4,0,21,7,H,0.4400000000000003,0.39833333333333354,0.04,0.10999999999999999
1,2,3,0,7,0.2800000000000001,2,5,116,34,114,19,4.079999999999963,0.09999999999999999,0.3200000000000001,0.04,10,1,1,1,17,1,1,1,6,0,15,7,H,0.2400000000000001,0.09999999999999999,0.3200000000000001,0.04
1,2,4,0,5,0.2800000000000001,2,3,100,11,84,82,5.599999999999931,1.1300000000000008,0.11999999999999998,0.05,9,2,2,1,13,2,2,1,5,0,14,7,H,0.4307692307692309,0.5650000000000004,0.06,0.05
1,3,5,0,9,0.34000000000000014,2,3,64,107,72,106,2.1700000000000017,2.4599999999999915,0.7400000000000004,0.04,7,7,3,1,9,8,3,1,4,0,12,7,H,0.2411111111111112,0.3075000000000001,0.24666666666666676,0.04
1,3,6,0,2,0.3300000000000001,5,5,109,113,88,91,4.479999999999956,8.539999999999862,0.01,1.0400000000000007,14,14,1,4,18,27,1,4,4,0,10,7,H,0.248888888888889,0.31629629629629646,0.01,0.26000000000000006
1,4,7,0,9,0.34000000000000014,2,3,30,35,67,36,3.309999999999981,0.7200000000000004,0.4400000000000002,1.420000000000001,6,2,2,3,14,2,2,3,4,0.5,19,7,H,0.23642857142857152,0.36000000000000015,0.22000000000000008,0.47333333333333355
1,4,8,0,10,0.48000000000000026,5,6,85,91,97,87,2.350000000000002,0.48000000000000026,3.3599999999999723,0.01,9,1,5,1,12,1,9,1,3,0.5,11,7,H,0.19583333333333341,0.48000000000000026,0.3733333333333335,0.01
1,5,9,0,9,0.37000000000000016,2,3,62,71,13,69,2.4999999999999987,2.8899999999999824,2.209999999999997,0.01,9,5,6,1,12,10,11,1,4,0.5,18,7,H,0.2083333333333334,0.28900000000000015,0.20090909090909098,0.01
1,5,10,0,2,0.48000000000000026,9,9,1,7,86,49,8.879999999999866,2.869999999999983,0.01,0.01,20,6,1,1,27,10,1,1,4,0,19,7,H,0.328888888888889,0.28700000000000014,0.01,0.01
1,6,11,0,7,0.24000000000000007,2,3,98,19,50,15,4.66999999999995,0.04,0.09,0.03,12,1,1,1,18,1,1,1,6,0,18,7,H,0.25944444444444453,0.04,0.09,0.03
1,6,12,0,9,0.13999999999999999,1,2,81,6,73,72,2.9399999999999844,0.48000000000000026,0.49000000000000027,0.05,6,2,2,1,9,2,2,1,4,0,16,7,H,0.3266666666666668,0.24000000000000005,0.24500000000000008,0.05
1,7,13,1,13,0.5000000000000002,2,4,83,111,57,51,2.6599999999999984,0.38000000000000017,0.8500000000000005,0.38000000000000017,6,1,2,1,12,1,2,1,2,0,13,7,H,0.22166666666666673,0.38000000000000017,0.4250000000000002,0.38000000000000017
1,7,14,1,14,0.7800000000000005,15,16,86,67,93,46,2.490000000000002,1.320000000000001,0.9100000000000006,0.18000000000000002,20,3,3,1,25,3,4,1,3,0,15,7,H,0.09960000000000002,0.44000000000000017,0.2275000000000001,0.18000000000000002
1,8,15,1,15,0.37000000000000016,2,5,23,22,13,87,1.520000000000001,1.6800000000000013,2.869999999999983,0.26000000000000006,4,5,5,2,7,8,5,2,6,0.5,21,7,H,0.21714285714285725,0.21000000000000005,0.5740000000000004,0.13000000000000003
1,8,16,1,12,0.36000000000000015,2,5,83,118,48,39,2.679999999999995,1.0100000000000007,0.11999999999999998,0.12999999999999998,8,2,2,1,15,2,2,1,5,0,15,7,H,0.17866666666666672,0.5050000000000002,0.05999999999999999,0.12999999999999998
1,9,17,1,3,0.8300000000000005,8,12,30,16,13,14,2.700000000000002,0.7200000000000004,2.2799999999999954,1.350000000000001,13,3,5,8,17,4,8,8,5,0.5,23,7,H,0.15882352941176475,0.18000000000000005,0.28500000000000014,0.16875000000000007
1,9,18,1,8,0.35000000000000014,2,3,39,46,102,4,4.569999999999955,0.34000000000000014,0.04,0.35000000000000014,10,1,1,2,14,1,1,2,2,0,18,7,H,0.32642857142857157,0.34000000000000014,0.04,0.17500000000000002
1,10,19,1,1,0.5300000000000002,2,5,17,73,15,35,2.61,0.5900000000000003,0.4200000000000002,0.46000000000000024,4,3,2,2,12,3,3,4,3,0,20,7,H,0.21750000000000008,0.19666666666666668,0.14,0.115
1,10,20,1,13,0.4300000000000002,2,4,112,85,119,96,3.2799999999999834,1.340000000000001,0.09,0.2800000000000001,10,3,2,1,12,3,2,2,2,0,10,7,H,0.27333333333333343,0.4466666666666669,0.045,0.14
1,11,21,1,13,0.47000000000000025,2,5,116,94,8,52,2.779999999999995,0.6200000000000003,0.23000000000000007,0.7200000000000004,5,2,2,4,9,3,3,4,2,0,15,7,H,0.30888888888888905,0.20666666666666672,0.07666666666666666,0.18000000000000005
1,11,22,1,11,0.36000000000000015,2,6,70,69,28,15,2.2100000000000017,1.500000000000001,0.9000000000000006,1.5200000000000011,5,4,2,3,13,6,2,3,4,0,19,7,H,0.17000000000000007,0.2500000000000001,0.4500000000000002,0.5066666666666669
1,12,23,1,7,0.15,3,3,1,10,77,30,1.4700000000000009,0.6200000000000003,3.1999999999999758,0.01,5,1,7,1,6,1,11,1,6,0,20,7,H,0.24500000000000013,0.6200000000000003,0.29090909090909106,0.01
1,12,24,1,12,0.26000000000000006,2,3,61,41,62,90,1.8800000000000012,0.5300000000000002,0.8600000000000005,0.7800000000000005,4,4,4,2,8,6,4,4,5,0,16,7,H,0.2350000000000001,0.08833333333333333,0.21500000000000005,0.19500000000000006
1,13,25,1,7,0.4400000000000002,5,6,9,1,63,77,2.5799999999999987,2.0500000000000003,0.36000000000000015,0.12999999999999998,8,4,2,1,11,6,2,1,6,0,19,7,H,0.23454545454545464,0.34166666666666684,0.18000000000000005,0.12999999999999998
1,13,26,1,15,0.49000000000000027,3,3,13,112,120,109,4.6699999999999555,0.08,0.02,0.10999999999999999,11,2,1,1,16,2,1,1,6,0.5,12,7,H,0.2918750000000001,0.04,0.02,0.10999999999999999
1,14,27,1,3,0.36000000000000015,2,4,25,33,56,27,3.099999999999986,0.5900000000000003,0.21000000000000005,0.5400000000000003,9,5,1,2,12,5,1,2,5,0.5,19,7,H,0.2583333333333334,0.11800000000000002,0.21000000000000005,0.27000000000000013
1,14,28,1,12,0.5600000000000003,3,4,83,39,23,42,3.1999999999999877,0.5000000000000002,0.3300000000000001,0.07,7,2,1,1,11,2,1,1,5,0,19,7,H,0.29090909090909106,0.25000000000000006,0.3300000000000001,0.07
1,15,29,1,15,1.1200000000000008,12,14,28,60,75,50,3.0800000000000023,0.36000000000000015,0.3100000000000001,0.37000000000000016,18,1,1,2,24,1,1,2,6,0,16,7,H,0.12833333333333335,0.36000000000000015,0.3100000000000001,0.18500000000000003
1,15,30,1,11,0.18000000000000002,2,5,72,71,88,38,1.0700000000000005,1.2000000000000008,0.22000000000000006,3.369999999999972,4,3,1,5,7,3,1,9,4,0,16,7,H,0.1528571428571429,0.4000000000000002,0.22000000000000006,0.37444444444444464
1,16,31,1,8,3.2599999999999745,8,15,36,105,54,99,4.6099999999999755,0.18000000000000002,0.8500000000000005,0.23000000000000007,11,2,3,1,19,2,4,1,2,0,13,7,H,0.24263157894736853,0.09,0.21250000000000005,0.23000000000000007
1,16,32,1,13,0.3000000000000001,3,4,114,117,39,110,3.5799999999999743,2.249999999999996,0.04,0.3000000000000001,12,5,1,2,18,6,1,2,2,0.5,11,7,H,0.19888888888888895,0.3750000000000002,0.04,0.15000000000000005
1,17,33,1,7,3.049999999999979,9,12,33,88,58,96,4.139999999999979,1.440000000000001,0.34000000000000014,0.11999999999999998,11,3,2,1,14,3,3,1,6,0,15,7,H,0.2957142857142859,0.48000000000000026,0.11333333333333336,0.11999999999999998
1,17,34,1,15,0.3000000000000001,2,3,15,16,21,41,2.1300000000000017,0.4100000000000002,0.47000000000000025,0.6800000000000004,8,2,3,2,14,2,3,3,6,0.5,23,7,H,0.1521428571428572,0.20500000000000007,0.1566666666666667,0.22666666666666677
1,18,35,1,7,0.3200000000000001,2,3,9,57,97,54,2.2300000000000018,1.440000000000001,0.11999999999999998,0.20000000000000004,5,3,1,2,10,4,1,2,6,0,16,7,H,0.2230000000000001,0.3600000000000002,0.11999999999999998,0.09999999999999999
1,18,36,1,14,3.1299999999999772,6,11,111,28,31,93,5.3199999999999745,0.34000000000000014,0.24000000000000007,2.1299999999999986,10,1,1,5,18,1,1,7,3,0,15,7,H,0.2955555555555557,0.34000000000000014,0.24000000000000007,0.30428571428571444
1,19,37,1,15,1.8000000000000014,5,7,48,88,90,51,12.619999999999814,0.02,0.10999999999999999,0.01,17,1,2,1,32,1,2,1,6,0,15,7,H,0.3943750000000002,0.02,0.055,0.01
1,19,38,1,3,0.9100000000000006,7,9,32,10,7,106,2.950000000000001,0.9300000000000006,0.6200000000000003,0.4100000000000002,12,2,4,3,15,2,4,3,5,0,19,7,H,0.19666666666666674,0.46500000000000025,0.15500000000000003,0.1366666666666667
1,20,39,1,3,0.18000000000000002,2,4,28,91,19,90,1.4700000000000009,0.7800000000000005,2.4699999999999913,0.45000000000000023,4,2,4,2,6,2,7,2,5,0,17,7,H,0.2450000000000001,0.3900000000000001,0.35285714285714304,0.2250000000000001
1,20,40,1,8,0.2700000000000001,4,4,97,102,1,59,6.629999999999909,0.20000000000000004,3.7799999999999634,0.02,16,2,7,1,30,2,9,1,2,0,14,7,H,0.22100000000000009,0.10000000000000002,0.42000000000000026,0.02
1,21,41,1,1,0.48000000000000026,6,8,74,16,83,37,2.1600000000000015,0.9200000000000006,1.9700000000000015,0.15,10,3,4,3,14,4,5,3,3,0,17,7,H,0.15428571428571433,0.2300000000000001,0.39400000000000024,0.049999999999999996
1,21,42,1,14,0.3100000000000001,2,4,87,51,85,92,2.5899999999999954,0.8500000000000005,0.2800000000000001,0.8300000000000005,10,5,1,4,12,6,1,4,3,0.5,13,7,H,0.2158333333333334,0.14166666666666666,0.2800000000000001,0.20750000000000007
2,1,1,0,4,0.6000000000000003,2,7,46,104,40,5,6.90999999999991,0.2800000000000001,0.35000000000000014,1.2000000000000008,11,2,2,3,31,3,2,5,2,0,18,7,H,0.2229032258064517,0.09333333333333334,0.17500000000000007,0.24000000000000007
2,1,2,0,2,0.3100000000000001,2,3,87,111,53,58,6.039999999999923,0.3100000000000001,0.13999999999999999,0.05,11,1,2,1,27,1,2,1,4,0,13,7,H,0.22370370370370377,0.3100000000000001,0.07,0.05
2,2,3,0,5,0.7000000000000004,2,7,44,6,91,2,4.999999999999953,0.8100000000000005,0.4100000000000002,0.20000000000000004,8,2,2,2,26,4,2,4,5,0,20,7,H,0.19230769230769235,0.20250000000000007,0.20500000000000004,0.049999999999999996
2,2,4,0,9,0.36000000000000015,3,5,63,32,35,61,1.740000000000001,4.059999999999958,0.8400000000000005,0.2900000000000001,4,7,4,3,6,13,5,4,4,0,18,7,H,0.29000000000000015,0.31230769230769245,0.16800000000000004,0.07250000000000001
2,3,5,0,10,0.6800000000000004,2,6,87,88,107,17,3.069999999999993,4.079999999999957,0.17,0.5300000000000002,4,11,1,1,12,20,1,1,3,0,14,7,H,0.2558333333333334,0.20400000000000007,0.17,0.5300000000000002
2,3,6,0,6,0.6600000000000004,2,6,71,67,32,118,6.329999999999924,0.9000000000000006,1.5900000000000012,0.6600000000000004,11,3,3,2,24,3,5,2,6,0,15,7,H,0.2637500000000001,0.30000000000000016,0.3180000000000001,0.3300000000000001
2,4,7,0,9,0.6700000000000004,2,3,62,64,5,73,7.92999999999989,0.08,0.2900000000000001,0.5700000000000003,12,1,2,3,25,1,2,3,4,0,17,7,H,0.31720000000000015,0.08,0.14500000000000005,0.19000000000000006
2,4,8,0,7,0.37000000000000016,2,5,22,14,32,49,3.8199999999999705,2.020000000000001,4.069999999999958,0.08,6,4,9,1,15,5,16,1,6,0,21,7,H,0.25466666666666676,0.4040000000000002,0.2543750000000001,0.08
2,5,9,0,9,0.35000000000000014,2,3,64,117,35,33,5.199999999999942,0.4300000000000002,0.5700000000000003,0.34000000000000014,11,2,4,3,23,4,5,3,4,0,16,7,H,0.2260869565217392,0.10750000000000001,0.11399999999999999,0.11333333333333333
2,5,10,0,10,0.20000000000000004,2,3,96,60,89,17,3.589999999999972,1.7600000000000013,1.0500000000000007,0.6700000000000004,6,5,6,6,9,9,7,8,3,0,16,7,H,0.39888888888888907,0.19555555555555562,0.15000000000000005,0.08375
2,6,11,0,1,0.20000000000000004,2,4,82,22,34,103,3.2799999999999785,0.8300000000000005,1.1800000000000008,0.3100000000000001,6,2,2,2,15,5,4,2,3,0,16,7,H,0.21866666666666676,0.16600000000000004,0.2950000000000001,0.15500000000000005
2,6,12,0,5,0.6400000000000003,2,6,42,44,51,10,3.969999999999973,0.48000000000000026,3.609999999999967,0.21000000000000005,8,2,5,1,17,3,17,1,5,0,20,7,H,0.23352941176470596,0.16000000000000006,0.21235294117647063,0.21000000000000005
2,7,13,1,14,0.26000000000000006,2,3,108,27,3,35,4.8899999999999455,1.1400000000000008,0.4000000000000002,0.11999999999999998,10,3,2,1,22,5,4,1,3,0,18,7,H,0.22227272727272734,0.22800000000000006,0.09999999999999999,0.11999999999999998
2,7,14,1,15,0.3900000000000002,4,5,16,114,62,14,5.279999999999941,0.48000000000000026,0.6800000000000004,0.2800000000000001,12,1,2,2,20,1,2,2,6,0,18,7,H,0.2640000000000001,0.48000000000000026,0.34000000000000014,0.14
2,8,15,1,12,0.3900000000000002,2,4,44,109,110,120,4.82999999999995,1.1000000000000008,0.7200000000000004,0.49000000000000027,8,2,2,3,17,4,8,6,5,0.5,11,7,H,0.28411764705882364,0.2750000000000001,0.09,0.08166666666666667
2,8,16,1,14,0.4400000000000002,2,4,90,95,87,103,2.8699999999999926,1.0800000000000007,3.5499999999999683,1.0400000000000007,6,3,6,3,12,8,8,3,3,0.5,11,7,H,0.23916666666666675,0.13500000000000004,0.4437500000000002,0.34666666666666685
2,9,17,1,8,0.2800000000000001,2,3,97,105,103,101,4.989999999999944,0.19000000000000003,2.7499999999999853,0.01,11,1,8,1,19,1,10,1,2,1,24,7,H,0.2626315789473685,0.19000000000000003,0.27500000000000013,0.01
2,9,18,1,3,0.5300000000000002,6,6,17,13,65,15,3.1399999999999886,2.5099999999999905,0.4300000000000002,0.23000000000000007,10,4,1,1,12,7,1,1,5,0.5,22,7,H,0.26166666666666677,0.35857142857142876,0.4300000000000002,0.23000000000000007
2,10,19,1,12,0.5700000000000003,2,5,39,18,46,87,4.389999999999963,0.7100000000000004,1.6900000000000013,0.4300000000000002,10,2,6,1,17,7,7,1,5,0,19,7,H,0.2582352941176472,0.10142857142857145,0.2414285714285715,0.4300000000000002
2,10,20,1,2,0.4300000000000002,2,6,116,109,51,52,5.229999999999943,1.430000000000001,2.7899999999999845,0.05,10,3,7,2,26,4,9,2,4,0,12,7,H,0.20115384615384624,0.35750000000000015,0.3100000000000001,0.025
2,11,21,1,8,0.3000000000000001,5,6,92,93,99,101,16.899999999999796,0.38000000000000017,0.11999999999999998,0.01,20,2,2,1,64,2,2,1,2,0,10,7,H,0.2640625000000001,0.19000000000000006,0.05999999999999999,0.01
2,11,22,1,7,0.2900000000000001,2,3,42,4,115,3,5.989999999999923,0.6600000000000004,0.4100000000000002,0.2800000000000001,13,3,2,3,24,3,2,3,6,0,19,7,H,0.24958333333333343,0.22000000000000008,0.20500000000000007,0.09333333333333332
2,12,23,1,7,0.8400000000000005,15,16,11,109,78,113,3.4599999999999884,2.5499999999999896,1.260000000000001,1.420000000000001,20,8,5,2,26,11,6,2,6,0,13,7,H,0.13307692307692312,0.2318181818181819,0.21000000000000005,0.7100000000000005
2,12,24,1,14,0.3900000000000002,2,3,92,37,101,106,4.369999999999959,0.2800000000000001,0.7700000000000005,0.19000000000000003,6,1,2,2,18,1,2,2,3,0,12,7,H,0.24277777777777787,0.2800000000000001,0.3850000000000002,0.095
2,13,25,1,2,0.5000000000000002,4,5,102,108,52,78,5.019999999999948,0.48000000000000026,0.16,0.47000000000000025,10,1,1,2,14,1,1,4,4,0,11,7,H,0.35857142857142876,0.48000000000000026,0.16,0.11750000000000001
2,13,26,1,13,0.4400000000000002,2,4,64,41,109,38,5.619999999999934,0.8500000000000005,0.4000000000000002,0.2800000000000001,12,2,3,2,23,2,4,2,2,0,16,7,H,0.24434782608695663,0.42500000000000016,0.09999999999999999,0.14
2,14,27,1,2,0.5200000000000002,6,8,51,33,99,52,2.5600000000000005,1.7100000000000013,0.8400000000000005,0.6800000000000004,10,4,2,2,15,7,5,2,4,0,15,7,H,0.17066666666666672,0.24428571428571438,0.168,0.3400000000000002
2,14,28,1,11,0.7600000000000005,2,5,48,18,19,47,4.389999999999967,2.339999999999994,1.0600000000000007,0.04,8,7,2,1,18,10,3,1,4,0,22,7,H,0.24388888888888896,0.23400000000000007,0.3533333333333335,0.04
2,15,29,1,12,0.36000000000000015,2,4,41,48,77,57,3.2099999999999835,1.1900000000000008,0.9000000000000006,0.24000000000000007,7,4,4,2,10,4,5,2,5,0,17,7,H,0.3210000000000002,0.29750000000000015,0.18000000000000005,0.12000000000000002
2,15,30,1,14,0.17,2,3,91,94,98,36,2.319999999999998,0.7100000000000004,0.9100000000000006,0.6300000000000003,5,2,1,2,8,2,2,3,3,0,13,7,H,0.29000000000000015,0.35500000000000015,0.45500000000000024,0.21000000000000008
2,16,31,1,7,1.340000000000001,7,13,6,116,12,7,8.449999999999894,2.5999999999999885,0.01,2.349999999999994,20,7,1,7,47,8,1,7,6,0.5,20,7,H,0.17978723404255326,0.3250000000000002,0.01,0.33571428571428585
2,16,32,1,2,1.260000000000001,8,11,98,102,105,21,4.529999999999975,3.1299999999999772,1.370000000000001,1.480000000000001,13,8,4,4,19,18,7,6,4,0.5,12,7,H,0.23842105263157903,0.17388888888888893,0.19571428571428579,0.24666666666666676
2,17,33,1,11,0.26000000000000006,2,3,71,65,27,77,3.079999999999984,1.260000000000001,1.9300000000000015,0.8400000000000005,9,4,5,2,14,5,8,2,4,0,16,7,H,0.22000000000000008,0.25200000000000006,0.2412500000000001,0.4200000000000002
2,17,34,1,12,1.0400000000000007,15,16,37,17,59,13,3.6099999999999897,3.7199999999999647,0.25000000000000006,1.2500000000000009,18,7,2,4,26,13,2,6,5,0,21,7,H,0.1388461538461539,0.28615384615384626,0.125,0.2083333333333334
2,18,35,1,13,1.2500000000000009,7,8,1,31,25,60,36.08000000000164,0.46000000000000024,0.01,0.02,20,3,1,1,126,3,1,1,2,0,20,7,H,0.28634920634920646,0.15333333333333338,0.01,0.02
2,18,36,1,11,0.6600000000000004,13,16,71,63,21,91,3.599999999999982,2.020000000000001,4.269999999999953,0.6800000000000004,18,7,9,3,25,9,10,3,4,0,17,7,H,0.14400000000000004,0.22444444444444453,0.4270000000000002,0.22666666666666677
2,19,37,1,3,1.260000000000001,2,7,68,96,71,30,5.299999999999959,1.7100000000000013,0.16,0.20000000000000004,9,4,1,1,27,4,1,1,5,0,16,7,H,0.19629629629629636,0.4275000000000002,0.16,0.20000000000000004
2,19,38,1,12,0.09,2,2,15,100,24,78,3.9999999999999605,2.629999999999988,0.2700000000000001,0.12999999999999998,7,6,1,1,10,12,1,1,5,0,17,7,H,0.4000000000000002,0.21916666666666673,0.2700000000000001,0.12999999999999998
2,20,39,1,14,0.10999999999999999,2,3,5,94,90,49,8.469999999999866,0.19000000000000003,0.4300000000000002,0.03,12,3,3,1,37,3,3,1,3,0,16,7,H,0.228918918918919,0.06333333333333332,0.14333333333333334,0.03
2,20,40,1,15,0.7500000000000004,2,6,23,81,18,38,5.329999999999947,0.9000000000000006,0.15,1.1500000000000008,9,2,1,4,19,2,1,5,6,0,20,7,H,0.2805263157894738,0.45000000000000023,0.15,0.2300000000000001
2,21,41,1,13,0.6000000000000003,7,9,109,112,116,77,8.31999999999988,0.05,0.38000000000000017,2.4999999999999907,17,1,4,4,27,1,4,4,2,0.5,9,7,H,0.3081481481481483,0.05,0.095,0.6250000000000002
2,21,42,1,8,0.3000000000000001,8,8,98,104,92,102,1.740000000000001,3.7199999999999647,1.5500000000000012,1.390000000000001,11,7,9,4,13,9,9,4,2,0.5,9,7,H,0.1338461538461539,0.41333333333333355,0.17222222222222225,0.3475000000000002
3,1,1,0,10,0.3000000000000001,2,3,89,113,118,15,2.749999999999992,3.709999999999965,0.5200000000000002,0.35000000000000014,7,11,1,1,11,18,1,1,3,0,13,7,H,0.2500000000000001,0.20611111111111116,0.5200000000000002,0.35000000000000014
3,1,2,0,4,0.35000000000000014,2,3,101,100,103,36,4.599999999999954,0.35000000000000014,2.1399999999999983,0.23000000000000007,7,1,8,1,25,1,9,1,2,0.5,11,7,H,0.18400000000000005,0.35000000000000014,0.23777777777777784,0.23000000000000007
3,2,3,0,1,0.45000000000000023,2,4,81,118,73,112,2.9599999999999906,2.869999999999983,0.15,0.7900000000000005,5,4,1,2,14,10,1,4,3,0,10,7,H,0.2114285714285715,0.28700000000000014,0.15,0.19750000000000006
3,2,4,0,2,0.5600000000000003,10,10,108,60,98,92,14.40999999999975,4.9199999999999395,0.01,0.01,20,12,1,1,47,18,1,1,4,0,11,7,H,0.3065957446808512,0.27333333333333343,0.01,0.01
3,3,5,0,1,0.6700000000000004,2,6,83,20,106,97,4.129999999999971,0.47000000000000025,1.5100000000000011,0.7200000000000004,9,1,4,3,20,1,4,4,3,0,13,7,H,0.20650000000000004,0.47000000000000025,0.37750000000000017,0.18000000000000005
3,3,6,0,6,0.34000000000000014,2,5,8,113,117,114,4.899999999999947,2.489999999999991,0.7500000000000004,0.22000000000000006,13,4,5,1,29,8,6,1,6,0.5,12,7,H,0.16896551724137937,0.31125000000000014,0.12500000000000003,0.22000000000000006
3,4,7,0,1,0.5400000000000003,2,5,75,32,106,82,3.839999999999974,2.899999999999982,0.8800000000000006,0.17,7,4,3,2,19,11,4,2,3,0,13,7,H,0.20210526315789482,0.2636363636363637,0.22000000000000006,0.08499999999999999
3,4,8,0,7,0.3300000000000001,2,3,15,119,96,94,10.86999999999982,0.02,0.01,0.01,14,1,1,1,39,1,1,1,6,0,14,7,H,0.27871794871794875,0.02,0.01,0.01
3,5,9,0,2,0.4100000000000002,2,5,59,28,107,54,3.129999999999986,1.7600000000000013,0.35000000000000014,0.23000000000000007,8,2,2,1,14,5,2,1,4,0,15,7,H,0.22357142857142867,0.35200000000000015,0.17500000000000002,0.23000000000000007
3,5,10,0,5,0.38000000000000017,2,3,40,38,114,48,5.019999999999945,0.2700000000000001,2.0899999999999994,0.18000000000000002,9,2,5,2,27,3,8,2,5,0.5,17,7,H,0.18592592592592597,0.09000000000000001,0.2612500000000001,0.09
3,6,11,0,10,0.9000000000000006,11,13,19,14,45,50,6.509999999999925,3.5499999999999683,0.03,0.10999999999999999,20,7,1,2,26,16,1,2,3,0,21,7,H,0.2503846153846155,0.22187500000000007,0.03,0.055
3,6,12,0,9,0.7100000000000004,7,8,31,100,26,74,4.979999999999954,1.0200000000000007,0.34000000000000014,0.2900000000000001,14,3,1,1,27,6,1,1,4,0,15,7,H,0.1844444444444445,0.17000000000000004,0.34000000000000014,0.2900000000000001
3,7,13,1,1,0.7600000000000005,2,5,24,42,23,47,7.979999999999891,0.22000000000000006,0.10999999999999999,0.38000000000000017,10,1,1,3,25,1,1,3,3,0,22,7,H,0.31920000000000015,0.22000000000000006,0.10999999999999999,0.12666666666666668
3,7,14,1,13,0.49000000000000027,2,6,120,34,61,118,6.229999999999922,0.8500000000000005,0.4300000000000002,0.08,9,4,3,1,22,6,3,1,2,0,13,7,H,0.2831818181818183,0.1416666666666667,0.14333333333333337,0.08
3,8,15,1,15,0.20000000000000004,2,3,17,85,21,113,5.1299999999999395,2.679999999999987,0.13999999999999999,4.329999999999952,11,3,2,11,18,6,2,15,6,0,17,7,H,0.28500000000000014,0.44666666666666693,0.06999999999999999,0.2886666666666668
3,8,16,1,11,0.37000000000000016,5,6,66,81,62,35,1.8500000000000012,2.2299999999999964,0.8200000000000005,1.9000000000000015,7,3,2,4,9,4,5,8,4,0,16,7,H,0.20555555555555566,0.5575000000000003,0.16400000000000003,0.2375000000000001
3,9,17,1,2,0.25000000000000006,2,3,52,9,6,57,2.639999999999993,1.450000000000001,0.7100000000000004,1.350000000000001,4,2,2,6,15,5,3,6,4,0,20,7,H,0.17600000000000005,0.29000000000000015,0.23666666666666675,0.2250000000000001
3,9,18,1,15,0.9500000000000006,15,15,21,109,13,19,5.789999999999942,0.8700000000000006,1.330000000000001,3.3599999999999723,20,2,3,6,35,6,3,8,6,0.5,20,7,H,0.16542857142857148,0.14500000000000002,0.4433333333333336,0.4200000000000002
3,10,19,1,13,0.34000000000000014,2,4,29,78,118,83,4.569999999999954,1.5400000000000011,0.16,0.23000000000000007,8,4,1,1,15,6,1,1,2,0,13,7,H,0.3046666666666668,0.25666666666666677,0.16,0.23000000000000007
3,10,20,1,14,1.8900000000000015,12,18,96,1,9,6,4.739999999999984,1.2200000000000009,0.5800000000000003,0.21000000000000005,17,2,2,1,29,4,5,1,3,0.5,21,7,H,0.163448275862069,0.3050000000000001,0.11600000000000002,0.21000000000000005
3,11,21,1,11,0.8900000000000006,9,10,66,75,65,62,3.309999999999993,2.6999999999999864,0.10999999999999999,0.3200000000000001,13,5,1,3,20,12,1,3,4,0.5,15,7,H,0.16550000000000004,0.2250000000000001,0.10999999999999999,0.10666666666666666
3,11,22,1,14,1.0200000000000007,14,15,43,92,38,94,6.909999999999919,0.8500000000000005,0.17,0.10999999999999999,20,4,2,1,39,4,2,1,3,0,16,7,H,0.17717948717948723,0.21250000000000008,0.08499999999999999,0.10999999999999999
3,12,23,1,2,0.18000000000000002,2,5,59,52,2,81,4.11999999999996,0.20000000000000004,2.9699999999999807,0.15,9,1,6,2,22,1,10,3,4,0,17,7,H,0.18727272727272734,0.20000000000000004,0.29700000000000015,0.05
3,12,24,1,3,0.2700000000000001,2,3,34,31,25,88,4.439999999999956,2.299999999999995,0.6000000000000003,1.8400000000000014,9,8,4,6,20,11,5,7,5,0.5,18,7,H,0.2220000000000001,0.20909090909090916,0.12000000000000002,0.26285714285714296
3,13,25,1,14,0.11999999999999998,2,3,85,91,93,35,2.609999999999991,1.6500000000000012,1.7200000000000013,0.9500000000000006,5,4,8,6,13,4,10,6,3,0.5,14,7,H,0.20076923076923084,0.4125000000000002,0.17200000000000004,0.15833333333333335
3,13,26,1,12,1.5900000000000012,7,12,1,5,46,9,5.6499999999999595,0.5600000000000003,1.1400000000000008,1.380000000000001,13,2,5,3,29,3,5,5,5,0.5,23,7,H,0.1948275862068966,0.1866666666666667,0.2280000000000001,0.27600000000000013
3,14,27,1,13,0.6800000000000004,6,8,109,117,42,43,3.7099999999999795,1.300000000000001,0.49000000000000027,0.8500000000000005,10,2,2,2,17,7,2,3,2,0,14,7,H,0.21823529411764714,0.18571428571428575,0.2450000000000001,0.28333333333333344
3,14,28,1,3,0.4400000000000002,2,7,78,83,67,73,7.029999999999904,1.0400000000000007,0.34000000000000014,0.05,12,3,2,1,26,3,3,1,5,0.5,13,7,H,0.2703846153846155,0.3466666666666668,0.11333333333333334,0.05
3,15,29,1,15,0.18000000000000002,1,2,65,21,16,82,4.389999999999954,1.6400000000000012,5.619999999999925,2.239999999999996,8,6,9,5,17,8,29,6,6,0,19,7,H,0.2582352941176472,0.20500000000000007,0.19379310344827594,0.3733333333333335
3,15,30,1,7,0.4400000000000002,5,5,40,91,95,42,11.059999999999818,0.08,0.01,0.3100000000000001,20,1,1,1,44,1,1,1,6,0,16,7,H,0.25136363636363646,0.08,0.01,0.3100000000000001
3,16,31,1,8,0.5600000000000003,2,4,102,74,20,79,3.4899999999999816,3.93999999999996,0.4400000000000002,2.869999999999983,7,4,2,7,12,13,5,10,2,0,14,7,H,0.29083333333333344,0.3030769230769232,0.088,0.28700000000000014
3,16,32,1,13,0.4200000000000002,6,6,94,90,113,118,6.70999999999991,0.09999999999999999,1.9600000000000015,1.6800000000000013,16,1,6,3,18,1,10,3,2,0,10,7,H,0.372777777777778,0.09999999999999999,0.1960000000000001,0.5600000000000004
3,17,33,1,7,0.22000000000000006,2,3,2,5,120,55,2.2800000000000002,2.010000000000001,0.5000000000000002,1.1400000000000008,5,3,1,2,7,6,1,3,6,0,18,7,H,0.32571428571428584,0.33500000000000013,0.5000000000000002,0.3800000000000002
3,17,34,1,11,0.45000000000000023,2,4,105,61,106,23,4.969999999999948,0.26000000000000006,5.039999999999937,0.01,9,1,8,1,17,1,22,1,4,0,14,7,H,0.2923529411764707,0.26000000000000006,0.22909090909090918,0.01
3,18,35,1,13,0.12999999999999998,2,3,114,120,45,39,3.4299999999999735,0.20000000000000004,1.1100000000000008,0.9000000000000006,8,1,2,2,18,1,7,6,2,0,14,7,H,0.19055555555555562,0.20000000000000004,0.1585714285714286,0.15000000000000002
3,18,36,1,11,2.3799999999999932,5,10,65,108,76,102,3.239999999999994,3.2999999999999736,0.2700000000000001,1.260000000000001,7,2,1,2,14,12,1,5,4,0,11,7,H,0.2314285714285715,0.27500000000000013,0.2700000000000001,0.2520000000000001
3,19,37,1,8,0.5400000000000003,2,5,101,100,104,30,2.9199999999999937,2.3099999999999947,0.47000000000000025,1.9300000000000015,6,5,3,7,12,16,3,11,2,0.5,11,7,H,0.24333333333333343,0.14437500000000003,0.15666666666666673,0.17545454545454547
3,19,38,1,13,0.21000000000000005,2,4,117,47,44,52,1.3800000000000008,4.399999999999951,0.6100000000000003,0.4200000000000002,4,8,2,2,7,20,3,4,2,0,16,7,H,0.19714285714285723,0.22000000000000008,0.20333333333333337,0.10500000000000001
3,20,39,1,13,0.45000000000000023,2,3,45,112,42,113,5.249999999999942,0.9900000000000007,0.9600000000000006,0.8700000000000006,13,2,2,4,18,2,7,5,2,0,14,7,H,0.2916666666666668,0.4950000000000002,0.13714285714285718,0.17400000000000004
3,20,40,1,8,0.48000000000000026,2,6,75,100,82,51,4.469999999999959,0.6300000000000003,1.2300000000000009,1.350000000000001,8,3,5,4,20,3,5,5,2,0,12,7,H,0.2235000000000001,0.21000000000000008,0.2460000000000001,0.27000000000000013
3,21,41,1,7,0.3200000000000001,2,4,113,109,3,117,3.059999999999986,0.2800000000000001,2.199999999999997,2.849999999999983,4,1,7,9,10,1,11,13,6,0.5,12,7,H,0.30600000000000016,0.2800000000000001,0.20000000000000007,0.2192307692307693
3,21,42,1,2,0.7100000000000004,2,6,31,78,14,106,3.6999999999999806,1.9400000000000015,2.099999999999999,0.48000000000000026,6,5,6,3,12,9,9,3,4,0,16,7,H,0.30833333333333335,0.21555555555555564,0.2333333333333334,0.16000000000000003
4,1,1,0,7,0.47000000000000025,2,3,16,13,17,72,6.4999999999999165,2.0000000000000013,8.009999999999874,0.17,14,6,13,1,19,9,22,1,6,0.5,22,7,H,0.3421052631578949,0.22222222222222232,0.36409090909090924,0.17
4,1,2,0,8,0.7900000000000005,3,7,119,112,2,1,4.939999999999957,1.360000000000001,3.6699999999999657,0.4400000000000002,9,6,9,1,19,9,15,1,2,0,16,7,H,0.2600000000000001,0.15111111111111114,0.24466666666666675,0.4400000000000002
4,2,3,0,9,0.36000000000000015,2,3,70,65,64,22,4.28999999999996,2.0899999999999994,1.1700000000000008,2.1299999999999986,9,5,4,4,11,8,4,8,4,0.5,18,7,H,0.3900000000000002,0.2612500000000001,0.2925000000000001,0.2662500000000001
4,2,4,0,4,0.4100000000000002,2,4,104,82,100,75,4.2599999999999625,5.919999999999918,0.09,0.5800000000000003,13,9,1,1,17,15,1,1,2,0,10,7,H,0.2505882352941177,0.3946666666666669,0.09,0.5800000000000003
4,3,5,0,5,0.22000000000000006,3,3,116,14,70,115,26.100000000001245,3.329999999999973,0.01,0.01,20,12,1,1,81,13,1,1,5,0,14,7,H,0.32222222222222235,0.25615384615384623,0.01,0.01
4,3,6,0,6,0.49000000000000027,2,5,104,4,28,3,6.249999999999922,1.0300000000000007,1.460000000000001,0.5900000000000003,11,3,4,3,19,5,4,3,6,0,19,7,H,0.32894736842105277,0.20600000000000004,0.36500000000000016,0.19666666666666674
4,4,7,0,9,1.500000000000001,6,7,61,67,63,109,7.249999999999923,1.1800000000000008,0.25000000000000006,0.7300000000000004,17,5,1,3,30,9,1,3,4,0.5,14,7,H,0.24166666666666675,0.13111111111111112,0.25000000000000006,0.24333333333333343
4,4,8,0,2,0.2800000000000001,2,3,57,25,51,103,6.819999999999905,1.8300000000000014,1.310000000000001,3.569999999999968,12,4,4,6,21,4,5,6,4,0,15,7,H,0.3247619047619049,0.45750000000000024,0.26200000000000007,0.5950000000000003
4,5,9,0,5,0.4100000000000002,2,3,45,109,41,116,4.299999999999962,2.5899999999999888,0.6000000000000003,2.429999999999992,10,7,2,5,13,10,2,5,5,0,14,7,H,0.3307692307692309,0.25900000000000006,0.3000000000000001,0.48600000000000027
4,5,10,0,9,0.6900000000000004,6,8,69,107,97,90,6.8499999999999135,2.3199999999999945,1.1000000000000008,0.6300000000000003,16,4,2,2,30,4,2,3,4,0,11,7,H,0.22833333333333342,0.5800000000000003,0.5500000000000003,0.21000000000000008
4,6,11,0,1,0.3100000000000001,2,5,73,81,54,47,6.069999999999922,0.3100000000000001,2.0300000000000007,1.1500000000000008,13,1,3,3,20,1,3,4,3,0,15,7,H,0.30350000000000016,0.3100000000000001,0.6766666666666671,0.2875000000000001
4,6,12,0,6,2.3099999999999947,5,9,113,110,68,5,9.31999999999989,3.279999999999974,2.3299999999999943,2.5899999999999888,19,11,4,3,30,14,4,3,6,0,14,7,H,0.3106666666666668,0.23428571428571437,0.5825000000000002,0.863333333333334
4,7,13,1,2,0.2900000000000001,2,5,119,115,42,9,7.51999999999989,1.9500000000000015,2.479999999999991,2.769999999999985,10,3,6,3,24,4,8,3,4,0,15,7,H,0.31333333333333346,0.48750000000000027,0.3100000000000001,0.9233333333333335
4,7,14,1,3,0.3300000000000001,3,4,72,17,14,20,6.969999999999903,1.7100000000000013,0.2800000000000001,6.8899999999998975,14,3,1,10,27,3,1,14,5,0.5,22,7,H,0.25814814814814824,0.5700000000000003,0.2800000000000001,0.492142857142857
4,8,15,1,8,0.3200000000000001,2,3,97,100,106,42,2.819999999999991,1.5800000000000012,2.7799999999999847,1.390000000000001,7,2,7,4,8,10,8,6,2,0.5,11,7,H,0.3525000000000002,0.15800000000000006,0.34750000000000014,0.23166666666666677
4,8,16,1,7,0.35000000000000014,3,5,2,6,87,12,5.969999999999925,8.589999999999861,1.2500000000000009,0.13999999999999999,15,13,3,2,19,17,3,2,6,0.5,21,7,H,0.31421052631578966,0.5052941176470591,0.4166666666666669,0.06999999999999999
4,9,17,1,11,0.5300000000000002,3,4,17,99,69,105,5.43999999999994,0.7000000000000004,2.4199999999999924,0.2900000000000001,13,1,6,1,20,2,9,1,4,0,14,7,H,0.27200000000000013,0.35000000000000014,0.268888888888889,0.2900000000000001
4,9,18,1,14,0.9800000000000006,6,7,89,93,91,31,5.469999999999949,1.350000000000001,2.53999999999999,0.9400000000000006,10,3,6,2,13,4,7,2,3,0.5,14,7,H,0.420769230769231,0.33750000000000013,0.36285714285714304,0.47000000000000025
4,10,19,1,11,0.3900000000000002,2,4,11,85,3,72,3.5999999999999757,4.999999999999938,0.35000000000000014,1.1800000000000008,6,9,2,4,13,13,2,6,4,0,19,7,H,0.27692307692307705,0.3846153846153848,0.17500000000000002,0.1966666666666667
4,10,20,1,12,0.9300000000000006,9,12,19,41,45,21,8.809999999999878,1.5400000000000011,1.320000000000001,1.7800000000000014,20,2,5,4,29,3,6,4,5,0,22,7,H,0.303793103448276,0.5133333333333336,0.22000000000000008,0.44500000000000023
4,11,21,1,8,0.36000000000000015,2,3,107,2,94,99,2.759999999999993,13.119999999999765,0.3100000000000001,0.01,5,15,3,1,7,41,3,1,2,0,13,7,H,0.3942857142857145,0.3200000000000001,0.10333333333333335,0.01
4,11,22,1,2,0.8700000000000006,13,16,51,17,44,41,6.049999999999935,4.099999999999957,4.569999999999947,0.10999999999999999,20,6,8,2,36,8,13,2,4,0,20,7,H,0.16805555555555562,0.5125000000000003,0.3515384615384617,0.05500000000000001
4,12,23,1,14,0.4300000000000002,4,4,24,98,15,94,9.399999999999853,0.09999999999999999,0.9900000000000007,0.11999999999999998,15,1,2,1,25,1,3,1,3,0,17,7,H,0.37600000000000017,0.09999999999999999,0.3300000000000001,0.11999999999999998
4,12,24,1,11,0.3300000000000001,3,4,69,68,113,112,5.059999999999944,0.2700000000000001,2.3299999999999943,0.5900000000000003,9,1,4,2,18,1,4,3,4,0,12,7,H,0.28111111111111126,0.2700000000000001,0.5825000000000004,0.19666666666666674
4,13,25,1,1,0.2900000000000001,2,3,100,98,83,61,7.8399999999998835,0.8500000000000005,0.19000000000000003,0.3100000000000001,10,3,2,2,17,3,5,2,3,0,11,7,H,0.461176470588234,0.28333333333333344,0.038,0.155
4,13,26,1,12,0.36000000000000015,2,3,114,41,39,46,7.60999999999989,0.26000000000000006,0.5800000000000003,0.22000000000000006,15,2,2,2,26,3,2,2,5,0.5,17,7,H,0.2926923076923078,0.08666666666666667,0.2900000000000001,0.11000000000000003
4,14,27,1,1,0.35000000000000014,2,3,56,77,99,60,4.589999999999955,2.6599999999999873,0.7700000000000005,1.1400000000000008,10,5,5,2,16,7,5,2,3,0,13,7,H,0.2868750000000001,0.38000000000000017,0.15400000000000005,0.5700000000000003
4,14,28,1,7,0.34000000000000014,2,5,1,3,9,71,3.9999999999999662,8.569999999999862,0.03,0.16,8,15,1,1,16,37,1,1,6,0.5,22,7,H,0.2500000000000001,0.2316216216216217,0.03,0.16
4,15,29,1,15,0.36000000000000015,3,4,75,20,16,78,6.129999999999922,0.7400000000000004,3.4899999999999696,1.1000000000000008,10,4,5,2,17,5,5,2,6,0,18,7,H,0.3605882352941178,0.14800000000000002,0.6980000000000004,0.5500000000000003
4,15,30,1,7,0.2800000000000001,2,4,7,5,10,8,4.309999999999959,0.9200000000000006,1.8300000000000014,0.22000000000000006,10,2,7,1,14,3,8,1,6,1,72,7,H,0.307857142857143,0.3066666666666668,0.22875000000000006,0.22000000000000006
4,16,31,1,12,0.5100000000000002,2,4,77,47,74,37,4.749999999999954,2.1399999999999983,0.35000000000000014,4.179999999999955,15,4,3,6,24,6,3,9,5,0,16,7,H,0.1979166666666667,0.35666666666666685,0.11666666666666667,0.4644444444444447
4,16,32,1,14,0.4000000000000002,5,6,120,90,89,25,5.78999999999993,0.48000000000000026,2.159999999999998,1.6800000000000013,13,1,4,5,21,1,6,8,3,0,13,7,H,0.27571428571428586,0.48000000000000026,0.36000000000000015,0.21000000000000008
4,17,33,1,11,0.3200000000000001,2,4,18,45,63,67,36.3600000000014,0.07,0.22000000000000006,1.450000000000001,20,1,2,5,87,1,2,5,4,0,19,7,H,0.41793103448275887,0.07,0.11000000000000003,0.29000000000000015
4,17,34,1,13,0.3000000000000001,2,3,115,110,78,82,5.969999999999923,5.36999999999993,1.1700000000000008,1.300000000000001,18,10,3,2,24,11,3,2,2,0,10,7,H,0.24875000000000008,0.4881818181818178,0.39000000000000024,0.6500000000000005
4,18,35,1,14,0.3200000000000001,2,4,86,94,88,96,6.549999999999912,3.419999999999971,0.10999999999999999,1.1400000000000008,12,7,1,3,16,12,1,3,3,1,36,7,H,0.4093750000000002,0.28500000000000014,0.10999999999999999,0.3800000000000002
4,18,36,1,11,0.4100000000000002,3,4,64,75,76,67,3.9199999999999693,2.7999999999999843,0.9800000000000006,0.08,8,6,5,1,10,11,6,1,4,0,14,7,H,0.3920000000000002,0.25454545454545463,0.16333333333333336,0.08
4,19,37,1,12,0.4200000000000002,2,4,40,84,42,81,5.679999999999932,2.0400000000000005,0.22000000000000006,1.6200000000000012,13,5,1,2,26,8,1,2,5,0,16,7,H,0.21846153846153854,0.2550000000000001,0.22000000000000006,0.8100000000000006
4,19,38,1,15,0.8800000000000006,9,12,19,14,20,94,7.659999999999901,5.759999999999922,9.409999999999844,0.01,20,10,12,1,35,17,18,1,6,0.5,21,7,H,0.21885714285714294,0.33882352941176486,0.5227777777777773,0.01
4,20,39,1,1,0.9800000000000006,2,3,66,63,81,80,7.219999999999912,1.6300000000000012,2.249999999999996,2.429999999999992,12,6,3,6,18,6,5,7,3,0,14,7,H,0.4011111111111113,0.2716666666666668,0.45000000000000023,0.3471428571428573
4,20,40,1,14,1.320000000000001,11,13,15,92,22,90,7.239999999999919,1.410000000000001,0.12999999999999998,0.6800000000000004,20,5,1,2,26,6,1,2,3,0,18,7,H,0.2784615384615386,0.23500000000000007,0.12999999999999998,0.34000000000000014
5,1,1,0,7,0.26000000000000006,2,6,103,98,90,89,15.47999999999972,0.38000000000000017,0.24000000000000007,0.48000000000000026,12,1,1,2,64,1,1,4,6,0,10,7,H,0.2418750000000001,0.38000000000000017,0.24000000000000007,0.12
5,1,2,0,8,0.2800000000000001,2,4,1,111,6,4,9.939999999999838,3.229999999999975,1.370000000000001,0.5900000000000003,9,8,2,2,40,18,11,3,2,0.5,20,7,H,0.2485000000000001,0.17944444444444452,0.12454545454545456,0.1966666666666667
5,2,3,0,3,0.2700000000000001,2,6,28,31,36,91,7.259999999999896,2.209999999999997,0.5200000000000002,2.109999999999999,9,4,2,5,37,6,3,9,5,0.5,18,7,H,0.1962162162162163,0.3683333333333335,0.1733333333333334,0.23444444444444454
5,2,4,0,7,0.23000000000000007,2,4,23,16,114,13,9.109999999999856,6.079999999999915,1.320000000000001,3.229999999999975,8,9,4,8,46,29,7,14,6,0.5,20,7,H,0.19804347826086963,0.20965517241379317,0.18857142857142867,0.23071428571428582
5,3,5,0,1,0.2900000000000001,2,6,84,79,82,74,7.259999999999896,5.559999999999926,2.1399999999999983,2.4499999999999917,10,12,6,8,36,20,9,13,3,1,36,7,H,0.20166666666666674,0.27800000000000014,0.23777777777777784,0.1884615384615385
5,3,6,0,3,0.17,1,2,20,18,29,89,8.649999999999864,2.759999999999985,0.3100000000000001,3.45999999999997,8,5,1,9,43,9,1,17,5,0,20,7,H,0.20116279069767448,0.3066666666666668,0.3100000000000001,0.20352941176470596
5,4,7,0,2,0.17,2,3,59,53,58,30,7.85999999999988,0.9700000000000006,3.2999999999999736,1.1100000000000008,4,2,8,3,37,5,16,7,4,0.5,17,7,H,0.2124324324324325,0.19400000000000006,0.20625000000000007,0.1585714285714286
5,4,8,0,4,0.21000000000000005,2,3,86,106,101,90,8.059999999999878,3.279999999999974,1.280000000000001,1.2500000000000009,10,7,3,5,30,15,9,6,2,0,10,7,H,0.2686666666666668,0.21866666666666673,0.14222222222222225,0.20833333333333337
5,5,9,0,6,0.6000000000000003,2,4,10,105,97,35,8.809999999999869,0.9600000000000006,0.4100000000000002,2.399999999999993,4,3,1,4,36,6,1,11,6,0,15,7,H,0.2447222222222223,0.16000000000000006,0.4100000000000002,0.21818181818181825
5,5,10,0,5,0.3000000000000001,2,4,85,41,42,94,9.359999999999852,1.1200000000000008,0.3300000000000001,0.6200000000000003,14,2,1,1,42,3,1,1,5,0,16,7,H,0.22285714285714295,0.37333333333333346,0.3300000000000001,0.6200000000000003
5,6,11,0,1,0.23000000000000007,2,5,78,83,81,115,10.589999999999824,0.6400000000000003,0.26000000000000006,13.219999999999763,11,4,1,14,50,5,1,54,3,0.5,11,7,H,0.21180000000000007,0.12800000000000003,0.26000000000000006,0.2448148148148149
5,6,12,0,10,0.3000000000000001,2,4,32,26,102,9,11.039999999999816,0.8400000000000005,0.5300000000000002,0.6100000000000003,6,2,2,2,59,2,3,3,3,0,18,7,H,0.18711864406779666,0.42000000000000026,0.17666666666666672,0.20333333333333337
5,7,13,1,12,0.20000000000000004,2,3,1,42,45,107,23.960000000000914,0.01,0.04,0.17,20,1,1,1,109,1,1,1,5,0,18,7,H,0.21981651376146796,0.01,0.04,0.17
5,7,14,1,15,0.3100000000000001,2,3,113,28,32,66,11.8199999999998,1.0000000000000007,1.5100000000000011,1.5600000000000012,10,2,3,2,44,3,8,7,6,0,16,7,H,0.26863636363636373,0.3333333333333335,0.18875000000000006,0.22285714285714292
5,8,15,1,14,0.18000000000000002,2,3,94,120,95,4,8.269999999999872,2.6499999999999875,1.270000000000001,0.6700000000000004,7,2,2,2,45,12,9,4,3,0,14,7,H,0.18377777777777785,0.2208333333333334,0.14111111111111113,0.16750000000000004
5,8,16,1,8,0.3000000000000001,2,5,79,73,28,13,12.779999999999779,1.0500000000000007,1.0400000000000007,0.2800000000000001,11,3,3,1,56,5,10,1,2,0,17,7,H,0.22821428571428579,0.21000000000000005,0.10400000000000001,0.2800000000000001
5,9,17,1,7,0.8200000000000005,2,8,75,48,2,84,10.949999999999829,0.7400000000000004,1.1100000000000008,1.470000000000001,6,2,3,3,45,8,4,7,6,0,17,7,H,0.24333333333333343,0.09250000000000003,0.27750000000000014,0.21000000000000008
5,9,18,1,14,0.7800000000000005,2,9,30,25,90,36,9.169999999999867,0.9300000000000006,2.7499999999999853,1.460000000000001,9,2,5,5,41,3,7,6,3,0.5,18,7,H,0.22365853658536594,0.3100000000000001,0.39285714285714307,0.2433333333333334
5,10,19,1,14,0.21000000000000005,2,3,42,95,106,3,10.75999999999982,2.1299999999999986,1.470000000000001,1.8500000000000014,11,4,3,3,54,10,8,8,3,0,16,7,H,0.19925925925925933,0.21300000000000005,0.18375000000000005,0.2312500000000001
5,10,20,1,13,0.15,2,3,118,120,113,20,5.829999999999924,1.5300000000000011,0.5900000000000003,11.269999999999804,8,2,1,11,22,7,1,53,2,0.5,12,7,H,0.2650000000000001,0.21857142857142864,0.5900000000000003,0.21264150943396232
5,11,21,1,3,0.4100000000000002,2,3,104,96,97,34,9.009999999999861,1.440000000000001,1.350000000000001,0.23000000000000007,8,3,2,1,39,5,7,1,5,0,12,7,H,0.2310256410256411,0.28800000000000014,0.1928571428571429,0.23000000000000007
5,11,22,1,13,0.3300000000000001,2,5,110,114,7,1,7.9299999999998825,1.0200000000000007,2.3799999999999932,0.8300000000000005,6,3,3,3,36,5,9,4,2,0,16,7,H,0.22027777777777785,0.20400000000000007,0.26444444444444454,0.20750000000000007
5,12,23,1,11,0.3200000000000001,2,4,26,28,67,63,11.489999999999807,1.7400000000000013,0.5900000000000003,0.20000000000000004,9,2,2,1,47,11,3,1,4,0,18,7,H,0.24446808510638307,0.1581818181818182,0.1966666666666667,0.20000000000000004
5,12,24,1,2,0.36000000000000015,2,4,54,53,84,11,7.649999999999889,3.519999999999969,0.6700000000000004,0.26000000000000006,8,3,2,1,39,16,3,1,4,0,17,7,H,0.1961538461538462,0.22000000000000008,0.22333333333333338,0.26000000000000006
5,13,25,1,3,0.34000000000000014,2,3,28,17,112,63,10.88999999999982,16.95999999999985,0.10999999999999999,0.02,13,17,2,1,53,57,2,1,5,0,17,7,H,0.20547169811320762,0.29754385964912294,0.05499999999999999,0.02
5,13,26,1,2,0.2700000000000001,2,5,58,95,4,94,8.529999999999868,3.429999999999971,5.739999999999922,0.37000000000000016,11,7,9,1,49,16,33,1,4,0,16,7,H,0.17408163265306129,0.21437500000000007,0.17393939393939398,0.37000000000000016
5,14,27,1,13,0.18000000000000002,2,3,93,118,90,85,7.299999999999892,0.5300000000000002,3.47999999999997,2.0300000000000007,8,2,4,2,34,3,14,6,2,0.5,11,7,H,0.21470588235294125,0.1766666666666667,0.24857142857142867,0.3383333333333335
5,14,28,1,8,0.26000000000000006,2,3,104,107,68,64,9.87999999999984,0.45000000000000023,0.8400000000000005,0.5700000000000003,10,2,3,3,51,3,7,4,2,0,12,7,H,0.1937254901960785,0.15000000000000002,0.12000000000000002,0.14250000000000002
5,15,29,1,13,0.10999999999999999,2,3,114,118,112,72,6.42999999999991,2.4099999999999926,1.500000000000001,0.6300000000000003,5,3,3,2,29,10,7,2,2,0.5,10,7,H,0.22172413793103457,0.2410000000000001,0.21428571428571436,0.3150000000000001
5,15,30,1,8,0.37000000000000016,2,4,55,49,97,59,5.209999999999941,3.7399999999999642,3.149999999999977,0.24000000000000007,7,7,3,1,25,17,17,1,2,0.5,14,7,H,0.20840000000000009,0.22000000000000006,0.1852941176470589,0.24000000000000007
5,16,31,1,14,0.23000000000000007,2,3,95,87,119,27,6.789999999999905,7.4099999999998865,3.92999999999996,1.6100000000000012,9,12,9,5,33,22,12,6,3,0,13,7,H,0.20575757575757583,0.33681818181818196,0.3275000000000002,0.2683333333333334
5,16,32,1,11,0.5900000000000003,3,5,63,67,97,101,9.089999999999863,1.270000000000001,1.410000000000001,1.1100000000000008,11,3,5,2,36,7,7,4,4,0,12,7,H,0.2525000000000001,0.18142857142857147,0.20142857142857148,0.2775000000000001
5,17,33,1,13,0.19000000000000003,2,3,117,68,66,118,7.649999999999886,1.5400000000000011,5.419999999999929,0.060000000000000005,4,2,5,2,45,14,24,3,2,0,12,7,H,0.17000000000000004,0.11000000000000001,0.2258333333333334,0.02
5,17,34,1,2,0.15,2,3,49,51,57,60,7.359999999999891,5.199999999999934,3.6299999999999666,3.1999999999999758,11,8,9,8,32,21,14,14,4,1,48,7,H,0.2300000000000001,0.2476190476190477,0.2592857142857144,0.22857142857142865
5,18,35,1,7,0.8000000000000005,3,4,11,2,113,57,7.11999999999991,0.5800000000000003,1.6100000000000012,2.719999999999986,7,1,4,4,32,1,10,9,6,0,18,7,H,0.2225000000000001,0.5800000000000003,0.16100000000000006,0.30222222222222234
5,18,36,1,8,0.34000000000000014,3,4,28,72,65,30,9.109999999999857,4.059999999999958,1.380000000000001,0.6300000000000003,8,4,4,2,43,22,8,3,2,0,18,7,H,0.21186046511627915,0.1845454545454546,0.17250000000000004,0.21000000000000005
5,19,37,1,8,0.24000000000000007,2,4,104,11,2,107,7.929999999999881,0.8300000000000005,0.9200000000000006,2.629999999999988,6,2,3,5,35,3,5,18,2,0,16,7,H,0.22657142857142865,0.2766666666666668,0.18400000000000002,0.14611111111111116
5,19,38,1,1,0.25000000000000006,2,3,76,72,69,83,6.229999999999917,2.7899999999999845,1.8800000000000014,1.9700000000000015,6,4,3,4,20,11,11,7,3,0,14,7,H,0.3115000000000001,0.2536363636363637,0.17090909090909095,0.2814285714285716
6,1,1,0,5,0.17,2,3,38,43,37,92,6.099999999999918,5.229999999999933,1.400000000000001,0.6700000000000004,8,6,3,1,29,11,3,1,5,0.5,18,7,H,0.21034482758620696,0.4754545454545457,0.4666666666666669,0.6700000000000004
6,1,2,0,9,0.2700000000000001,2,3,62,17,32,107,8.229999999999874,3.9499999999999598,0.9300000000000006,1.6300000000000012,4,6,2,2,31,15,2,2,4,0,17,7,H,0.26548387096774206,0.2633333333333334,0.4650000000000003,0.8150000000000005
6,2,3,0,8,0.2700000000000001,2,4,119,14,117,22,5.339999999999937,3.2699999999999743,1.8900000000000015,2.8899999999999824,7,3,3,7,17,10,4,14,2,0,16,7,H,0.31411764705882367,0.3270000000000002,0.47250000000000025,0.2064285714285715
6,2,4,0,9,0.24000000000000007,2,3,63,66,106,10,11.21999999999981,0.5300000000000002,1.6500000000000012,3.9499999999999598,10,2,4,10,47,4,6,15,4,0,16,7,H,0.23872340425531924,0.1325,0.27500000000000013,0.2633333333333334
6,3,5,0,10,0.2800000000000001,2,3,94,2,103,100,9.469999999999848,1.2000000000000008,1.260000000000001,0.17,5,2,3,1,34,2,5,1,3,0,13,7,H,0.27852941176470597,0.6000000000000003,0.25200000000000006,0.17
6,3,6,0,1,0.19000000000000003,2,3,109,117,84,118,8.299999999999871,2.5899999999999888,1.8200000000000014,0.3300000000000001,8,5,6,1,23,9,7,1,3,0.5,9,7,H,0.3608695652173915,0.2877777777777779,0.26000000000000006,0.3300000000000001
6,4,7,0,8,0.22000000000000006,2,6,116,109,117,29,7.589999999999887,3.9599999999999596,0.3900000000000002,3.619999999999967,10,8,2,5,42,12,2,12,2,0.5,11,7,H,0.18071428571428577,0.3300000000000001,0.195,0.3016666666666668
6,4,8,0,9,0.3000000000000001,3,5,64,66,48,70,7.769999999999885,2.9899999999999802,9.439999999999843,0.04,6,6,13,1,31,11,31,1,4,0.5,17,7,H,0.2506451612903227,0.27181818181818196,0.30451612903225816,0.04
6,5,9,0,2,0.16,1,2,56,91,19,41,10.769999999999818,1.0200000000000007,1.480000000000001,1.5600000000000012,6,2,2,2,40,3,5,6,4,0,18,7,H,0.2692500000000001,0.34000000000000014,0.2960000000000001,0.2600000000000001
6,5,10,0,9,0.2800000000000001,2,3,30,29,67,71,8.39999999999987,3.9999999999999587,0.6400000000000003,0.2700000000000001,9,6,2,3,27,9,2,3,4,0,18,7,H,0.3111111111111112,0.44444444444444464,0.3200000000000001,0.09000000000000001
6,6,11,0,9,0.45000000000000023,3,5,92,18,71,95,5.459999999999938,2.3699999999999934,0.45000000000000023,1.1100000000000008,10,2,1,2,24,9,1,2,4,0,16,7,H,0.2275000000000001,0.2633333333333335,0.45000000000000023,0.5550000000000003
6,6,12,0,6,0.13999999999999999,1,2,12,1,8,5,4.699999999999947,3.179999999999976,1.0100000000000007,17.01999999999986,4,4,2,13,8,10,2,58,6,1,72,7,H,0.5875000000000004,0.31800000000000017,0.5050000000000002,0.2934482758620691
6,7,13,1,11,0.2700000000000001,2,3,63,70,65,23,3.979999999999965,3.1099999999999777,2.6499999999999875,0.9900000000000007,4,2,5,1,13,7,10,2,4,0.5,18,7,H,0.3061538461538463,0.4442857142857145,0.2650000000000001,0.4950000000000002
6,7,14,1,1,1.2000000000000008,5,9,80,6,8,51,6.339999999999936,1.2200000000000009,2.5499999999999896,1.9300000000000015,9,2,2,2,23,4,9,6,3,0,19,7,H,0.2756521739130436,0.3050000000000001,0.2833333333333335,0.3216666666666668
6,8,15,1,13,0.3200000000000001,3,4,110,78,46,50,3.33999999999998,4.689999999999944,1.350000000000001,1.2400000000000009,5,3,2,2,12,22,2,2,2,0,14,7,H,0.2783333333333335,0.21318181818181825,0.6750000000000005,0.6200000000000003
6,8,16,1,11,0.3000000000000001,2,4,71,67,33,11,10.269999999999833,0.6100000000000003,1.5600000000000012,0.4200000000000002,6,2,4,1,46,3,7,1,4,0,19,7,H,0.22326086956521746,0.2033333333333334,0.22285714285714292,0.4200000000000002
6,9,17,1,3,0.8700000000000006,6,6,80,97,98,53,9.159999999999869,21.900000000000624,0.5300000000000002,1.6300000000000012,12,16,4,6,35,65,4,6,5,0,11,7,H,0.26171428571428584,0.3369230769230771,0.13250000000000003,0.2716666666666668
6,9,18,1,13,0.35000000000000014,2,5,115,38,109,8,5.329999999999939,7.329999999999888,0.20000000000000004,0.2900000000000001,4,6,1,1,19,22,2,1,2,0,15,7,H,0.28052631578947385,0.33318181818181836,0.1,0.2900000000000001
6,10,19,1,8,0.3000000000000001,2,4,58,76,104,108,10.759999999999822,0.34000000000000014,0.49000000000000027,0.5300000000000002,6,2,2,2,33,3,3,3,2,0,11,7,H,0.3260606060606062,0.11333333333333336,0.16333333333333336,0.1766666666666667
6,10,20,1,14,0.18000000000000002,2,3,42,48,95,85,5.5599999999999294,3.7699999999999636,1.5100000000000011,0.3000000000000001,5,5,5,3,18,12,5,3,3,0,16,7,H,0.30888888888888905,0.3141666666666668,0.3020000000000001,0.10000000000000003
6,11,21,1,2,0.23000000000000007,2,3,85,92,96,53,9.279999999999852,0.6900000000000004,1.0100000000000007,0.7700000000000005,10,1,2,2,34,1,3,5,4,0.5,13,7,H,0.27294117647058835,0.6900000000000004,0.33666666666666684,0.15400000000000003
6,11,22,1,7,0.13999999999999999,2,3,5,45,9,3,4.0599999999999605,5.029999999999937,0.47000000000000025,0.46000000000000024,6,5,2,2,15,18,2,2,6,0.5,23,7,H,0.2706666666666668,0.27944444444444455,0.23500000000000004,0.23000000000000004
6,12,23,1,15,0.2800000000000001,2,5,105,104,17,107,4.749999999999949,1.420000000000001,2.6899999999999866,0.7000000000000004,4,2,4,2,16,4,7,4,6,0.5,12,7,H,0.2968750000000001,0.35500000000000015,0.3842857142857145,0.17500000000000002
6,12,24,1,7,0.21000000000000005,2,3,7,3,39,79,8.329999999999872,10.139999999999828,0.02,0.08,5,9,1,1,35,33,1,1,6,0,20,7,H,0.23800000000000007,0.3072727272727274,0.02,0.08
6,13,25,1,12,0.3000000000000001,2,4,45,39,44,14,7.389999999999893,2.0400000000000005,1.300000000000001,6.479999999999906,8,2,4,7,27,8,7,23,5,0.5,21,7,H,0.27370370370370384,0.2550000000000001,0.18571428571428578,0.2817391304347827
6,13,26,1,3,0.21000000000000005,2,3,25,116,114,91,4.139999999999961,5.7199999999999225,1.1400000000000008,1.1400000000000008,4,6,5,2,14,25,5,3,5,0,12,7,H,0.2957142857142859,0.2288000000000001,0.22800000000000006,0.38000000000000017
6,14,27,1,3,0.18000000000000002,2,3,34,19,55,90,8.729999999999862,2.3199999999999945,1.360000000000001,1.9600000000000015,6,3,4,4,28,4,7,8,5,0,18,7,H,0.31178571428571444,0.5800000000000003,0.19428571428571434,0.2450000000000001
6,14,28,1,13,0.38000000000000017,2,4,109,74,116,76,10.249999999999835,0.7100000000000004,1.460000000000001,5.1099999999999355,10,1,7,11,32,1,10,17,2,0,10,7,H,0.32031250000000017,0.7100000000000004,0.14600000000000002,0.30058823529411777
6,15,29,1,2,0.48000000000000026,2,3,53,87,51,85,6.709999999999912,2.1199999999999988,2.489999999999991,1.430000000000001,5,3,3,2,23,8,11,6,4,0,14,7,H,0.2917391304347827,0.2650000000000001,0.22636363636363643,0.2383333333333334
6,15,30,1,7,0.5600000000000003,6,6,2,9,120,39,8.569999999999874,1.6100000000000012,1.7100000000000013,3.609999999999967,13,3,4,8,24,4,5,9,6,0,19,7,H,0.35708333333333353,0.4025000000000002,0.3420000000000002,0.4011111111111113
6,16,31,1,8,0.25000000000000006,2,3,101,102,43,97,3.619999999999972,3.4999999999999694,3.149999999999977,0.8600000000000005,4,4,2,4,15,10,8,5,2,0.5,11,7,H,0.24133333333333343,0.35000000000000014,0.39375000000000016,0.17200000000000004
6,16,32,1,11,0.26000000000000006,2,4,68,20,118,111,6.5299999999999105,5.879999999999919,0.9800000000000006,0.35000000000000014,5,3,5,1,22,15,5,1,4,0,14,7,H,0.2968181818181819,0.3920000000000002,0.19600000000000004,0.35000000000000014
6,17,33,1,2,0.4400000000000002,2,3,53,73,17,50,11.119999999999816,1.0600000000000007,7.9699999999998745,0.03,7,4,6,1,35,7,21,1,4,0,17,7,H,0.31771428571428584,0.15142857142857147,0.3795238095238097,0.03
6,17,34,1,14,0.5100000000000002,2,3,92,46,95,100,6.709999999999912,1.6800000000000013,1.2300000000000009,1.1700000000000008,6,2,3,2,18,7,7,2,3,0,13,7,H,0.37277777777777793,0.24000000000000007,0.17571428571428577,0.5850000000000004
6,18,35,1,1,0.17,2,3,42,23,18,78,11.429999999999804,2.5099999999999905,0.3300000000000001,2.6999999999999864,13,3,1,7,36,8,1,7,3,0,20,7,H,0.31750000000000017,0.31375000000000014,0.3300000000000001,0.38571428571428595
6,18,36,1,3,0.22000000000000006,3,5,28,36,32,26,3.549999999999973,1.8400000000000014,3.189999999999976,6.389999999999908,5,5,5,10,14,8,9,27,5,1,60,7,H,0.25357142857142867,0.2300000000000001,0.3544444444444446,0.23666666666666678
6,19,37,1,1,0.26000000000000006,2,4,76,80,44,74,7.529999999999889,0.9600000000000006,2.819999999999984,1.0800000000000007,9,4,6,4,26,7,9,6,3,0.5,14,7,H,0.2896153846153847,0.13714285714285718,0.31333333333333346,0.18000000000000005
6,19,38,1,2,0.24000000000000007,2,3,52,4,58,32,6.789999999999905,2.859999999999983,1.6500000000000012,1.1900000000000008,5,2,2,2,19,12,9,9,4,0,19,7,H,0.3573684210526318,0.23833333333333342,0.18333333333333338,0.13222222222222224
7,1,1,0,6,0.49000000000000027,2,4,94,89,33,96,1.580000000000001,0.7900000000000005,0.5300000000000002,0.34000000000000014,3,2,1,1,5,2,1,1,6,0.5,14,7,H,0.31600000000000017,0.3950000000000002,0.5300000000000002,0.34000000000000014
7,1,2,0,5,0.38000000000000017,2,3,47,105,45,39,1.0200000000000005,1.6600000000000013,0.09,0.10999999999999999,3,3,1,1,4,6,1,1,5,0.5,17,7,H,0.2550000000000001,0.2766666666666668,0.09,0.10999999999999999
7,2,3,0,1,0.3900000000000002,2,3,78,13,116,109,1.0300000000000005,1.270000000000001,1.330000000000001,0.6100000000000003,3,2,3,2,4,2,3,2,3,0,13,7,H,0.2575000000000001,0.6350000000000003,0.4433333333333335,0.30500000000000016
7,2,4,0,6,0.4300000000000002,2,3,105,1,108,4,3.569999999999977,0.060000000000000005,10.05999999999983,12.619999999999775,7,1,13,13,8,1,19,19,6,0,16,7,H,0.44625000000000026,0.060000000000000005,0.5294736842105262,0.6642105263157899
7,3,5,0,7,0.5200000000000002,2,3,105,36,34,16,3.5999999999999783,0.3900000000000002,0.2700000000000001,0.5800000000000003,6,2,2,2,10,2,2,2,6,0,18,7,H,0.36000000000000015,0.19500000000000003,0.135,0.29000000000000015
7,3,6,0,9,0.46000000000000024,2,3,3,8,46,44,1.3900000000000008,0.8700000000000006,1.320000000000001,1.1100000000000008,4,2,2,2,6,2,3,2,4,0,22,7,H,0.23166666666666674,0.43500000000000016,0.4400000000000003,0.5550000000000003
7,4,7,0,2,0.3900000000000002,2,3,53,42,7,46,0.9800000000000004,1.9800000000000015,0.17,0.2900000000000001,4,2,1,1,7,3,1,1,4,0,20,7,H,0.14000000000000004,0.6600000000000004,0.17,0.2900000000000001
7,4,8,0,8,0.6200000000000003,2,5,72,119,32,79,4.319999999999966,0.03,1.0700000000000007,0.07,6,1,2,1,9,1,2,1,2,0,14,7,H,0.4800000000000003,0.03,0.5350000000000004,0.07
7,5,9,0,9,0.5300000000000002,2,5,110,63,79,116,2.689999999999998,1.1600000000000008,0.09999999999999999,0.19000000000000003,6,2,1,1,10,2,1,1,4,0,11,7,H,0.26900000000000013,0.5800000000000003,0.09999999999999999,0.19000000000000003
7,5,10,0,4,0.6000000000000003,2,4,105,94,41,91,1.9800000000000013,0.6900000000000004,0.37000000000000016,0.3200000000000001,5,1,1,1,7,1,1,1,2,0,13,7,H,0.282857142857143,0.6900000000000004,0.37000000000000016,0.3200000000000001
7,6,11,0,2,0.38000000000000017,2,4,104,92,45,55,2.0500000000000016,0.5000000000000002,0.3200000000000001,0.11999999999999998,4,2,1,1,8,2,1,1,4,0,14,7,H,0.2562500000000001,0.25000000000000006,0.3200000000000001,0.11999999999999998
7,6,12,0,3,0.5200000000000002,2,4,112,26,110,120,1.3800000000000008,0.5200000000000002,0.6000000000000003,0.2800000000000001,3,1,2,2,5,1,3,2,5,0.5,11,7,H,0.27600000000000013,0.5200000000000002,0.20000000000000004,0.14
7,7,13,1,3,0.6700000000000004,2,4,28,24,58,116,1.4300000000000008,1.7900000000000014,3.4499999999999704,2.7999999999999843,4,4,5,2,6,6,7,2,5,0,17,7,H,0.2383333333333334,0.29833333333333345,0.4928571428571427,1.399999999999993
7,7,14,1,12,0.7800000000000005,2,4,65,101,77,62,2.330000000000002,0.36000000000000015,0.5800000000000003,0.47000000000000025,5,1,1,2,7,1,1,3,5,0,13,7,H,0.332857142857143,0.36000000000000015,0.5800000000000003,0.15666666666666668
7,8,15,1,11,0.7100000000000004,3,4,62,43,84,72,1.740000000000001,0.8000000000000005,0.12999999999999998,0.34000000000000014,4,1,1,1,5,1,1,1,4,0,16,7,H,0.34800000000000014,0.8000000000000005,0.12999999999999998,0.34000000000000014
7,8,16,1,2,0.34000000000000014,3,4,50,103,27,58,1.0400000000000005,1.270000000000001,0.47000000000000025,0.2700000000000001,4,2,1,2,5,3,1,2,4,0,15,7,H,0.20800000000000007,0.4233333333333335,0.47000000000000025,0.135
7,9,17,1,8,0.4300000000000002,2,3,97,51,34,23,1.2100000000000006,1.6400000000000012,1.0100000000000007,1.1300000000000008,4,3,4,3,7,6,4,3,2,0,17,7,H,0.1728571428571429,0.27333333333333343,0.25250000000000006,0.37666666666666687
7,9,18,1,7,0.4200000000000002,2,3,4,114,79,80,17.009999999999796,0.17,0.01,0.01,17,2,1,1,32,2,1,1,6,0,14,7,H,0.5315625000000003,0.085,0.01,0.01
7,10,19,1,15,0.5200000000000002,6,6,15,114,112,52,1.590000000000001,0.9600000000000006,0.6200000000000003,0.10999999999999999,7,3,2,1,7,3,2,1,6,0,14,7,H,0.22714285714285726,0.3200000000000001,0.3100000000000001,0.10999999999999999
7,10,20,1,14,1.7800000000000014,4,5,28,61,90,5,3.8000000000000025,0.4100000000000002,0.10999999999999999,0.21000000000000005,7,1,1,1,8,1,1,1,3,0,18,7,H,0.4750000000000003,0.4100000000000002,0.10999999999999999,0.21000000000000005
7,11,21,1,3,0.7400000000000004,2,3,8,4,110,120,2.410000000000002,12.569999999999776,0.9600000000000006,0.01,4,10,2,1,5,17,2,1,5,0,16,7,H,0.48200000000000026,0.7394117647058817,0.4800000000000002,0.01
7,11,22,1,12,0.47000000000000025,2,3,91,16,42,13,2.1100000000000017,0.8400000000000005,0.11999999999999998,0.34000000000000014,4,3,1,1,6,3,1,1,5,0,20,7,H,0.3516666666666668,0.28000000000000014,0.11999999999999998,0.34000000000000014
7,12,23,1,1,0.11999999999999998,2,2,6,83,75,114,10.419999999999824,0.01,0.04,0.3300000000000001,15,1,2,2,26,1,2,2,3,0,14,7,H,0.40076923076923093,0.01,0.02,0.16500000000000006
7,12,24,1,14,0.45000000000000023,2,3,17,101,88,21,3.3299999999999828,0.5700000000000003,0.07,1.390000000000001,5,1,1,3,6,1,1,3,3,0,17,7,H,0.5550000000000004,0.5700000000000003,0.07,0.46333333333333365
7,13,25,1,13,0.36000000000000015,1,2,113,39,46,65,1.520000000000001,0.8400000000000005,0.5700000000000003,0.25000000000000006,4,1,1,2,5,1,1,3,2,0,16,7,H,0.3040000000000001,0.8400000000000005,0.5700000000000003,0.08333333333333333
7,13,26,1,7,0.35000000000000014,2,4,98,76,11,49,2.0200000000000014,0.2700000000000001,0.15,0.9500000000000006,8,1,1,3,12,1,1,5,6,0,15,7,H,0.1683333333333334,0.2700000000000001,0.15,0.19000000000000006
7,14,27,1,11,0.49000000000000027,2,4,103,69,41,99,2.1900000000000017,0.3900000000000002,3.9199999999999604,0.01,4,2,6,1,6,2,6,1,4,0,13,7,H,0.3650000000000002,0.19500000000000006,0.6533333333333338,0.01
7,14,28,1,3,0.6900000000000004,2,3,87,10,49,29,2.0000000000000013,0.9600000000000006,2.1299999999999986,0.03,4,2,3,2,5,3,4,2,5,0,18,7,H,0.4000000000000002,0.3200000000000001,0.5325000000000003,0.015
7,15,29,1,3,3.1999999999999758,6,13,113,1,32,11,20.079999999999814,7.189999999999891,0.04,0.01,18,8,1,1,30,9,1,1,5,0,19,7,H,0.6693333333333332,0.7988888888888808,0.04,0.01
7,15,30,1,15,0.6600000000000004,2,4,55,82,56,22,2.540000000000002,0.3200000000000001,0.5100000000000002,0.15,4,1,1,2,6,1,1,2,6,0,17,7,H,0.42333333333333356,0.3200000000000001,0.5100000000000002,0.075
7,16,31,1,12,0.4200000000000002,2,3,40,65,15,111,1.630000000000001,0.4400000000000002,1.0000000000000007,0.6400000000000003,4,1,2,2,7,1,4,3,5,0,17,7,H,0.23285714285714293,0.4400000000000002,0.25000000000000006,0.21333333333333337
7,16,32,1,2,0.12999999999999998,2,2,1,105,5,58,48.13999999999902,0.01,0.01,0.02,20,1,1,1,61,1,1,1,4,0,18,7,H,0.789180327868851,0.01,0.01,0.02
7,17,33,1,1,0.35000000000000014,2,4,84,97,13,75,0.9100000000000004,0.9100000000000006,0.4000000000000002,0.09,3,1,1,1,5,1,1,1,3,0,14,7,H,0.18200000000000005,0.9100000000000006,0.4000000000000002,0.09
7,17,34,1,3,0.17,2,2,1,116,60,117,12.57999999999978,0.01,0.01,0.01,14,1,1,1,22,1,1,1,5,0,14,7,H,0.5718181818181812,0.01,0.01,0.01
7,18,35,1,3,0.2900000000000001,2,3,22,29,18,117,3.669999999999972,0.01,0.09,0.22000000000000006,4,1,1,2,6,1,1,2,5,0,19,7,H,0.611666666666664,0.01,0.09,0.10999999999999999
7,18,36,1,1,0.19000000000000003,1,2,73,51,79,3,0.8800000000000004,3.369999999999972,0.01,0.10999999999999999,3,6,1,1,5,6,1,1,3,0,16,7,H,0.17600000000000005,0.561666666666667,0.01,0.10999999999999999
7,19,37,1,12,0.6300000000000003,2,5,47,40,48,7,3.4799999999999836,0.07,1.8900000000000015,2.9399999999999813,5,1,2,3,10,1,3,3,5,0.5,21,7,H,0.3480000000000002,0.07,0.6300000000000004,0.9800000000000008
7,19,38,1,15,1.5300000000000011,3,8,65,72,84,76,34.87000000000194,0.01,1.5400000000000011,0.01,20,1,4,1,61,1,4,1,6,0,14,7,H,0.5716393442622952,0.01,0.38500000000000023,0.01
7,20,39,1,1,0.6700000000000004,2,4,77,4,57,41,1.720000000000001,0.9600000000000006,0.5100000000000002,0.2700000000000001,5,2,1,1,7,2,1,1,3,0,18,7,H,0.2457142857142858,0.48000000000000026,0.5100000000000002,0.2700000000000001
7,20,40,1,15,0.5000000000000002,2,5,87,16,113,13,2.1600000000000015,0.20000000000000004,2.299999999999995,6.29999999999991,4,1,5,9,7,1,5,13,6,0,17,7,H,0.3085714285714287,0.20000000000000004,0.46000000000000024,0.4846153846153847
7,21,41,1,8,0.6500000000000004,3,5,12,70,4,25,1.8300000000000012,0.4300000000000002,0.21000000000000005,0.3100000000000001,6,1,1,2,9,1,1,2,2,0,21,7,H,0.2033333333333334,0.4300000000000002,0.21000000000000005,0.155
7,21,42,1,13,0.6100000000000003,2,5,116,44,56,16,1.3200000000000007,0.46000000000000024,5.6699999999999235,0.01,4,2,4,1,7,2,5,1,2,0,17,7,H,0.18857142857142864,0.23000000000000012,1.1339999999999977,0.01
8,1,1,0,9,0.48000000000000026,2,3,65,87,102,10,1.3100000000000007,1.350000000000001,1.1000000000000008,0.21000000000000005,4,2,2,1,5,3,5,1,4,0,15,7,H,0.2620000000000001,0.45000000000000023,0.22000000000000006,0.21000000000000005
8,1,2,0,1,0.5200000000000002,2,4,74,13,15,81,1.7700000000000011,1.270000000000001,3.039999999999979,0.5500000000000003,4,4,4,2,8,4,6,2,3,0,18,7,H,0.22125000000000009,0.3175000000000001,0.5066666666666669,0.27500000000000013
8,2,3,0,4,1.0900000000000007,2,3,19,107,108,16,3.1300000000000012,2.259999999999996,0.3000000000000001,0.12999999999999998,5,5,1,1,7,6,1,1,2,0,16,7,H,0.4471428571428574,0.3766666666666668,0.3000000000000001,0.12999999999999998
8,2,4,0,8,0.5700000000000003,3,4,72,10,88,1,3.10999999999999,0.6500000000000004,0.34000000000000014,0.16,6,2,1,1,8,4,1,1,2,0,19,7,H,0.3887500000000002,0.16250000000000003,0.34000000000000014,0.16
8,3,5,0,3,0.7700000000000005,2,4,31,65,69,66,2.7900000000000014,0.5400000000000003,0.34000000000000014,0.3300000000000001,6,1,1,1,12,1,1,1,5,0.5,17,7,H,0.23250000000000007,0.5400000000000003,0.34000000000000014,0.3300000000000001
8,3,6,0,4,0.8600000000000005,5,6,2,84,77,103,4.429999999999969,0.5300000000000002,1.260000000000001,0.09,13,1,2,1,15,1,2,1,2,0,14,7,H,0.29533333333333345,0.5300000000000002,0.6300000000000003,0.09
8,4,7,0,2,0.4300000000000002,2,3,21,94,95,100,2.0900000000000016,1.6100000000000012,0.4000000000000002,0.23000000000000007,3,5,1,1,4,5,1,1,4,0,14,7,H,0.5225000000000003,0.3220000000000001,0.4000000000000002,0.23000000000000007
8,4,8,0,8,0.5900000000000003,2,3,110,112,66,78,1.4900000000000009,0.8500000000000005,1.1900000000000008,4.099999999999957,4,2,3,4,5,3,5,6,2,0,11,7,H,0.2980000000000001,0.28333333333333344,0.2380000000000001,0.6833333333333338
8,5,9,0,1,0.46000000000000024,2,4,80,6,83,107,1.4600000000000009,1.7200000000000013,0.22000000000000006,0.26000000000000006,4,3,1,1,6,5,1,1,3,0,14,7,H,0.24333333333333343,0.34400000000000014,0.22000000000000006,0.26000000000000006
8,5,10,0,5,0.4400000000000002,2,4,46,41,115,71,1.2400000000000007,0.5400000000000003,1.0800000000000007,0.3100000000000001,3,1,2,1,5,1,2,1,5,0,16,7,H,0.2480000000000001,0.5400000000000003,0.5400000000000003,0.3100000000000001
8,6,11,0,3,0.47000000000000025,2,3,33,118,67,10,1.550000000000001,2.7799999999999847,0.10999999999999999,0.09,3,4,1,1,4,8,1,1,5,0,17,7,H,0.38750000000000023,0.3475000000000002,0.10999999999999999,0.09
8,6,12,0,4,0.6800000000000004,2,3,16,98,19,102,3.819999999999977,0.4200000000000002,0.3900000000000002,0.09,6,2,1,1,9,3,1,1,2,0,16,7,H,0.4244444444444447,0.14,0.3900000000000002,0.09
8,7,13,1,11,0.7300000000000004,2,5,28,36,10,90,2.660000000000002,0.6700000000000004,0.3300000000000001,1.6500000000000012,4,1,1,2,7,1,1,4,4,0,19,7,H,0.3800000000000002,0.6700000000000004,0.3300000000000001,0.4125000000000002
8,7,14,1,12,0.8300000000000005,2,3,113,21,115,42,4.279999999999971,0.22000000000000006,0.16,2.1799999999999975,7,1,1,2,9,1,1,2,5,0,15,7,H,0.47555555555555584,0.22000000000000006,0.16,1.089999999999999
8,8,15,1,2,0.6800000000000004,4,5,2,50,10,8,22.960000000000683,0.01,0.01,0.01,16,1,1,1,28,1,1,1,4,0.5,22,7,H,0.8199999999999983,0.01,0.01,0.01
8,8,16,1,8,0.5800000000000003,2,3,22,86,103,41,4.289999999999965,0.5600000000000003,0.10999999999999999,0.11999999999999998,6,1,2,1,8,1,2,1,2,0,16,7,H,0.5362500000000003,0.5600000000000003,0.05500000000000001,0.11999999999999998
8,9,17,1,1,0.34000000000000014,2,3,83,84,9,108,1.9700000000000013,1.8300000000000014,0.34000000000000014,0.38000000000000017,5,3,2,1,7,4,2,1,3,0,14,7,H,0.28142857142857153,0.45750000000000024,0.17,0.38000000000000017
8,9,18,1,13,0.8600000000000005,10,11,113,118,110,30,1.710000000000001,1.450000000000001,0.6200000000000003,0.34000000000000014,11,2,3,1,12,2,3,1,2,0.5,11,7,H,0.14250000000000004,0.7250000000000004,0.20666666666666672,0.34000000000000014
8,10,19,1,14,0.45000000000000023,2,3,64,19,101,66,4.469999999999959,7.459999999999885,0.3200000000000001,0.3200000000000001,7,7,1,1,8,9,1,1,3,0,16,7,H,0.5587500000000003,0.8288888888888858,0.3200000000000001,0.3200000000000001
8,10,20,1,13,0.34000000000000014,4,4,11,110,55,52,9.189999999999856,0.01,0.03,0.02,11,1,1,1,16,1,1,1,2,0,16,7,H,0.5743749999999999,0.01,0.03,0.02
8,11,21,1,3,0.5900000000000003,3,4,13,29,66,19,5.059999999999949,0.05,0.09999999999999999,0.09,11,1,1,1,13,1,1,1,5,0,21,7,H,0.38923076923076944,0.05,0.09999999999999999,0.09
8,11,22,1,13,0.6400000000000003,2,3,109,117,81,1,1.650000000000001,0.8600000000000005,1.280000000000001,3.3999999999999715,4,2,2,2,5,2,2,2,2,0,13,7,H,0.3300000000000001,0.43000000000000016,0.6400000000000003,1.6999999999999866
8,12,23,1,14,0.8200000000000005,2,5,89,96,38,9,2.9499999999999993,0.5900000000000003,0.6000000000000003,0.3000000000000001,5,2,2,2,8,2,2,3,3,0,17,7,H,0.3687500000000002,0.2950000000000001,0.3000000000000001,0.1
8,12,24,1,3,0.4400000000000002,3,4,35,80,74,22,2.270000000000002,1.390000000000001,0.3300000000000001,0.24000000000000007,6,3,1,1,7,4,1,1,5,0,17,7,H,0.32428571428571445,0.34750000000000014,0.3300000000000001,0.24000000000000007
8,13,25,1,7,0.37000000000000016,1,2,2,46,48,41,1.4600000000000009,0.9000000000000006,0.5200000000000002,0.36000000000000015,3,1,2,1,4,1,2,1,6,0.5,21,7,H,0.36500000000000016,0.9000000000000006,0.26000000000000006,0.36000000000000015
8,13,26,1,2,1.5200000000000011,13,16,15,53,97,51,3.6399999999999997,0.09999999999999999,0.8500000000000005,0.04,15,1,2,1,18,1,2,1,4,0,16,7,H,0.2022222222222223,0.09999999999999999,0.4250000000000002,0.04
8,14,27,1,3,0.5300000000000002,2,4,34,9,30,26,3.7099999999999764,1.1600000000000008,0.07,4.119999999999957,6,3,1,3,11,5,1,3,5,0.5,21,7,H,0.33727272727272745,0.23200000000000007,0.07,1.3733333333333244
8,14,28,1,12,3.2499999999999747,6,9,38,17,85,47,22.970000000000258,0.01,0.01,0.01,19,1,1,1,36,1,1,1,5,0,19,7,H,0.6380555555555555,0.01,0.01,0.01
8,15,29,1,13,0.6800000000000004,5,8,110,89,85,94,1.590000000000001,3.2199999999999753,0.5500000000000003,0.10999999999999999,6,2,3,1,9,3,3,1,2,0.5,11,7,H,0.17666666666666672,1.073333333333326,0.1833333333333334,0.10999999999999999
8,15,30,1,11,0.22000000000000006,1,2,64,13,70,19,1.1400000000000006,1.2100000000000009,0.3000000000000001,0.35000000000000014,3,2,2,1,4,3,2,1,4,0,20,7,H,0.2850000000000001,0.40333333333333354,0.15,0.35000000000000014
8,16,31,1,2,0.8600000000000005,2,5,89,53,92,50,3.189999999999995,0.5400000000000003,3.239999999999975,2.5599999999999894,6,2,2,2,12,2,2,2,4,0,14,7,H,0.2658333333333334,0.2700000000000001,1.6199999999999877,1.2799999999999947
8,16,32,1,12,0.6000000000000003,2,4,40,16,17,13,1.660000000000001,2.109999999999999,6.109999999999914,0.01,4,4,5,1,6,4,5,1,5,0.5,23,7,H,0.2766666666666668,0.5275000000000003,1.2219999999999993,0.01
8,17,33,1,11,0.3000000000000001,1,2,65,89,90,61,3.0099999999999865,1.270000000000001,0.12999999999999998,0.07,9,4,1,1,11,4,1,1,4,0,14,7,H,0.27363636363636373,0.3175000000000001,0.12999999999999998,0.07
8,17,34,1,1,0.8400000000000005,5,5,57,17,20,109,12.409999999999798,0.01,0.01,0.01,15,1,1,1,19,1,1,1,3,0,18,7,H,0.6531578947368402,0.01,0.01,0.01
8,18,35,1,2,0.6400000000000003,2,3,24,13,82,97,2.2400000000000015,0.5600000000000003,0.7000000000000004,2.8899999999999824,5,2,2,3,6,2,2,3,4,0,17,7,H,0.3733333333333335,0.2800000000000001,0.35000000000000014,0.9633333333333312
8,18,36,1,13,1.1000000000000008,2,3,120,96,118,38,2.8500000000000023,0.6800000000000004,1.2400000000000009,1.290000000000001,4,2,3,3,5,3,4,4,2,0,12,7,H,0.5700000000000004,0.22666666666666674,0.31000000000000016,0.3225000000000001
8,19,37,1,11,0.4200000000000002,2,3,71,75,117,18,1.2200000000000006,1.440000000000001,0.3000000000000001,0.5700000000000003,4,2,1,2,5,2,1,3,4,0,15,7,H,0.2440000000000001,0.7200000000000004,0.3000000000000001,0.19000000000000003
8,19,38,1,7,0.5700000000000003,2,5,95,94,2,56,2.7199999999999984,0.4100000000000002,0.5900000000000003,0.6200000000000003,6,1,3,1,9,1,3,1,6,0,16,7,H,0.30222222222222234,0.4100000000000002,0.19666666666666674,0.6200000000000003
8,20,39,1,2,0.38000000000000017,2,3,52,75,51,7,1.3600000000000008,0.6900000000000004,0.35000000000000014,3.5999999999999672,3,1,1,2,5,1,1,3,4,0,17,7,H,0.27200000000000013,0.6900000000000004,0.35000000000000014,1.1999999999999913
8,20,40,1,13,1.0000000000000007,3,7,17,89,110,25,3.8699999999999832,5.769999999999921,0.01,0.02,8,2,1,1,12,2,1,1,2,0,16,7,H,0.3225000000000001,2.8849999999999607,0.01,0.02
8,21,41,1,12,0.5800000000000003,2,3,48,19,21,79,1.750000000000001,1.6200000000000012,0.4000000000000002,0.21000000000000005,4,3,1,1,5,4,1,1,5,0,20,7,H,0.3500000000000002,0.4050000000000002,0.4000000000000002,0.21000000000000005
8,21,42,1,13,0.6900000000000004,2,4,117,120,93,29,1.2700000000000007,1.6800000000000013,0.6100000000000003,0.12999999999999998,4,3,1,1,6,4,1,1,2,0,12,7,H,0.21166666666666673,0.4200000000000002,0.6100000000000003,0.12999999999999998
9,1,1,0,3,0.15,2,3,26,29,18,88,1.2000000000000006,0.6100000000000003,0.5100000000000002,0.6500000000000004,4,2,2,4,11,11,6,6,5,0,19,7,H,0.10909090909090911,0.05545454545454545,0.085,0.10833333333333335
9,1,2,0,5,0.20000000000000004,2,5,40,101,104,37,1.670000000000001,1.2400000000000009,0.13999999999999999,0.060000000000000005,4,3,1,2,17,14,1,2,5,0,14,7,H,0.09823529411764707,0.08857142857142858,0.13999999999999999,0.03
9,2,3,0,6,0.10999999999999999,1,2,12,40,113,87,0.7500000000000003,1.9600000000000015,0.3200000000000001,0.13999999999999999,4,3,2,2,10,19,5,2,6,0,16,7,H,0.07500000000000001,0.10315789473684212,0.064,0.06999999999999999
9,2,4,0,3,0.4000000000000002,2,5,28,99,35,15,1.610000000000001,0.20000000000000004,0.5800000000000003,0.16,5,1,5,2,18,1,5,3,5,0,18,7,H,0.08944444444444445,0.20000000000000004,0.11600000000000002,0.05333333333333333
9,3,5,0,2,0.3000000000000001,2,4,52,10,89,115,1.560000000000001,1.2400000000000009,0.09,0.4300000000000002,4,5,1,2,12,14,1,3,4,0,15,7,H,0.13000000000000003,0.08857142857142858,0.09,0.14333333333333337
9,3,6,0,3,0.34000000000000014,2,7,105,108,28,30,2.1300000000000017,0.4100000000000002,0.26000000000000006,0.16,4,2,2,2,26,4,2,3,5,0,14,7,H,0.08192307692307693,0.10250000000000002,0.12999999999999998,0.05333333333333334
9,4,7,0,3,0.18000000000000002,3,4,89,33,15,93,1.4400000000000008,0.5600000000000003,0.35000000000000014,0.15,5,2,2,2,19,7,4,3,5,0,17,7,H,0.07578947368421053,0.08,0.0875,0.05
9,4,8,0,6,0.3900000000000002,2,7,2,59,41,103,2.0500000000000016,0.5500000000000003,0.13999999999999999,0.4100000000000002,5,2,1,3,27,5,2,5,6,0,17,7,H,0.07592592592592592,0.11000000000000004,0.06999999999999999,0.082
9,5,9,0,7,0.22000000000000006,2,4,83,15,24,55,6.399999999999912,0.6700000000000004,0.01,0.01,11,6,1,1,65,8,1,1,6,0,19,7,H,0.09846153846153848,0.08374999999999999,0.01,0.01
9,5,10,0,8,0.22000000000000006,3,5,9,29,66,120,2.6999999999999913,0.5900000000000003,0.2800000000000001,0.09999999999999999,7,2,1,2,25,6,1,2,2,0,17,7,H,0.10800000000000003,0.09833333333333334,0.2800000000000001,0.05
9,6,11,0,3,0.24000000000000007,2,5,25,26,76,34,1.2300000000000006,0.4300000000000002,0.35000000000000014,0.4200000000000002,4,2,2,4,18,5,2,6,5,0.5,18,7,H,0.06833333333333333,0.08600000000000001,0.17500000000000007,0.07
9,6,12,0,8,0.23000000000000007,2,3,113,90,43,116,1.4900000000000009,1.370000000000001,0.09999999999999999,0.08,4,3,1,2,17,8,1,2,2,0,12,7,H,0.08764705882352943,0.17125000000000007,0.09999999999999999,0.04
9,7,13,1,14,0.17,2,3,86,85,88,103,1.8300000000000012,0.13999999999999999,0.3100000000000001,0.09999999999999999,4,1,4,1,17,1,6,1,3,0.5,11,7,H,0.10764705882352942,0.13999999999999999,0.051666666666666666,0.09999999999999999
9,7,14,1,2,0.2700000000000001,2,4,120,56,18,57,2.6799999999999926,0.08,0.17,0.05,6,1,1,1,20,1,1,1,4,0,16,7,H,0.13400000000000004,0.08,0.17,0.05
9,8,15,1,14,0.38000000000000017,3,8,88,27,96,31,1.570000000000001,0.19000000000000003,0.25000000000000006,0.7400000000000004,5,2,2,4,18,2,3,5,3,0,16,7,H,0.08722222222222223,0.095,0.08333333333333333,0.14800000000000005
9,8,16,1,12,0.3100000000000001,2,5,17,19,37,39,2.1600000000000015,0.25000000000000006,0.23000000000000007,0.6300000000000003,6,2,2,6,15,3,3,8,5,0,22,7,H,0.14400000000000002,0.08333333333333333,0.07666666666666666,0.07875000000000001
9,9,17,1,14,0.34000000000000014,3,5,31,85,20,88,1.0900000000000005,0.20000000000000004,1.1500000000000008,0.3200000000000001,6,1,2,2,12,1,12,2,3,0,17,7,H,0.09083333333333334,0.20000000000000004,0.09583333333333334,0.16000000000000003
9,9,18,1,13,0.38000000000000017,2,5,120,59,109,113,1.0100000000000005,0.5500000000000003,0.5800000000000003,0.18000000000000002,4,2,4,1,13,3,6,1,2,0.5,10,7,H,0.0776923076923077,0.1833333333333334,0.09666666666666666,0.18000000000000002
9,10,19,1,11,0.21000000000000005,2,4,4,66,79,28,5.009999999999942,0.01,0.02,0.02,10,1,2,1,51,1,2,1,4,0,18,7,H,0.09823529411764707,0.01,0.01,0.02
9,10,20,1,13,0.3300000000000001,2,5,39,93,94,20,3.0799999999999854,0.16,0.060000000000000005,0.22000000000000006,9,1,1,2,37,1,1,5,2,0,17,7,H,0.08324324324324325,0.16,0.060000000000000005,0.044000000000000004
9,11,21,1,13,0.3200000000000001,2,6,110,69,4,31,3.5899999999999745,0.4100000000000002,0.09999999999999999,0.18000000000000002,9,2,2,2,32,6,2,2,2,0,17,7,H,0.11218750000000002,0.06833333333333334,0.05,0.09
9,11,22,1,15,0.23000000000000007,2,3,17,16,83,43,1.3700000000000008,2.719999999999986,0.02,0.05,5,8,1,2,8,21,1,2,6,0,20,7,H,0.17125000000000004,0.12952380952380954,0.02,0.025
9,12,23,1,8,0.18000000000000002,2,3,76,82,36,79,1.560000000000001,0.19000000000000003,0.36000000000000015,0.4400000000000002,6,1,2,4,13,1,2,5,2,0.5,14,7,H,0.12000000000000002,0.19000000000000003,0.18000000000000005,0.088
9,12,24,1,13,0.18000000000000002,2,4,119,120,66,87,1.2400000000000007,0.8400000000000005,0.3100000000000001,0.2700000000000001,6,2,2,2,14,5,3,3,2,0,11,7,H,0.08857142857142859,0.16800000000000004,0.10333333333333336,0.09
9,13,25,1,12,0.11999999999999998,2,3,45,39,108,40,1.2700000000000007,0.23000000000000007,0.8600000000000005,0.12999999999999998,5,2,5,2,15,3,10,2,5,0.5,17,7,H,0.08466666666666667,0.07666666666666666,0.086,0.065
9,13,26,1,13,0.25000000000000006,2,4,120,115,113,25,1.700000000000001,0.6500000000000004,0.35000000000000014,0.9900000000000007,4,2,3,4,20,6,3,12,2,0.5,11,7,H,0.085,0.10833333333333334,0.11666666666666668,0.0825
9,14,27,1,3,0.4300000000000002,2,5,25,29,97,34,2.9899999999999896,0.09999999999999999,0.2700000000000001,0.2800000000000001,11,1,3,3,23,1,4,4,5,0.5,17,7,H,0.13000000000000003,0.09999999999999999,0.06749999999999999,0.06999999999999999
9,14,28,1,14,0.11999999999999998,2,3,88,115,119,72,1.3600000000000008,0.6600000000000004,0.5000000000000002,0.3200000000000001,4,4,2,2,18,10,6,5,3,0,11,7,H,0.07555555555555556,0.066,0.08333333333333333,0.064
9,15,29,1,13,0.09999999999999999,2,5,20,94,16,117,2.439999999999994,0.5100000000000002,0.04,0.11999999999999998,7,3,1,2,19,4,1,2,2,0,17,7,H,0.128421052631579,0.12750000000000003,0.04,0.06
9,15,30,1,1,0.24000000000000007,2,3,25,78,80,31,1.8700000000000012,0.22000000000000006,0.5500000000000003,0.22000000000000006,6,2,5,3,18,3,7,4,3,0,16,7,H,0.1038888888888889,0.07333333333333333,0.07857142857142858,0.055
9,16,31,1,11,0.13999999999999999,2,3,61,31,65,76,1.1900000000000006,3.4399999999999706,0.01,0.02,4,8,1,1,19,29,1,1,4,0,16,7,H,0.06263157894736843,0.11862068965517245,0.01,0.02
9,16,32,1,12,0.5800000000000003,2,9,88,19,42,92,1.670000000000001,1.1600000000000008,0.19000000000000003,0.04,5,3,1,1,16,12,1,1,5,0,17,7,H,0.10437500000000001,0.09666666666666668,0.19000000000000003,0.04
9,17,33,1,3,0.19000000000000003,2,8,29,23,52,19,1.8800000000000012,0.9500000000000006,0.6500000000000004,0.7000000000000004,4,6,3,4,22,12,4,4,5,0,21,7,H,0.08545454545454546,0.07916666666666669,0.16250000000000003,0.17500000000000004
9,17,34,1,13,0.16,2,3,118,7,12,114,0.9500000000000005,12.779999999999772,0.01,0.01,5,19,1,1,9,113,1,1,2,0,16,7,H,0.10555555555555557,0.11309734513274339,0.01,0.01
9,18,35,1,1,0.23000000000000007,2,3,83,10,3,57,1.0300000000000005,0.3200000000000001,0.45000000000000023,0.45000000000000023,5,2,2,3,9,4,3,4,3,0,19,7,H,0.11444444444444445,0.08,0.15000000000000002,0.1125
9,18,36,1,11,0.20000000000000004,2,4,66,17,20,62,1.1400000000000006,1.1600000000000008,0.7400000000000004,0.07,4,3,3,2,12,11,7,2,4,0,20,7,H,0.09500000000000001,0.10545454545454547,0.10571428571428572,0.035
9,19,37,1,3,0.8000000000000005,3,5,8,90,34,32,2.4400000000000017,0.5800000000000003,0.6800000000000004,0.07,8,2,7,2,17,4,8,2,5,0,19,7,H,0.14352941176470593,0.14500000000000005,0.08500000000000002,0.035
9,19,38,1,12,0.2800000000000001,2,3,46,24,37,97,0.8800000000000003,1.0900000000000007,0.08,0.37000000000000016,4,2,1,2,9,8,1,5,5,0,18,7,H,0.09777777777777778,0.13625,0.08,0.074
9,20,39,1,13,0.22000000000000006,2,3,5,7,62,119,6.199999999999917,0.01,0.01,0.01,12,1,1,1,54,1,1,1,2,0,18,7,H,0.11481481481481483,0.01,0.01,0.01
9,20,40,1,1,0.8200000000000005,3,11,101,14,77,78,2.0200000000000014,0.22000000000000006,0.26000000000000006,0.3100000000000001,5,2,2,3,22,2,3,4,3,0,14,7,H,0.09181818181818181,0.11000000000000001,0.08666666666666666,0.0775
9,21,41,1,14,0.18000000000000002,2,5,97,106,23,94,2.429999999999996,0.4100000000000002,0.13999999999999999,0.060000000000000005,7,2,2,2,27,4,3,3,3,0,13,7,H,0.09000000000000001,0.1025,0.04666666666666667,0.02
9,21,42,1,1,0.18000000000000002,2,3,74,118,4,9,1.3300000000000007,1.0000000000000007,0.18000000000000002,0.13999999999999999,4,4,2,2,11,9,3,3,3,0,17,7,H,0.12090909090909094,0.11111111111111113,0.06,0.04666666666666667
9,22,43,1,14,0.21000000000000005,2,3,89,24,94,22,1.730000000000001,1.370000000000001,0.11999999999999998,0.2700000000000001,4,7,1,2,13,17,1,3,3,0,18,7,H,0.13307692307692312,0.08058823529411765,0.11999999999999998,0.09
9,22,44,1,2,0.37000000000000016,2,4,75,53,82,107,1.8000000000000012,0.3300000000000001,0.37000000000000016,0.38000000000000017,4,2,2,2,15,4,2,3,4,0,12,7,H,0.12000000000000001,0.08249999999999999,0.18500000000000003,0.1266666666666667
10,1,1,0,3,0.49000000000000027,2,4,26,18,107,23,4.179999999999966,0.7600000000000005,0.5300000000000002,0.2800000000000001,7,2,2,2,26,3,3,3,5,0,19,7,H,0.1607692307692308,0.2533333333333334,0.17666666666666672,0.09333333333333335
10,1,2,0,6,0.38000000000000017,2,7,3,1,4,114,3.589999999999976,15.489999999999714,0.25000000000000006,0.01,10,19,3,1,26,107,3,1,6,0.5,20,7,H,0.13807692307692312,0.14476635514018696,0.08333333333333336,0.01
10,2,3,0,2,0.18000000000000002,2,3,50,57,98,56,2.569999999999993,1.450000000000001,1.370000000000001,0.12999999999999998,6,4,3,2,13,9,8,2,4,0.5,14,7,H,0.19769230769230775,0.16111111111111115,0.17125000000000004,0.06499999999999999
10,2,4,0,7,0.4300000000000002,2,6,23,13,34,62,2.9099999999999913,2.109999999999999,2.9399999999999813,1.8700000000000014,7,4,6,4,22,11,16,11,6,0,21,7,H,0.1322727272727273,0.1918181818181819,0.18375000000000005,0.17000000000000004
10,3,5,0,3,0.24000000000000007,2,4,30,31,36,35,3.0399999999999845,0.5100000000000002,0.4000000000000002,1.8900000000000015,8,3,2,5,21,5,3,11,5,1,60,7,H,0.14476190476190479,0.102,0.13333333333333336,0.1718181818181819
10,3,6,0,4,0.4000000000000002,2,7,14,107,23,97,5.159999999999943,0.11999999999999998,0.3900000000000002,0.34000000000000014,8,1,2,5,32,1,4,5,2,0,16,7,H,0.16125000000000003,0.11999999999999998,0.0975,0.06799999999999999
10,4,7,0,7,0.24000000000000007,2,3,19,22,103,30,3.4499999999999758,2.349999999999994,0.48000000000000026,1.7000000000000013,8,9,2,6,19,18,2,11,6,0,19,7,H,0.1815789473684211,0.1305555555555556,0.24000000000000005,0.15454545454545457
10,4,8,0,5,0.2800000000000001,2,6,45,40,43,44,1.4100000000000008,0.7700000000000005,0.7300000000000004,1.7500000000000013,4,4,3,8,16,4,4,14,5,1,60,7,H,0.08812500000000001,0.1925000000000001,0.18250000000000005,0.12500000000000003
10,5,9,0,4,0.34000000000000014,2,7,106,100,99,71,2.599999999999996,1.8600000000000014,0.23000000000000007,2.849999999999983,10,5,2,9,27,18,2,17,2,0.5,10,7,H,0.09629629629629631,0.10333333333333335,0.11500000000000003,0.16764705882352945
10,5,10,0,8,0.21000000000000005,3,4,116,117,113,29,3.0399999999999836,0.7900000000000005,0.9000000000000006,0.9600000000000006,12,2,5,4,23,10,7,6,2,0.5,11,7,H,0.13217391304347828,0.079,0.1285714285714286,0.16000000000000003
10,6,11,0,4,0.3300000000000001,2,6,102,20,72,22,2.6999999999999935,3.9999999999999587,1.5100000000000011,0.13999999999999999,8,6,5,1,16,27,10,1,2,0,18,7,H,0.16875000000000004,0.14814814814814817,0.15100000000000005,0.13999999999999999
10,6,12,0,3,0.49000000000000027,4,5,114,27,29,28,3.9499999999999704,2.429999999999992,0.05,0.09,14,6,1,2,28,10,1,2,5,0.5,17,7,H,0.1410714285714286,0.2430000000000001,0.05,0.045
10,7,13,1,12,0.6900000000000004,2,6,120,117,119,63,4.929999999999954,1.330000000000001,0.17,1.430000000000001,9,2,1,2,32,10,1,8,5,0.5,10,7,H,0.15406250000000002,0.133,0.17,0.17875000000000002
10,7,14,1,2,0.24000000000000007,2,4,51,49,36,55,2.459999999999997,0.6900000000000004,2.959999999999981,0.10999999999999999,4,2,9,2,19,3,16,2,4,0.5,17,7,H,0.12947368421052632,0.23000000000000007,0.18500000000000005,0.055
10,8,15,1,1,0.2900000000000001,2,4,78,73,77,119,2.1000000000000014,2.289999999999995,2.7799999999999847,0.7900000000000005,7,4,8,4,14,7,15,7,3,0.5,11,7,H,0.15000000000000002,0.3271428571428573,0.18533333333333338,0.11285714285714286
10,8,16,1,11,0.25000000000000006,2,3,68,99,98,97,0.9100000000000004,4.399999999999951,0.36000000000000015,2.4999999999999907,4,6,1,8,5,25,1,15,4,0.5,10,7,H,0.18200000000000005,0.17600000000000005,0.36000000000000015,0.1666666666666667
10,9,17,1,12,0.10999999999999999,2,2,13,93,22,110,19.55000000000024,0.01,0.11999999999999998,0.05,20,1,2,2,119,1,3,2,5,0,17,7,H,0.16428571428571434,0.01,0.039999999999999994,0.025
10,9,18,1,7,0.26000000000000006,2,3,27,4,34,12,7.0299999999999,0.05,1.6600000000000013,0.7900000000000005,10,1,6,5,35,1,9,8,6,0,22,7,H,0.20085714285714293,0.05,0.1844444444444445,0.09875
10,10,19,1,15,0.49000000000000027,2,4,13,19,29,96,7.409999999999897,0.07,0.22000000000000006,0.16,15,2,3,2,49,2,3,2,6,0,20,7,H,0.1512244897959184,0.035,0.07333333333333333,0.08
10,10,20,1,7,0.26000000000000006,2,3,113,11,115,112,2.79999999999999,1.380000000000001,0.6100000000000003,1.0000000000000007,7,7,4,4,12,9,5,4,6,0.5,12,7,H,0.23333333333333342,0.15333333333333338,0.12200000000000004,0.25000000000000006
10,11,21,1,11,0.20000000000000004,2,3,70,63,11,6,2.0900000000000016,0.6600000000000004,2.5499999999999896,0.22000000000000006,6,2,5,1,16,3,14,2,4,0,20,7,H,0.13062500000000002,0.22000000000000006,0.1821428571428572,0.11000000000000003
10,11,22,1,15,0.3900000000000002,4,7,13,15,94,97,4.31999999999996,5.289999999999932,0.02,0.08,11,9,1,1,33,32,1,1,6,0,17,7,H,0.13090909090909092,0.16531250000000003,0.02,0.08
10,12,23,1,13,0.9500000000000006,2,10,109,113,15,114,2.820000000000002,0.3100000000000001,0.3300000000000001,0.6700000000000004,4,1,2,2,24,1,2,5,2,0.5,12,7,H,0.11750000000000002,0.3100000000000001,0.16500000000000004,0.13400000000000004
10,12,24,1,7,0.34000000000000014,2,5,12,102,95,94,1.9800000000000013,4.769999999999943,0.22000000000000006,0.7300000000000004,5,7,2,3,11,31,2,8,6,0,14,7,H,0.18000000000000005,0.15387096774193554,0.11,0.09125000000000001
10,13,25,1,14,0.49000000000000027,2,5,98,108,70,96,3.5299999999999794,0.8900000000000006,2.399999999999993,0.13999999999999999,9,4,5,2,24,4,14,2,3,0,11,7,H,0.14708333333333337,0.22250000000000006,0.17142857142857146,0.06999999999999999
10,13,26,1,3,0.8000000000000005,4,6,31,18,25,113,3.259999999999992,0.5300000000000002,0.8800000000000006,0.2900000000000001,6,2,2,1,28,3,10,2,5,0,18,7,H,0.11642857142857144,0.1766666666666667,0.08800000000000001,0.14500000000000002
10,14,27,1,2,1.5200000000000011,3,6,53,87,51,8,2.4700000000000015,0.6000000000000003,1.420000000000001,2.0300000000000007,5,2,2,4,10,3,14,8,4,0,17,7,H,0.2470000000000001,0.20000000000000004,0.10142857142857144,0.2537500000000001
10,14,28,1,1,0.5800000000000003,2,7,80,81,15,18,1.750000000000001,3.0299999999999794,0.12999999999999998,0.47000000000000025,5,6,2,3,15,17,2,8,3,0,18,7,H,0.11666666666666668,0.1782352941176471,0.06499999999999999,0.05875
10,15,29,1,3,0.19000000000000003,2,3,35,33,32,3,2.0400000000000014,3.0299999999999794,0.2900000000000001,2.3599999999999937,7,10,2,10,13,14,6,13,5,0.5,21,7,H,0.15692307692307697,0.21642857142857153,0.04833333333333333,0.1815384615384616
10,15,30,1,1,0.6600000000000004,2,7,21,23,97,17,3.589999999999982,2.3799999999999932,0.9100000000000006,0.38000000000000017,6,5,3,3,28,7,4,4,3,0.5,20,7,H,0.12821428571428573,0.3400000000000002,0.2275000000000001,0.09500000000000001
10,16,31,1,3,0.12999999999999998,2,2,2,31,79,74,13.409999999999762,0.01,0.03,0.03,20,1,1,1,79,1,1,1,5,0,17,7,H,0.169746835443038,0.01,0.03,0.03
10,16,32,1,12,0.25000000000000006,2,3,43,41,47,18,3.629999999999972,2.0500000000000003,2.0400000000000005,0.9400000000000006,12,10,12,8,26,14,18,8,5,0.5,21,7,H,0.13961538461538464,0.14642857142857144,0.11333333333333336,0.11750000000000001
10,17,33,1,7,0.15,2,3,1,8,92,6,6.089999999999918,0.09,0.48000000000000026,0.07,12,1,4,1,32,1,4,1,6,0.5,21,7,H,0.19031250000000005,0.09,0.12000000000000001,0.07
10,17,34,1,11,0.24000000000000007,3,7,61,24,27,63,1.680000000000001,1.260000000000001,4.179999999999955,0.09,8,3,10,1,15,7,27,1,4,0,19,7,H,0.11200000000000003,0.18000000000000005,0.15481481481481485,0.09
10,18,35,1,3,0.10999999999999999,2,3,30,31,36,87,1.7300000000000013,1.470000000000001,0.12999999999999998,0.4200000000000002,4,3,1,2,15,12,1,2,5,0.5,18,7,H,0.11533333333333336,0.12250000000000001,0.12999999999999998,0.21000000000000005
10,18,36,1,1,0.47000000000000025,3,5,65,72,69,80,3.149999999999987,0.4200000000000002,0.4200000000000002,0.20000000000000004,6,2,2,2,21,2,4,2,3,0.5,15,7,H,0.15000000000000002,0.21000000000000002,0.10500000000000001,0.1
10,19,37,1,12,0.5200000000000002,5,6,38,110,46,70,1.590000000000001,0.5800000000000003,1.0400000000000007,0.5400000000000003,8,2,3,3,11,3,5,4,5,0,16,7,H,0.14454545454545456,0.1933333333333334,0.20800000000000005,0.13500000000000004
10,19,38,1,8,0.5600000000000003,2,10,99,97,108,91,3.7699999999999756,1.6700000000000013,0.38000000000000017,1.2500000000000009,5,6,2,5,33,11,2,8,2,0.5,9,7,H,0.11424242424242426,0.15181818181818185,0.19,0.15625000000000003
10,20,39,1,11,0.21000000000000005,2,4,93,66,14,90,3.1399999999999815,1.360000000000001,0.5300000000000002,1.0600000000000007,6,3,2,3,25,10,4,7,4,0,16,7,H,0.12560000000000002,0.136,0.1325,0.15142857142857147
10,20,40,1,13,0.26000000000000006,2,5,112,118,115,75,3.9499999999999655,0.19000000000000003,0.26000000000000006,0.6800000000000004,8,2,3,2,23,3,3,3,2,0.5,9,7,H,0.17173913043478267,0.06333333333333332,0.08666666666666666,0.22666666666666674
10,21,41,1,1,0.8900000000000006,3,11,75,36,101,98,2.3200000000000016,2.010000000000001,0.7400000000000004,1.1900000000000008,7,6,3,4,21,13,7,12,3,0,12,7,H,0.11047619047619049,0.15461538461538465,0.10571428571428572,0.09916666666666668
10,21,42,1,7,0.21000000000000005,2,3,9,7,2,85,1.4100000000000008,0.5000000000000002,8.509999999999863,0.34000000000000014,5,2,11,2,12,3,51,3,6,0.5,21,7,H,0.11750000000000001,0.16666666666666669,0.16686274509803928,0.11333333333333336
11,1,1,0,8,0.24000000000000007,2,5,14,22,117,109,6.449999999999912,0.9300000000000006,0.8100000000000005,1.1000000000000008,7,3,2,2,42,5,4,6,2,0,16,7,H,0.1535714285714286,0.18600000000000005,0.20250000000000004,0.18333333333333338
11,1,2,0,6,0.10999999999999999,1,2,78,26,4,106,8.829999999999858,0.3100000000000001,0.26000000000000006,1.0800000000000007,11,1,3,2,38,1,3,11,6,0,16,7,H,0.23236842105263167,0.3100000000000001,0.08666666666666666,0.09818181818181819
11,2,3,0,5,0.25000000000000006,2,3,42,38,98,102,4.4199999999999555,5.079999999999936,0.5900000000000003,1.370000000000001,10,11,2,5,19,28,3,13,5,0,14,7,H,0.2326315789473685,0.1814285714285715,0.1966666666666667,0.1053846153846154
11,2,4,0,1,0.21000000000000005,2,3,7,113,117,65,7.589999999999887,1.5200000000000011,0.2700000000000001,2.249999999999996,11,3,1,4,35,9,1,7,3,0,14,7,H,0.21685714285714294,0.16888888888888892,0.2700000000000001,0.32142857142857156
11,3,5,0,2,0.21000000000000005,2,3,54,15,95,49,6.229999999999916,3.6299999999999666,1.360000000000001,0.6900000000000004,12,6,3,7,24,15,6,8,4,0,17,7,H,0.25958333333333344,0.2420000000000001,0.22666666666666677,0.08625000000000001
11,3,6,0,1,0.3900000000000002,2,6,79,84,32,78,6.049999999999924,1.0400000000000007,5.509999999999927,0.45000000000000023,10,2,14,4,28,4,31,9,3,0.5,14,7,H,0.21607142857142866,0.26000000000000006,0.17774193548387102,0.049999999999999996
11,4,7,0,3,0.16,2,3,2,73,60,29,24.300000000000974,0.19000000000000003,0.01,0.01,20,3,1,1,111,3,1,1,5,0,18,7,H,0.218918918918919,0.06333333333333334,0.01,0.01
11,4,8,0,5,0.2900000000000001,2,3,48,37,15,24,6.249999999999917,1.1600000000000008,0.7400000000000004,1.1100000000000008,14,2,3,4,35,8,5,9,5,0,22,7,H,0.1785714285714286,0.14500000000000002,0.14800000000000005,0.12333333333333335
11,5,9,0,9,0.19000000000000003,2,3,45,69,66,80,5.259999999999937,0.24000000000000007,1.2400000000000009,2.8899999999999824,8,1,3,7,28,1,8,18,4,0,16,7,H,0.18785714285714292,0.24000000000000007,0.15500000000000005,0.16055555555555562
11,5,10,0,3,0.5400000000000003,4,7,31,86,33,26,6.439999999999919,1.470000000000001,1.0400000000000007,0.24000000000000007,11,2,4,2,41,10,9,2,5,0.5,18,7,H,0.15707317073170735,0.14700000000000002,0.11555555555555556,0.12
11,6,11,0,7,0.04,1,2,15,14,100,17,1.6200000000000012,31.21000000000208,0.01,0.01,3,19,1,1,8,155,1,1,6,0.5,20,7,H,0.20250000000000007,0.2013548387096775,0.01,0.01
11,6,12,0,6,0.2900000000000001,2,4,63,4,112,3,6.539999999999911,2.099999999999999,1.0000000000000007,0.13999999999999999,9,4,3,1,40,5,4,1,6,0,18,7,H,0.16350000000000003,0.4200000000000002,0.2500000000000001,0.13999999999999999
11,7,13,1,15,0.37000000000000016,2,5,21,28,55,26,8.15999999999988,0.5800000000000003,0.5400000000000003,1.5200000000000011,8,1,2,4,47,1,3,5,6,0,20,7,H,0.17361702127659578,0.5800000000000003,0.18000000000000005,0.3040000000000001
11,7,14,1,12,0.3300000000000001,2,3,37,45,64,76,6.949999999999903,0.7200000000000004,1.7500000000000013,1.6500000000000012,11,3,4,5,32,4,9,9,5,0,17,7,H,0.21718750000000006,0.18000000000000002,0.1944444444444445,0.18333333333333338
11,8,15,1,3,0.2700000000000001,2,4,15,60,83,26,6.399999999999914,1.410000000000001,0.35000000000000014,0.3900000000000002,9,5,1,2,25,8,1,3,5,0,18,7,H,0.2560000000000001,0.17625000000000005,0.35000000000000014,0.13
11,8,16,1,14,0.25000000000000006,2,4,96,66,94,7,3.289999999999979,4.759999999999943,0.13999999999999999,1.0000000000000007,5,7,1,4,21,27,1,7,3,0,16,7,H,0.1566666666666667,0.17629629629629634,0.13999999999999999,0.1428571428571429
11,9,17,1,7,0.19000000000000003,2,3,1,6,29,60,2.5999999999999925,7.339999999999888,0.09999999999999999,0.7000000000000004,6,10,1,3,18,47,1,3,6,0,21,7,H,0.14444444444444446,0.1561702127659575,0.09999999999999999,0.23333333333333342
11,9,18,1,12,0.3900000000000002,2,5,20,43,62,18,5.379999999999939,2.3599999999999937,1.0300000000000007,0.9400000000000006,9,8,3,2,23,15,3,5,5,0,21,7,H,0.23391304347826095,0.15733333333333335,0.3433333333333335,0.18800000000000003
11,10,19,1,15,0.18000000000000002,1,2,47,39,73,17,6.1199999999999175,2.5099999999999905,0.6600000000000004,0.6100000000000003,10,6,3,2,31,15,4,2,6,0,19,7,H,0.19741935483870973,0.1673333333333334,0.16500000000000004,0.3050000000000001
11,10,20,1,13,0.19000000000000003,2,3,115,119,117,25,4.839999999999946,1.7400000000000013,2.159999999999998,0.5000000000000002,9,4,7,3,25,14,14,3,2,0.5,11,7,H,0.19360000000000005,0.1242857142857143,0.15428571428571433,0.16666666666666669
11,11,21,1,2,1.2100000000000009,3,3,3,83,54,35,20.33000000000019,0.01,0.04,0.01,19,1,2,1,89,1,2,1,4,0,18,7,H,0.2284269662921349,0.01,0.02,0.01
11,11,22,1,14,0.08,2,2,92,38,94,99,1.6100000000000012,4.2199999999999545,1.6000000000000012,0.8000000000000005,5,6,5,3,9,22,12,5,3,0,13,7,H,0.17888888888888896,0.1918181818181819,0.13333333333333336,0.16000000000000003
11,12,23,1,12,0.2700000000000001,2,5,17,40,89,20,16.569999999999748,0.01,0.01,0.09,20,1,1,2,104,1,1,2,5,0,20,7,H,0.15932692307692312,0.01,0.01,0.045
11,12,24,1,2,0.36000000000000015,2,3,51,98,106,104,3.799999999999971,0.7100000000000004,0.7800000000000005,0.9800000000000006,9,3,2,3,21,5,2,3,4,0.5,10,7,H,0.180952380952381,0.14200000000000004,0.3900000000000002,0.32666666666666677
11,13,25,1,12,0.22000000000000006,2,3,38,90,40,85,3.939999999999965,1.6500000000000012,0.9600000000000006,2.349999999999994,8,2,6,7,25,9,7,9,5,0,16,7,H,0.15760000000000005,0.18333333333333338,0.13714285714285718,0.26111111111111124
11,13,26,1,2,1.0600000000000007,2,4,58,19,18,75,3.1500000000000004,4.529999999999948,3.279999999999974,0.48000000000000026,5,6,6,1,16,25,12,1,4,0,19,7,H,0.19687500000000008,0.18120000000000006,0.27333333333333343,0.48000000000000026
11,14,27,1,11,0.15,2,3,70,91,72,27,6.769999999999904,0.5500000000000003,0.5000000000000002,2.8899999999999824,14,2,4,5,25,4,6,18,4,0,16,7,H,0.2708000000000001,0.13750000000000004,0.08333333333333333,0.1605555555555556
11,14,28,1,12,0.3000000000000001,2,4,39,59,99,103,4.399999999999957,0.6100000000000003,1.320000000000001,0.8900000000000006,6,4,4,2,24,6,7,3,5,0,13,7,H,0.1833333333333334,0.10166666666666668,0.18857142857142864,0.2966666666666668
11,15,29,1,7,0.22000000000000006,2,3,3,4,34,27,6.829999999999903,1.1300000000000008,0.7200000000000004,0.26000000000000006,14,2,2,2,50,6,4,3,6,0,22,7,H,0.13660000000000003,0.18833333333333335,0.18000000000000005,0.08666666666666668
11,15,30,1,11,0.22000000000000006,2,3,104,99,65,62,1.8100000000000012,5.289999999999932,1.270000000000001,0.17,4,10,5,2,12,26,8,2,4,0,12,7,H,0.15083333333333337,0.20346153846153853,0.15875000000000003,0.08499999999999999
11,16,31,1,2,0.21000000000000005,2,3,83,52,77,55,4.209999999999959,0.9000000000000006,1.7100000000000013,2.3199999999999945,12,3,6,7,21,3,7,11,4,0,14,7,H,0.20047619047619053,0.3000000000000001,0.24428571428571438,0.210909090909091
11,16,32,1,3,0.12999999999999998,2,3,32,71,36,29,2.619999999999991,3.319999999999973,0.6800000000000004,0.6000000000000003,6,5,4,2,16,12,4,5,5,0.5,19,7,H,0.16375000000000006,0.2766666666666668,0.17000000000000004,0.12
11,17,33,1,13,0.5200000000000002,3,6,54,112,47,57,3.8799999999999724,3.2599999999999745,0.5900000000000003,1.440000000000001,8,3,2,3,20,19,5,8,2,0,15,7,H,0.19400000000000006,0.17157894736842108,0.11800000000000002,0.18000000000000005
11,17,34,1,7,0.3200000000000001,2,4,10,102,36,31,0.6400000000000002,1.290000000000001,2.769999999999985,1.6700000000000013,4,2,4,3,7,5,13,8,6,0,18,7,H,0.09142857142857143,0.2580000000000001,0.21307692307692316,0.2087500000000001
11,18,35,1,2,0.4200000000000002,2,5,81,57,11,80,5.389999999999938,1.1800000000000008,3.93999999999996,2.4699999999999913,10,4,7,6,37,5,25,18,4,0,16,7,H,0.14567567567567571,0.2360000000000001,0.15760000000000005,0.13722222222222225
11,18,36,1,15,0.24000000000000007,2,3,25,23,110,36,7.4699999999998905,3.3099999999999734,0.18000000000000002,0.18000000000000002,10,4,2,1,40,22,2,1,6,0,18,7,H,0.18675000000000005,0.15045454545454548,0.09,0.18000000000000002
11,19,37,1,3,0.18000000000000002,2,5,26,19,18,34,4.11999999999996,3.099999999999978,0.3100000000000001,0.8900000000000006,8,6,2,5,24,12,3,7,5,0,22,7,H,0.17166666666666672,0.2583333333333334,0.10333333333333333,0.12714285714285717
11,19,38,1,7,0.10999999999999999,2,3,4,8,39,3,6.649999999999905,0.35000000000000014,0.47000000000000025,7.049999999999894,10,2,1,9,33,2,1,36,6,0.5,23,7,H,0.2015151515151516,0.17500000000000002,0.47000000000000025,0.19583333333333341
11,20,39,1,15,0.2800000000000001,2,6,13,15,21,33,3.2799999999999803,3.559999999999968,1.310000000000001,0.5000000000000002,4,6,4,1,26,24,7,1,6,0.5,23,7,H,0.12615384615384617,0.14833333333333334,0.1871428571428572,0.5000000000000002
11,20,40,1,1,0.07,2,2,76,78,102,60,3.4699999999999713,2.569999999999989,4.089999999999957,0.6300000000000003,9,9,7,3,18,14,21,5,3,0,12,7,H,0.19277777777777785,0.1835714285714286,0.1947619047619048,0.126
12,1,1,0,4,0.49000000000000027,2,3,15,106,36,86,4.46999999999996,0.34000000000000014,0.5300000000000002,0.35000000000000014,7,2,1,1,14,2,1,1,2,0,16,7,H,0.31928571428571445,0.17000000000000004,0.5300000000000002,0.35000000000000014
12,1,2,0,9,0.3900000000000002,2,3,65,4,110,82,3.8399999999999705,2.159999999999998,0.7100000000000004,0.5400000000000003,7,4,2,2,12,7,2,3,4,0,15,7,H,0.3200000000000001,0.3085714285714287,0.35500000000000015,0.18000000000000005
12,2,3,0,1,0.47000000000000025,2,5,82,76,102,105,2.639999999999998,1.320000000000001,2.1799999999999975,1.0000000000000007,4,3,4,4,8,5,9,4,3,0,10,7,H,0.3300000000000002,0.26400000000000007,0.2422222222222223,0.2500000000000001
12,2,4,0,6,0.7700000000000005,3,6,8,67,28,2,2.620000000000002,3.4399999999999706,0.5900000000000003,0.12999999999999998,5,3,1,1,12,12,1,1,6,0,21,7,H,0.2183333333333334,0.2866666666666668,0.5900000000000003,0.12999999999999998
12,3,5,0,8,0.3200000000000001,2,3,119,6,69,67,3.569999999999975,1.340000000000001,1.340000000000001,0.3900000000000002,6,3,2,1,11,6,5,1,2,0,16,7,H,0.3245454545454547,0.2233333333333334,0.2680000000000001,0.3900000000000002
12,3,6,0,1,0.5300000000000002,2,3,80,35,32,103,3.3399999999999843,1.9900000000000015,1.5600000000000012,1.5900000000000012,6,4,3,4,12,9,8,5,3,0,15,7,H,0.27833333333333343,0.22111111111111117,0.19500000000000006,0.3180000000000001
12,4,7,0,6,0.7200000000000004,2,6,3,72,6,66,2.1600000000000015,3.279999999999974,0.23000000000000007,0.47000000000000025,4,5,2,1,8,13,2,1,6,0,20,7,H,0.27000000000000013,0.2523076923076924,0.11500000000000002,0.47000000000000025
12,4,8,0,3,0.4300000000000002,2,3,25,78,27,77,2.0400000000000014,1.9400000000000015,0.3000000000000001,0.5900000000000003,3,3,1,2,4,9,1,4,5,0,16,7,H,0.5100000000000003,0.2155555555555556,0.3000000000000001,0.14750000000000002
12,5,9,0,5,0.8300000000000005,3,3,16,105,84,45,23.040000000000674,0.01,0.01,0.01,20,1,1,1,72,1,1,1,5,0,16,7,H,0.3200000000000001,0.01,0.01,0.01
