Subject,Round,Phase,afterbreak,Schema,Schema_RT,Schema_OB,Schema_AS,Cho_1,Cho_2,Cho_3,Cho_4,RT_1,RT_2,RT_3,RT_4,OB_1,OB_2,OB_3,OB_4,AS_1,AS_2,AS_3,AS_4,schema_payoff,AC,performance,breakR,type,dwellmean_1,dwellmean_2,dwellmean_3,dwellmean_4
1,1,1,0,10,0.18000000000000002,2,3,94,90,52,60,3.009999999999984,0.6600000000000004,1.310000000000001,0.19000000000000003,12,2,3,1,15,2,4,1,3,0,14,7,HL,0.20066666666666674,0.3300000000000001,0.3275000000000001,0.19000000000000003
1,1,2,0,9,0.20000000000000004,2,3,2,3,70,110,4.159999999999959,0.7600000000000005,0.09999999999999999,0.5100000000000002,9,1,2,1,15,1,2,1,4,0,18,7,HL,0.2773333333333335,0.7600000000000005,0.05,0.5100000000000002
1,2,3,0,4,0.17,2,2,3,50,85,98,8.35999999999987,0.01,0.060000000000000005,0.01,14,1,1,1,18,1,1,1,2,0,15,7,HL,0.4644444444444447,0.01,0.060000000000000005,0.01
1,2,4,0,1,0.25000000000000006,2,6,75,19,120,117,1.8300000000000012,6.829999999999899,1.310000000000001,0.01,4,6,3,1,10,14,3,1,3,0,13,7,HL,0.1830000000000001,0.48785714285714316,0.436666666666667,0.01
1,3,5,0,10,0.10999999999999999,2,2,67,95,22,15,3.6899999999999675,1.5700000000000012,1.0200000000000007,0.45000000000000023,9,4,4,2,13,4,4,2,3,0,19,7,HL,0.28384615384615397,0.3925000000000002,0.2550000000000001,0.2250000000000001
1,3,6,0,6,0.19000000000000003,2,3,1,59,84,6,13.01999999999977,0.7700000000000005,0.01,0.02,11,2,1,1,18,2,1,1,6,0,19,7,HL,0.7233333333333318,0.38500000000000023,0.01,0.02
1,4,7,0,1,0.34000000000000014,2,3,80,104,58,78,4.399999999999958,0.19000000000000003,0.6900000000000004,0.10999999999999999,8,1,3,1,12,1,4,1,3,0,12,7,HL,0.36666666666666686,0.19000000000000003,0.17250000000000007,0.10999999999999999
1,4,8,0,8,0.26000000000000006,2,3,7,4,94,93,3.369999999999978,7.849999999999877,0.08,2.479999999999991,7,10,1,3,9,16,1,3,2,0,18,7,HL,0.37444444444444464,0.4906250000000003,0.08,0.8266666666666672
1,5,9,0,3,0.2800000000000001,2,4,30,85,32,35,2.7499999999999916,2.109999999999999,0.07,0.5200000000000002,5,6,1,3,8,6,1,3,5,0.5,18,7,HL,0.34375000000000017,0.3516666666666668,0.07,0.1733333333333334
1,5,10,0,1,0.16,2,3,79,84,6,57,1.670000000000001,1.2500000000000009,0.22000000000000006,0.5000000000000002,3,3,1,2,4,7,1,2,3,0,16,7,HL,0.41750000000000026,0.17857142857142863,0.22000000000000006,0.2500000000000001
1,6,11,0,8,0.10999999999999999,2,2,11,94,26,5,2.130000000000001,1.0100000000000007,2.349999999999994,0.26000000000000006,6,2,3,2,8,2,4,2,2,0,20,7,HL,0.2662500000000001,0.5050000000000003,0.5875000000000004,0.13000000000000003
1,6,12,0,1,0.2900000000000001,2,3,100,102,101,98,3.6399999999999726,0.48000000000000026,0.49000000000000027,1.5500000000000012,8,1,2,3,10,1,2,4,3,1,24,7,HL,0.36400000000000016,0.48000000000000026,0.24500000000000005,0.3875000000000002
1,7,13,1,1,0.4000000000000002,4,5,22,24,14,49,5.579999999999934,0.26000000000000006,2.6999999999999864,0.4000000000000002,12,1,6,2,15,1,7,2,3,0.5,40,7,HL,0.37200000000000016,0.26000000000000006,0.3857142857142859,0.20000000000000004
1,7,14,1,8,0.20000000000000004,2,3,111,117,10,63,4.10999999999996,0.48000000000000026,0.3000000000000001,0.5300000000000002,8,2,2,2,14,2,2,2,2,0,14,7,HL,0.2935714285714287,0.2400000000000001,0.15000000000000002,0.26500000000000007
1,8,15,1,8,0.6000000000000003,5,6,24,115,109,31,10.119999999999841,0.01,0.01,0.26000000000000006,18,1,1,2,25,1,1,2,2,0,15,7,HL,0.4048000000000002,0.01,0.01,0.13000000000000003
1,8,16,1,2,0.5100000000000002,5,6,51,50,2,38,2.1400000000000015,2.1399999999999983,0.5900000000000003,2.7499999999999853,7,3,3,4,8,3,4,8,4,0,19,7,HL,0.2675000000000001,0.7133333333333338,0.14750000000000002,0.34375000000000017
1,9,17,1,6,0.6000000000000003,8,8,5,82,60,11,3.2899999999999867,0.5500000000000003,0.24000000000000007,0.2900000000000001,10,2,1,1,12,4,1,1,6,0,19,7,HL,0.2741666666666668,0.13749999999999998,0.24000000000000007,0.2900000000000001
1,9,18,1,9,0.17,2,3,66,34,67,36,3.6699999999999693,1.420000000000001,0.11999999999999998,0.5500000000000003,6,3,2,1,9,5,2,1,4,0,18,7,HL,0.407777777777778,0.28400000000000014,0.06,0.5500000000000003
1,10,19,1,3,0.24000000000000007,2,3,13,84,67,99,3.7899999999999685,0.6800000000000004,0.8600000000000005,1.5800000000000012,6,2,3,3,12,2,3,3,5,0,15,7,HL,0.31583333333333347,0.34000000000000014,0.28666666666666674,0.526666666666667
1,10,20,1,8,0.25000000000000006,2,4,49,43,116,38,4.269999999999959,1.7900000000000014,1.410000000000001,0.07,8,5,5,2,12,5,5,2,2,0,16,7,HL,0.3558333333333335,0.35800000000000015,0.28200000000000014,0.035
1,11,21,1,6,0.10999999999999999,2,2,6,29,7,10,11.479999999999801,0.01,0.01,2.07,12,1,1,2,22,1,1,2,6,0.5,41,7,HL,0.5218181818181822,0.01,0.01,1.035
1,11,22,1,2,0.8700000000000006,3,6,55,24,50,17,2.330000000000002,1.0300000000000007,2.709999999999986,0.07,5,1,2,1,8,1,4,1,4,0,20,7,HL,0.2912500000000001,1.0300000000000007,0.6775000000000004,0.07
1,12,23,1,6,0.12999999999999998,2,2,7,4,91,8,1.4400000000000008,50.64999999999849,0.4400000000000002,0.4200000000000002,3,19,2,2,3,94,2,2,6,0.5,39,7,HL,0.4800000000000003,0.5388297872340423,0.2200000000000001,0.2100000000000001
1,12,24,1,9,0.11999999999999998,2,2,67,62,101,21,1.4500000000000008,1.450000000000001,2.489999999999991,0.15,4,4,4,1,4,4,5,1,4,0,16,7,HL,0.3625000000000002,0.36250000000000016,0.4980000000000003,0.15
1,13,25,1,7,0.6300000000000003,2,3,97,20,64,92,5.289999999999946,0.35000000000000014,0.09999999999999999,0.060000000000000005,10,2,1,1,11,2,1,1,6,0,15,7,HL,0.4809090909090912,0.17500000000000002,0.09999999999999999,0.060000000000000005
1,13,26,1,2,0.20000000000000004,4,4,58,77,53,55,1.2700000000000007,1.1700000000000008,0.22000000000000006,0.15,6,2,2,1,7,2,2,1,4,0.5,27,7,HL,0.1814285714285715,0.5850000000000003,0.11,0.15
1,14,27,1,2,0.6300000000000003,9,11,107,39,56,108,3.129999999999991,0.7400000000000004,0.22000000000000006,0.45000000000000023,12,1,1,1,15,1,1,1,4,0,13,7,HL,0.20866666666666678,0.7400000000000004,0.22000000000000006,0.45000000000000023
1,14,28,1,1,0.7900000000000005,6,7,80,63,76,61,5.469999999999946,0.10999999999999999,0.19000000000000003,1.0200000000000007,11,1,1,3,15,1,1,3,3,0,14,7,HL,0.36466666666666686,0.10999999999999999,0.19000000000000003,0.3400000000000002
1,15,29,1,9,0.21000000000000005,2,4,1,67,90,94,22.950000000000756,0.01,0.02,0.5500000000000003,18,1,1,2,53,1,1,2,4,0,16,7,HL,0.43301886792452854,0.01,0.02,0.27500000000000013
1,15,30,1,2,0.5500000000000003,8,9,59,51,47,46,2.669999999999999,1.8900000000000015,2.1699999999999977,0.16,11,3,3,1,15,3,3,1,4,0,18,7,HL,0.17800000000000007,0.6300000000000004,0.7233333333333338,0.16
1,16,31,1,9,0.25000000000000006,2,4,64,102,76,63,2.8899999999999877,0.8600000000000005,0.5600000000000003,0.16,6,1,2,1,9,1,3,1,4,0,13,7,HL,0.32111111111111124,0.8600000000000005,0.18666666666666668,0.16
1,16,32,1,10,0.25000000000000006,2,4,92,56,23,89,2.639999999999993,2.819999999999984,1.8700000000000014,0.5900000000000003,6,5,3,2,8,5,3,2,3,0,16,7,HL,0.3300000000000002,0.5640000000000003,0.6233333333333337,0.29500000000000015
1,17,33,1,2,0.09,2,2,59,53,54,48,1.8900000000000015,0.7700000000000005,2.7299999999999858,0.060000000000000005,4,3,7,1,7,3,9,1,4,0.5,29,7,HL,0.27000000000000013,0.25666666666666677,0.30333333333333345,0.060000000000000005
1,17,34,1,3,0.21000000000000005,2,3,76,30,70,34,3.359999999999977,0.4200000000000002,0.21000000000000005,0.5100000000000002,8,2,2,2,10,2,2,2,5,0,17,7,HL,0.3360000000000002,0.21000000000000005,0.105,0.25500000000000006
1,18,35,1,2,0.20000000000000004,2,3,49,88,110,58,2.73999999999999,1.1500000000000008,0.23000000000000007,0.07,6,2,1,1,13,2,1,1,4,0,13,7,HL,0.21076923076923085,0.5750000000000004,0.23000000000000007,0.07
1,18,36,1,4,0.7400000000000004,6,9,29,107,31,102,3.1399999999999935,0.3000000000000001,0.7700000000000005,1.5400000000000011,10,1,2,4,15,1,2,4,2,0,14,7,HL,0.20933333333333343,0.3000000000000001,0.3850000000000002,0.38500000000000023
1,19,37,1,8,3.6799999999999655,3,8,63,118,67,19,6.079999999999958,0.6900000000000004,0.38000000000000017,0.09999999999999999,6,3,2,2,12,3,2,2,2,0,16,7,HL,0.5066666666666669,0.2300000000000001,0.19000000000000003,0.05
1,19,38,1,1,0.17,2,3,76,82,74,103,1.4600000000000009,1.0100000000000007,0.36000000000000015,1.0400000000000007,4,2,1,3,7,2,1,4,3,0.5,20,7,HL,0.20857142857142866,0.5050000000000002,0.36000000000000015,0.26000000000000006
1,20,39,1,7,0.8100000000000005,2,5,95,119,111,93,2.1500000000000012,0.9700000000000006,2.07,0.03,3,2,3,1,6,2,5,1,6,0,10,7,HL,0.3583333333333335,0.4850000000000002,0.4140000000000002,0.03
1,20,40,1,4,0.13999999999999999,2,3,100,63,78,65,5.02999999999994,0.6800000000000004,0.26000000000000006,0.07,9,2,1,2,11,2,1,2,2,0,13,7,HL,0.45727272727272755,0.34000000000000014,0.26000000000000006,0.035
1,21,41,1,8,0.18000000000000002,2,4,118,110,16,22,2.70999999999999,1.300000000000001,1.0500000000000007,2.4199999999999924,7,3,2,5,13,3,2,8,2,0,16,7,HL,0.20846153846153853,0.43333333333333357,0.5250000000000002,0.30250000000000016
1,21,42,1,4,0.15,2,3,76,106,108,48,4.369999999999955,1.480000000000001,1.340000000000001,0.46000000000000024,6,2,3,3,8,2,3,3,2,0,12,7,HL,0.5462499999999988,0.7400000000000005,0.446666666666667,0.15333333333333338
2,1,1,0,4,0.3200000000000001,2,3,57,56,88,6,5.479999999999935,1.280000000000001,2.7899999999999845,0.7700000000000005,8,3,5,1,13,4,7,1,2,0,17,7,HL,0.42153846153846175,0.3200000000000002,0.39857142857142874,0.7700000000000005
2,1,2,0,1,0.34000000000000014,2,4,73,79,62,70,8.729999999999865,1.8000000000000014,4.43999999999995,0.8400000000000005,12,4,5,3,16,4,7,4,3,0,14,7,HL,0.5456249999999997,0.45000000000000023,0.6342857142857147,0.21000000000000005
2,2,3,0,6,0.3200000000000001,2,3,48,10,83,12,10.759999999999822,1.5300000000000011,0.38000000000000017,1.7200000000000013,10,4,2,3,17,6,2,4,6,0,20,7,HL,0.6329411764705883,0.2550000000000001,0.19,0.43000000000000027
2,2,4,0,3,0.45000000000000023,7,7,32,86,90,34,9.209999999999859,0.6500000000000004,0.20000000000000004,0.8500000000000005,17,2,1,2,27,4,1,2,5,0,16,7,HL,0.3411111111111113,0.16250000000000003,0.20000000000000004,0.42500000000000027
2,3,5,0,3,0.34000000000000014,2,3,29,87,93,96,2.2400000000000015,6.029999999999916,0.35000000000000014,0.47000000000000025,3,9,2,2,4,12,2,2,5,0.5,14,7,HL,0.5600000000000004,0.5025000000000003,0.17500000000000002,0.23500000000000004
2,3,6,0,1,0.37000000000000016,2,5,66,68,83,79,7.679999999999889,1.8900000000000015,0.6500000000000004,0.38000000000000017,9,2,3,3,19,3,3,3,3,0,14,7,HL,0.4042105263157897,0.6300000000000003,0.21666666666666673,0.12666666666666665
2,4,7,0,2,0.3100000000000001,2,4,54,51,55,33,8.569999999999869,0.8500000000000005,1.6100000000000012,2.2299999999999964,12,2,3,3,21,2,3,4,4,0.5,17,7,HL,0.4080952380952383,0.4250000000000002,0.536666666666667,0.5575000000000003
2,4,8,0,5,0.25000000000000006,2,3,93,44,46,87,6.469999999999912,0.8300000000000005,0.17,1.460000000000001,11,4,1,4,13,5,1,5,5,0,16,7,HL,0.4976923076923068,0.16600000000000004,0.17,0.2920000000000001
2,5,9,0,9,0.25000000000000006,2,3,66,65,93,39,5.529999999999932,3.889999999999961,2.3799999999999932,0.13999999999999999,11,8,6,1,14,9,9,1,4,0,16,7,HL,0.3950000000000002,0.43222222222222245,0.26444444444444454,0.13999999999999999
2,5,10,0,1,0.7000000000000004,10,10,81,80,2,76,7.4799999999999,0.8800000000000006,2.619999999999988,0.060000000000000005,17,2,5,1,20,4,6,1,3,0.5,15,7,HL,0.3739999999999993,0.22000000000000006,0.43666666666666687,0.060000000000000005
2,6,11,0,1,0.5500000000000003,7,7,6,76,81,4,17.189999999999802,1.7700000000000014,0.01,7.4099999999998865,20,5,1,12,39,6,1,19,3,0,18,7,HL,0.44076923076923064,0.29500000000000015,0.01,0.39000000000000024
2,6,12,0,8,0.5400000000000003,2,6,90,113,42,87,4.319999999999964,1.6700000000000013,2.099999999999999,0.36000000000000015,6,5,3,1,11,5,3,1,2,0,13,7,HL,0.392727272727273,0.33400000000000013,0.7000000000000004,0.36000000000000015
2,7,13,1,3,0.5900000000000003,7,8,29,120,109,81,3.4399999999999835,4.769999999999943,1.310000000000001,0.45000000000000023,10,8,2,1,11,12,3,1,5,0,12,7,HL,0.3127272727272729,0.3975000000000002,0.4366666666666669,0.45000000000000023
2,7,14,1,9,5.5299999999999265,10,19,47,63,10,67,8.909999999999899,0.4200000000000002,1.0200000000000007,0.7700000000000005,14,2,2,1,26,2,3,1,4,0,19,7,HL,0.34269230769230785,0.21000000000000002,0.34000000000000014,0.7700000000000005
2,8,15,1,8,0.38000000000000017,2,4,78,118,9,114,2.9899999999999887,2.8299999999999836,1.8000000000000014,1.6400000000000012,6,4,6,5,11,7,7,6,2,0,13,7,HL,0.2718181818181819,0.4042857142857145,0.25714285714285723,0.27333333333333343
2,8,16,1,9,0.19000000000000003,3,4,13,96,21,100,35.95000000000145,3.3499999999999726,0.01,10.779999999999815,20,2,1,11,60,2,1,20,4,0,17,7,HL,0.5991666666666661,1.6749999999999863,0.01,0.539
2,9,17,1,2,0.13999999999999999,2,2,13,115,31,92,24.05000000000094,0.01,0.01,0.01,20,1,1,1,50,1,1,1,4,0,16,7,HL,0.48100000000000026,0.01,0.01,0.01
2,9,18,1,4,0.36000000000000015,4,5,80,40,9,105,4.839999999999949,0.9100000000000006,5.659999999999924,0.23000000000000007,10,1,11,1,16,1,14,1,2,0,16,7,HL,0.30250000000000016,0.9100000000000006,0.4042857142857145,0.23000000000000007
2,10,19,1,2,0.4000000000000002,2,4,110,54,119,114,3.9099999999999695,1.8900000000000015,0.8500000000000005,0.8800000000000006,6,2,2,2,12,2,2,2,4,0.5,16,7,HL,0.3258333333333335,0.9450000000000006,0.42500000000000016,0.44000000000000017
2,10,20,1,1,1.330000000000001,3,5,67,66,7,80,4.33999999999998,4.089999999999957,0.9200000000000006,1.460000000000001,6,5,2,2,9,9,4,3,3,0,17,7,HL,0.4822222222222225,0.4544444444444444,0.23000000000000004,0.48666666666666697
2,11,21,1,2,0.6500000000000004,3,5,95,5,3,93,7.639999999999896,0.22000000000000006,0.12999999999999998,1.6000000000000012,10,3,1,2,16,3,1,2,4,0,18,7,HL,0.4774999999999996,0.07333333333333333,0.12999999999999998,0.8000000000000005
2,11,22,1,9,0.26000000000000006,2,3,63,71,64,73,7.1399999999998975,0.6300000000000003,0.3900000000000002,1.1200000000000008,15,3,2,3,25,3,2,3,4,0.5,27,7,HL,0.28560000000000013,0.21000000000000008,0.19500000000000006,0.3733333333333335
2,12,23,1,4,0.5400000000000003,3,3,15,52,81,60,17.23999999999981,0.02,0.01,0.01,19,1,1,1,42,1,1,1,2,0,17,7,HL,0.4104761904761907,0.02,0.01,0.01
2,12,24,1,6,0.2900000000000001,2,3,1,119,118,11,4.999999999999944,1.6500000000000012,2.159999999999998,1.8800000000000014,8,2,3,5,13,2,3,5,6,0,16,7,HL,0.3846153846153848,0.8250000000000005,0.7200000000000004,0.37600000000000017
2,13,25,1,4,0.8400000000000005,3,5,51,108,60,42,4.929999999999958,1.8700000000000014,1.5900000000000012,2.5099999999999905,8,3,3,3,15,3,3,3,2,0,15,7,HL,0.32866666666666683,0.6233333333333337,0.5300000000000002,0.8366666666666644
2,13,26,1,9,0.2900000000000001,2,4,66,24,69,19,5.489999999999934,4.3099999999999525,0.8400000000000005,2.199999999999997,13,9,4,5,19,15,5,5,4,0,20,7,HL,0.2889473684210528,0.28733333333333344,0.16800000000000004,0.4400000000000003
2,14,27,1,8,0.11999999999999998,1,2,109,120,94,118,4.9999999999999405,1.0300000000000007,2.4999999999999907,0.37000000000000016,10,2,8,2,12,2,10,2,2,0.5,15,7,HL,0.4166666666666669,0.5150000000000002,0.2500000000000001,0.18500000000000005
2,14,28,1,4,1.6600000000000013,4,6,44,40,24,97,9.259999999999884,0.7700000000000005,0.7900000000000005,0.5000000000000002,14,2,3,2,23,2,5,2,2,0,18,7,HL,0.4026086956521741,0.3850000000000002,0.15800000000000003,0.2500000000000001
2,15,29,1,7,0.49000000000000027,2,3,15,42,106,75,10.629999999999828,1.2000000000000008,0.8500000000000005,0.10999999999999999,15,3,2,1,21,3,2,1,6,0,16,7,HL,0.5061904761904765,0.40000000000000024,0.4250000000000002,0.10999999999999999
2,15,30,1,6,0.5600000000000003,2,5,8,67,5,116,6.089999999999927,1.260000000000001,0.2700000000000001,6.849999999999898,11,3,1,6,16,3,1,18,6,0,18,7,HL,0.3806250000000002,0.4200000000000002,0.2700000000000001,0.38055555555555576
2,16,31,1,5,2.0000000000000013,3,6,115,66,6,5,9.069999999999895,1.8200000000000014,0.5600000000000003,8.129999999999871,12,3,3,11,29,5,3,18,5,0,18,7,HL,0.3127586206896553,0.3640000000000002,0.18666666666666676,0.45166666666666694
2,16,32,1,4,0.7100000000000004,9,9,26,101,52,28,8.689999999999875,1.6300000000000012,0.36000000000000015,0.23000000000000007,20,2,1,1,24,2,1,1,2,0,16,7,HL,0.36208333333333326,0.8150000000000005,0.36000000000000015,0.23000000000000007
2,17,33,1,2,0.3000000000000001,4,4,13,50,113,46,13.059999999999773,0.03,0.25000000000000006,0.07,16,2,1,1,30,2,1,1,4,0,17,7,HL,0.43533333333333357,0.015,0.25000000000000006,0.07
2,17,34,1,10,0.3000000000000001,2,3,1,64,72,4,5.329999999999937,0.20000000000000004,0.46000000000000024,0.7700000000000005,6,1,2,2,10,1,3,3,3,0,20,7,HL,0.5330000000000004,0.20000000000000004,0.15333333333333335,0.25666666666666677
2,18,35,1,3,0.9700000000000006,9,12,63,34,25,35,6.039999999999937,1.0000000000000007,2.759999999999985,3.8099999999999627,17,3,6,8,24,4,7,8,5,0.5,34,7,HL,0.25166666666666676,0.25000000000000006,0.39428571428571446,0.4762500000000003
2,18,36,1,10,0.18000000000000002,2,2,1,38,94,95,60.209999999996626,0.01,0.4100000000000002,0.6200000000000003,20,1,2,2,111,1,2,2,3,0,17,7,HL,0.5424324324324328,0.01,0.2050000000000001,0.31000000000000016
2,19,37,1,2,0.7800000000000005,2,4,111,114,5,60,10.43999999999984,0.6300000000000003,0.15,0.38000000000000017,16,3,1,2,24,3,1,2,4,0,14,7,HL,0.4349999999999997,0.21000000000000005,0.15,0.19000000000000003
2,19,38,1,3,3.709999999999965,3,5,68,92,26,88,10.519999999999865,0.4400000000000002,0.22000000000000006,1.380000000000001,13,1,1,2,22,1,1,2,5,0,15,7,HL,0.4781818181818168,0.4400000000000002,0.22000000000000006,0.6900000000000004
3,1,1,0,1,0.3100000000000001,2,3,59,58,73,52,5.609999999999932,1.390000000000001,0.7400000000000004,2.819999999999984,6,2,3,6,8,3,3,6,3,0.5,15,7,HL,0.7012499999999992,0.46333333333333354,0.24666666666666678,0.47000000000000025
3,1,2,0,6,0.21000000000000005,2,3,1,67,12,95,7.089999999999898,1.5200000000000011,0.8400000000000005,0.2700000000000001,12,2,3,1,19,2,3,1,6,0,19,7,HL,0.3731578947368423,0.7600000000000005,0.28000000000000014,0.2700000000000001
3,2,3,0,3,0.2800000000000001,2,3,35,36,30,32,2.449999999999998,3.319999999999973,0.45000000000000023,0.22000000000000006,5,8,2,2,9,11,2,2,5,1,60,7,HL,0.2722222222222223,0.30181818181818193,0.22500000000000006,0.11
3,2,4,0,9,0.2800000000000001,2,3,4,67,2,11,4.049999999999963,0.6800000000000004,2.0400000000000005,1.7900000000000014,7,2,3,2,11,2,8,2,4,0.5,22,7,HL,0.3681818181818184,0.34000000000000014,0.2550000000000001,0.8950000000000006
3,3,5,0,2,0.35000000000000014,2,5,50,55,60,102,3.5199999999999765,1.7100000000000013,7.429999999999886,0.3100000000000001,9,7,9,1,12,7,12,1,4,0.5,14,7,HL,0.2933333333333335,0.24428571428571438,0.6191666666666671,0.3100000000000001
3,3,6,0,8,0.3100000000000001,2,3,67,113,90,89,8.619999999999868,0.6300000000000003,0.6100000000000003,0.13999999999999999,16,2,3,1,28,2,4,1,2,0,12,7,HL,0.307857142857143,0.31500000000000017,0.15250000000000005,0.13999999999999999
3,4,7,0,9,0.2900000000000001,2,3,63,7,115,31,4.26999999999996,2.7999999999999843,1.1200000000000008,8.739999999999858,7,5,6,6,14,7,6,14,4,0,17,7,HL,0.30500000000000016,0.40000000000000024,0.18666666666666673,0.6242857142857131
3,4,8,0,4,0.3900000000000002,2,5,99,97,83,21,6.25999999999992,3.849999999999962,0.7600000000000005,1.440000000000001,8,9,2,7,14,10,2,10,2,0,13,7,HL,0.44714285714285673,0.3850000000000002,0.38000000000000017,0.14400000000000004
3,5,9,0,5,0.35000000000000014,2,3,42,100,85,66,8.98999999999986,0.08,7.199999999999891,0.04,8,1,6,2,16,1,9,2,5,0,14,7,HL,0.561874999999999,0.08,0.7999999999999985,0.02
3,5,10,0,2,0.22000000000000006,2,3,23,113,112,51,4.139999999999961,1.7900000000000014,0.36000000000000015,0.13999999999999999,7,3,1,1,14,6,1,1,4,0,14,7,HL,0.2957142857142859,0.29833333333333345,0.36000000000000015,0.13999999999999999
3,6,11,0,10,0.48000000000000026,5,6,12,30,4,86,4.7199999999999545,2.6499999999999875,3.099999999999978,0.2800000000000001,14,7,8,1,15,12,12,1,3,0,20,7,HL,0.3146666666666668,0.2208333333333334,0.2583333333333334,0.2800000000000001
3,6,12,0,7,0.13999999999999999,1,2,16,40,79,52,14.229999999999745,0.01,0.060000000000000005,0.01,18,1,2,1,38,1,2,1,6,0,18,7,HL,0.3744736842105265,0.01,0.03,0.01
3,7,13,1,2,0.34000000000000014,4,5,50,49,75,73,6.529999999999912,2.9299999999999815,0.9300000000000006,0.2800000000000001,15,7,2,2,23,9,2,2,4,0,14,7,HL,0.283913043478261,0.3255555555555557,0.46500000000000025,0.14000000000000004
3,7,14,1,3,1.0100000000000007,3,6,88,26,72,5,4.49999999999997,0.8000000000000005,0.7000000000000004,0.5300000000000002,7,1,1,2,15,1,1,2,5,0,18,7,HL,0.3000000000000001,0.8000000000000005,0.7000000000000004,0.26500000000000007
3,8,15,1,1,0.12999999999999998,3,3,13,27,49,78,55.23999999999761,0.01,0.11999999999999998,0.01,20,1,2,1,105,1,2,1,3,0,18,7,HL,0.5260952380952382,0.01,0.06,0.01
3,8,16,1,8,0.25000000000000006,2,3,5,63,9,65,4.709999999999949,1.340000000000001,0.22000000000000006,0.23000000000000007,11,2,1,2,18,6,1,2,2,0,20,7,HL,0.26166666666666677,0.2233333333333334,0.22000000000000006,0.11500000000000002
3,9,17,1,10,0.5300000000000002,2,4,90,57,41,20,3.9999999999999702,0.6500000000000004,2.869999999999983,0.7900000000000005,7,3,6,2,13,3,7,3,3,0,18,7,HL,0.3076923076923078,0.21666666666666676,0.41000000000000025,0.2633333333333334
3,9,18,1,6,0.2700000000000001,2,3,118,83,65,12,4.379999999999957,2.149999999999998,1.260000000000001,0.9800000000000006,6,5,3,3,11,7,5,4,6,0,15,7,HL,0.3981818181818184,0.3071428571428573,0.2520000000000001,0.2450000000000001
3,10,19,1,2,0.08,2,2,1,119,53,31,46.89999999999925,0.21000000000000005,0.01,0.01,20,1,1,1,125,1,1,1,4,0,17,7,HL,0.3752000000000002,0.21000000000000005,0.01,0.01
3,10,20,1,1,0.18000000000000002,2,3,83,82,66,78,4.12999999999996,0.3100000000000001,1.420000000000001,1.2300000000000009,11,2,7,3,13,3,7,4,3,0.5,22,7,HL,0.31769230769230783,0.10333333333333335,0.20285714285714293,0.30750000000000016
3,11,21,1,6,0.12999999999999998,1,2,103,101,8,10,6.009999999999919,0.7500000000000004,0.09999999999999999,0.10999999999999999,9,2,1,1,16,3,1,1,6,0,16,7,HL,0.3756250000000002,0.2500000000000001,0.09999999999999999,0.10999999999999999
3,11,22,1,1,0.7200000000000004,2,4,50,49,111,79,9.229999999999864,0.02,0.5700000000000003,2.8899999999999824,16,1,2,5,29,1,2,6,3,0,13,7,HL,0.3182758620689657,0.02,0.2850000000000001,0.4816666666666669
3,12,23,1,5,0.3200000000000001,2,3,59,97,45,103,6.199999999999919,0.7800000000000005,0.11999999999999998,3.3099999999999734,11,2,1,5,16,2,1,7,5,0,13,7,HL,0.3875000000000002,0.3900000000000002,0.11999999999999998,0.47285714285714314
3,12,24,1,10,0.6900000000000004,7,8,65,69,24,70,4.61999999999996,2.8799999999999826,1.5400000000000011,2.3099999999999947,14,8,4,3,21,9,5,4,3,0.5,30,7,HL,0.22000000000000008,0.3200000000000001,0.3080000000000001,0.5775000000000003
3,13,25,1,6,1.450000000000001,5,9,84,117,73,5,4.699999999999976,2.0300000000000007,0.4300000000000002,1.5600000000000012,11,4,2,3,15,5,3,5,6,0,14,7,HL,0.31333333333333346,0.40600000000000025,0.14333333333333337,0.3120000000000001
3,13,26,1,10,0.24000000000000007,2,3,89,88,87,56,3.4499999999999758,1.2200000000000009,0.9200000000000006,1.500000000000001,5,3,4,4,9,4,4,4,3,0.5,22,7,HL,0.3833333333333327,0.30500000000000016,0.23000000000000007,0.37500000000000017
3,14,27,1,8,0.21000000000000005,2,3,14,74,23,82,5.1299999999999395,0.15,0.8500000000000005,0.09,10,1,3,1,20,1,3,1,2,0,18,7,HL,0.2565000000000001,0.15,0.28333333333333344,0.09
3,14,28,1,2,1.340000000000001,5,6,50,102,99,4,7.259999999999919,1.8200000000000014,0.15,0.08,11,4,1,1,23,8,1,1,4,0,14,7,HL,0.3156521739130436,0.2275000000000001,0.15,0.08
3,15,29,1,1,0.5800000000000003,2,5,47,44,76,78,4.389999999999963,1.420000000000001,1.400000000000001,0.9800000000000006,6,3,5,2,15,3,6,2,3,0,16,7,HL,0.2926666666666668,0.47333333333333355,0.2333333333333334,0.49000000000000027
3,15,30,1,8,0.2900000000000001,2,3,24,13,32,17,3.049999999999985,3.5999999999999672,0.18000000000000002,0.09999999999999999,5,5,1,2,14,6,1,2,2,0.5,41,7,HL,0.21785714285714292,0.5999999999999994,0.18000000000000002,0.05
3,16,31,1,1,0.8800000000000006,2,6,21,115,28,114,4.6699999999999635,1.1200000000000008,0.5500000000000003,0.3100000000000001,7,2,1,1,16,2,1,1,3,0,15,7,HL,0.2918750000000001,0.5600000000000003,0.5500000000000003,0.3100000000000001
3,16,32,1,6,0.3000000000000001,2,4,41,1,2,39,6.309999999999916,0.45000000000000023,0.11999999999999998,3.0199999999999796,12,2,1,5,19,3,1,9,6,0,22,7,HL,0.3321052631578949,0.15000000000000002,0.11999999999999998,0.3355555555555557
3,17,33,1,1,1.6200000000000012,4,7,111,55,12,80,5.409999999999965,2.5099999999999905,2.1299999999999986,1.490000000000001,13,3,4,5,19,5,6,5,3,0,15,7,HL,0.2847368421052633,0.5020000000000003,0.35500000000000015,0.2980000000000001
3,17,34,1,10,0.37000000000000016,4,6,88,32,104,70,6.519999999999913,0.9700000000000006,0.4000000000000002,0.37000000000000016,11,4,2,1,16,4,2,1,3,0,14,7,HL,0.40750000000000025,0.2425000000000001,0.20000000000000004,0.37000000000000016
3,18,35,1,7,0.13999999999999999,2,2,13,19,109,24,9.159999999999853,0.02,0.7800000000000005,0.02,11,1,4,1,25,1,4,1,6,0.5,38,7,HL,0.36640000000000017,0.02,0.19500000000000006,0.02
3,18,36,1,10,0.6300000000000003,2,4,107,92,93,105,4.939999999999953,1.8700000000000014,1.1000000000000008,0.5700000000000003,7,3,4,3,13,5,5,3,3,0,10,7,HL,0.38000000000000017,0.37400000000000017,0.22000000000000008,0.19000000000000003
3,19,37,1,7,0.35000000000000014,2,4,73,23,82,16,5.179999999999942,1.8100000000000014,0.35000000000000014,2.579999999999989,8,3,2,6,12,3,2,7,6,0,18,7,HL,0.4316666666666669,0.6033333333333337,0.17500000000000004,0.36857142857142877
3,19,38,1,6,0.24000000000000007,2,3,8,4,52,25,2.9399999999999866,25.700000000001218,0.01,0.01,6,18,1,1,15,66,1,1,6,0,21,7,HL,0.19600000000000006,0.38939393939393957,0.01,0.01
3,20,39,1,9,1.5900000000000012,3,6,71,9,43,65,3.610000000000002,0.8300000000000005,2.4599999999999915,0.9300000000000006,6,2,4,4,14,3,8,4,4,0,19,7,HL,0.257857142857143,0.2766666666666668,0.3075000000000001,0.23250000000000004
3,20,40,1,3,0.3300000000000001,2,3,84,27,49,53,3.0699999999999856,1.7400000000000013,3.4099999999999713,0.07,6,3,4,1,10,3,4,1,5,0,16,7,HL,0.30700000000000016,0.5800000000000003,0.8524999999999971,0.07
4,1,1,0,4,0.19000000000000003,2,3,93,86,32,29,5.849999999999924,0.6600000000000004,2.4999999999999907,1.420000000000001,8,2,5,3,13,2,5,3,2,0,16,7,HL,0.45000000000000023,0.3300000000000002,0.5000000000000002,0.4733333333333336
4,1,2,0,5,0.26000000000000006,2,4,39,83,116,51,2.939999999999987,2.1699999999999977,0.6400000000000003,0.15,7,4,1,1,12,6,1,1,5,0,14,7,HL,0.2450000000000001,0.36166666666666686,0.6400000000000003,0.15
4,2,3,0,3,0.22000000000000006,2,3,53,34,93,33,2.2200000000000015,1.7300000000000013,1.6600000000000013,0.09,4,2,4,1,6,5,5,1,5,0,17,7,HL,0.3700000000000002,0.34600000000000014,0.33200000000000013,0.09
4,2,4,0,1,0.25000000000000006,2,3,43,81,84,38,7.209999999999896,0.15,0.01,4.129999999999956,14,2,1,6,22,2,1,6,3,0,16,7,HL,0.32772727272727287,0.07499999999999998,0.01,0.688333333333333
4,3,5,0,5,0.5600000000000003,2,3,37,41,91,48,3.0799999999999903,1.0100000000000007,0.4100000000000002,0.5800000000000003,5,2,1,2,7,2,1,2,5,0.5,18,7,HL,0.4400000000000002,0.5050000000000002,0.4100000000000002,0.2900000000000001
4,3,6,0,3,0.3000000000000001,2,3,58,26,81,32,5.1199999999999415,0.19000000000000003,0.11999999999999998,0.23000000000000007,7,1,1,2,8,1,1,2,5,0,17,7,HL,0.6400000000000005,0.19000000000000003,0.11999999999999998,0.115
4,4,7,0,7,0.20000000000000004,2,4,16,14,97,92,1.680000000000001,29.920000000001878,0.01,0.08,4,17,1,2,6,53,1,2,6,0,17,7,HL,0.28000000000000014,0.5645283018867927,0.01,0.04
4,4,8,0,1,0.5800000000000003,10,11,76,116,79,30,2.0900000000000016,3.4399999999999706,0.05,1.410000000000001,12,7,1,3,13,8,1,4,3,0,13,7,HL,0.16076923076923083,0.4300000000000002,0.05,0.3525000000000002
4,5,9,0,3,0.3300000000000001,2,3,108,86,34,91,4.76999999999995,0.46000000000000024,1.0500000000000007,1.5600000000000012,8,1,5,2,19,1,5,2,5,0,13,7,HL,0.25105263157894747,0.46000000000000024,0.21000000000000008,0.7800000000000006
4,5,10,0,8,0.2900000000000001,2,3,20,76,23,73,11.8299999999998,0.19000000000000003,0.01,0.01,12,1,1,1,21,1,1,1,2,0,18,7,HL,0.5633333333333337,0.19000000000000003,0.01,0.01
4,6,11,0,8,0.6900000000000004,10,11,112,110,88,46,2.370000000000002,1.340000000000001,0.36000000000000015,1.9100000000000015,14,3,1,4,17,5,1,5,2,0,12,7,HL,0.1394117647058824,0.2680000000000001,0.36000000000000015,0.3820000000000002
4,6,12,0,4,0.2800000000000001,2,4,13,14,20,104,6.649999999999909,0.10999999999999999,0.24000000000000007,0.03,12,1,2,1,14,1,3,1,2,0.5,20,7,HL,0.47500000000000026,0.10999999999999999,0.07999999999999999,0.03
4,7,13,1,2,0.5100000000000002,8,9,52,57,76,51,5.989999999999927,0.04,0.08,1.360000000000001,16,1,1,3,27,1,1,3,4,0.5,27,7,HL,0.22185185185185194,0.04,0.08,0.4533333333333336
4,7,14,1,9,0.2800000000000001,5,5,3,42,7,64,8.45999999999987,0.01,0.4000000000000002,0.01,18,1,2,1,26,1,2,1,4,0,21,7,HL,0.32538461538461555,0.01,0.20000000000000004,0.01
4,8,15,1,10,0.16,2,3,59,89,55,51,4.129999999999959,0.13999999999999999,0.5600000000000003,0.11999999999999998,7,1,2,1,10,1,3,1,3,0.5,27,7,HL,0.413,0.13999999999999999,0.1866666666666667,0.11999999999999998
4,8,16,1,1,0.15,2,3,76,1,2,10,1.1900000000000006,2.959999999999981,2.3599999999999937,0.6300000000000003,5,6,6,3,7,7,6,3,3,0.5,39,7,HL,0.17000000000000007,0.42285714285714304,0.3933333333333336,0.21000000000000008
4,9,17,1,1,1.5300000000000011,9,11,75,1,11,44,2.0200000000000014,1.7800000000000014,2.819999999999984,1.8300000000000014,10,2,3,3,12,2,3,4,3,0,20,7,HL,0.1683333333333334,0.8900000000000006,0.939999999999999,0.4575000000000003
4,9,18,1,10,0.4300000000000002,7,7,18,59,116,21,9.719999999999846,0.01,0.24000000000000007,0.01,18,1,2,1,28,1,2,1,3,0,18,7,HL,0.3471428571428573,0.01,0.12000000000000004,0.01
4,10,19,1,3,0.20000000000000004,2,3,29,25,77,73,1.9700000000000013,0.6600000000000004,0.9700000000000006,0.15,4,1,3,1,7,1,3,1,5,0,16,7,HL,0.2814285714285716,0.6600000000000004,0.3233333333333335,0.15
4,10,20,1,10,1.350000000000001,14,17,92,4,1,7,2.4200000000000017,3.9699999999999593,9.949999999999832,0.7000000000000004,15,7,12,3,18,12,16,3,3,0.5,39,7,HL,0.13444444444444448,0.3308333333333335,0.6218750000000004,0.23333333333333345
4,11,21,1,7,0.13999999999999999,2,2,16,40,46,85,1.570000000000001,1.7600000000000013,0.2700000000000001,0.3000000000000001,4,3,1,1,5,6,1,1,6,0,19,7,HL,0.31400000000000017,0.29333333333333345,0.2700000000000001,0.3000000000000001
4,11,22,1,1,0.6800000000000004,7,7,111,25,109,74,6.449999999999922,0.5400000000000003,0.10999999999999999,0.01,16,1,1,1,19,1,1,1,3,0,12,7,HL,0.3394736842105265,0.5400000000000003,0.10999999999999999,0.01
4,12,23,1,1,0.18000000000000002,2,2,1,7,8,62,5.709999999999926,0.13999999999999999,0.13999999999999999,0.2700000000000001,12,1,1,1,16,1,1,1,3,0.5,40,7,HL,0.35687500000000016,0.13999999999999999,0.13999999999999999,0.2700000000000001
4,12,24,1,7,0.7800000000000005,6,7,18,109,56,23,2.0400000000000014,1.1800000000000008,1.8600000000000014,0.12999999999999998,7,2,3,1,8,3,3,1,6,0,18,7,HL,0.2550000000000001,0.39333333333333353,0.6200000000000004,0.12999999999999998
4,13,25,1,6,0.9700000000000006,16,18,2,3,45,43,3.4199999999999924,0.6700000000000004,0.9100000000000006,3.1099999999999777,18,1,2,6,22,1,2,7,6,0,22,7,HL,0.1554545454545455,0.6700000000000004,0.4550000000000002,0.4442857142857145
4,13,26,1,9,3.2999999999999736,3,7,71,64,76,35,6.439999999999951,0.18000000000000002,0.3300000000000001,0.09999999999999999,8,2,1,1,13,2,1,1,4,0,16,7,HL,0.4953846153846154,0.09,0.3300000000000001,0.09999999999999999
4,14,27,1,2,0.9900000000000007,3,4,75,52,78,77,2.030000000000001,1.8300000000000014,0.18000000000000002,0.21000000000000005,4,4,1,2,5,5,1,3,4,0.5,22,7,HL,0.40600000000000025,0.36600000000000016,0.18000000000000002,0.06999999999999999
4,14,28,1,3,0.3900000000000002,2,3,32,67,23,118,4.569999999999956,0.6900000000000004,1.420000000000001,0.05,6,2,4,1,12,2,4,1,5,0,17,7,HL,0.3808333333333335,0.34500000000000014,0.3550000000000002,0.05
4,15,29,1,4,0.4100000000000002,5,5,2,74,107,104,9.49999999999985,0.02,0.01,0.01,16,1,1,1,25,1,1,1,2,0,13,7,HL,0.3800000000000002,0.02,0.01,0.01
4,15,30,1,5,0.4100000000000002,2,3,37,116,18,24,4.749999999999952,0.36000000000000015,1.320000000000001,1.1900000000000008,9,2,5,2,15,3,5,2,5,0,19,7,HL,0.3166666666666668,0.11999999999999998,0.26400000000000007,0.5950000000000004
4,16,31,1,2,0.15,2,3,55,120,60,74,3.429999999999974,0.7600000000000005,0.08,1.490000000000001,6,2,1,2,14,3,1,3,4,0,13,7,HL,0.24500000000000008,0.2533333333333334,0.08,0.4966666666666669
4,16,32,1,3,0.7200000000000004,3,4,3,98,89,1,7.559999999999899,0.11999999999999998,0.02,0.20000000000000004,11,1,1,2,15,1,1,2,5,0,17,7,HL,0.5040000000000003,0.11999999999999998,0.02,0.1
4,17,33,1,4,0.21000000000000005,2,3,73,100,14,19,3.539999999999973,0.26000000000000006,0.09,1.2000000000000008,8,2,1,3,10,2,1,3,2,0,17,7,HL,0.35400000000000015,0.13000000000000003,0.09,0.40000000000000024
4,17,34,1,3,0.18000000000000002,2,3,114,28,2,120,2.8299999999999876,1.2400000000000009,3.889999999999961,0.060000000000000005,6,3,4,1,10,3,5,1,5,0,15,7,HL,0.28300000000000014,0.41333333333333355,0.7780000000000006,0.060000000000000005
4,18,35,1,4,0.6200000000000003,2,3,100,76,10,75,5.669999999999937,0.3100000000000001,0.24000000000000007,0.2800000000000001,7,2,1,3,14,2,1,3,2,0,14,7,HL,0.4050000000000002,0.15500000000000003,0.24000000000000007,0.09333333333333334
4,18,36,1,8,0.8800000000000006,5,5,33,35,119,96,5.449999999999948,0.2800000000000001,1.460000000000001,0.35000000000000014,8,2,4,3,9,2,4,3,2,0,15,7,HL,0.6055555555555545,0.14000000000000004,0.36500000000000016,0.1166666666666667
4,19,37,1,5,0.21000000000000005,2,3,40,41,39,104,3.6899999999999697,0.20000000000000004,0.23000000000000007,0.8000000000000005,5,2,1,2,11,2,1,2,5,0.5,32,7,HL,0.3354545454545456,0.1,0.23000000000000007,0.4000000000000002
4,19,38,1,9,0.36000000000000015,4,5,61,71,115,116,1.590000000000001,1.9100000000000015,0.36000000000000015,0.6600000000000004,6,7,1,2,7,9,1,2,4,0,12,7,HL,0.22714285714285726,0.21222222222222228,0.36000000000000015,0.3300000000000001
4,20,39,1,10,0.4300000000000002,2,4,91,57,104,94,2.8099999999999934,0.6400000000000003,0.9400000000000006,0.16,6,1,3,1,10,1,3,1,3,0,12,7,HL,0.28100000000000014,0.6400000000000003,0.31333333333333346,0.16
4,20,40,1,9,0.23000000000000007,2,3,66,68,109,69,1.530000000000001,1.460000000000001,1.400000000000001,0.18000000000000002,4,5,4,1,5,6,4,1,4,0.5,26,7,HL,0.30600000000000016,0.2433333333333334,0.35000000000000014,0.18000000000000002
4,21,41,1,7,0.10999999999999999,2,3,13,55,23,15,3.439999999999973,0.49000000000000027,2.0400000000000005,0.21000000000000005,6,1,4,3,7,1,5,3,6,0.5,40,7,HL,0.4914285714285686,0.49000000000000027,0.40800000000000025,0.07
4,21,42,1,9,0.16,2,3,71,77,76,79,1.3900000000000008,2.5999999999999885,4.629999999999946,4.489999999999949,5,3,4,6,8,5,6,7,4,0.5,22,7,HL,0.17375000000000007,0.5200000000000002,0.7716666666666672,0.6414285714285717
5,1,1,0,6,7.6399999999998816,10,19,10,6,8,11,9.80999999999988,0.08,10.99999999999981,2.489999999999991,15,2,12,3,24,2,19,3,6,1,72,7,HL,0.4087499999999989,0.04,0.5789473684210529,0.8300000000000006
5,1,2,0,5,4.859999999999941,9,19,41,43,21,16,4.91999999999994,0.21000000000000005,4.189999999999955,0.9200000000000006,11,3,7,4,21,3,7,4,5,0,22,7,HL,0.23428571428571443,0.06999999999999999,0.598571428571429,0.23000000000000007
5,2,3,0,6,1.5600000000000012,4,7,4,76,1,99,1.5900000000000012,0.6100000000000003,0.9400000000000006,8.799999999999857,6,2,2,9,9,2,2,15,6,0,17,7,HL,0.17666666666666675,0.3050000000000001,0.47000000000000025,0.586666666666667
5,2,4,0,3,1.5100000000000011,3,5,26,28,13,21,1.630000000000001,0.9100000000000006,1.300000000000001,0.22000000000000006,5,3,2,1,7,3,2,1,5,0,22,7,HL,0.23285714285714298,0.30333333333333345,0.6500000000000004,0.22000000000000006
5,3,5,0,4,1.9400000000000015,3,10,106,33,20,23,2.0800000000000014,0.5500000000000003,0.47000000000000025,0.7200000000000004,4,1,2,3,11,1,2,3,2,0,19,7,HL,0.18909090909090914,0.5500000000000003,0.23500000000000007,0.2400000000000001
5,3,6,0,10,1.470000000000001,7,9,92,111,39,66,2.7500000000000018,3.5299999999999687,0.01,0.18000000000000002,9,6,1,2,11,9,1,2,3,0,14,7,HL,0.2500000000000001,0.3922222222222224,0.01,0.09
5,4,7,0,5,4.789999999999942,10,14,64,88,61,38,5.849999999999943,0.11999999999999998,0.3200000000000001,0.01,13,1,2,1,17,1,2,1,5,0,16,7,HL,0.3441176470588231,0.11999999999999998,0.16000000000000003,0.01
5,4,8,0,3,1.7600000000000013,3,8,34,113,29,18,2.1400000000000015,0.9100000000000006,0.22000000000000006,0.18000000000000002,5,1,1,1,10,1,1,1,5,0,18,7,HL,0.21400000000000008,0.9100000000000006,0.22000000000000006,0.18000000000000002
5,5,9,0,4,2.199999999999997,5,10,101,20,19,16,2.8599999999999977,0.3000000000000001,1.370000000000001,0.34000000000000014,7,1,4,2,13,1,5,2,2,0.5,20,7,HL,0.22000000000000008,0.3000000000000001,0.2740000000000001,0.17
5,5,10,0,8,1.6100000000000012,3,6,30,26,7,35,2.0600000000000014,0.3200000000000001,0.8200000000000005,1.8800000000000014,4,1,2,5,7,1,2,5,2,0.5,21,7,HL,0.29428571428571443,0.3200000000000001,0.4100000000000002,0.37600000000000017
5,6,11,0,3,4.209999999999955,7,14,35,33,59,56,4.609999999999955,2.159999999999998,0.060000000000000005,0.6700000000000004,8,2,1,2,15,2,1,2,5,0,18,7,HL,0.3073333333333335,1.0799999999999996,0.060000000000000005,0.3350000000000002
5,6,12,0,7,0.9900000000000007,4,9,18,24,99,41,1.0000000000000007,0.36000000000000015,0.7600000000000005,1.8100000000000014,5,1,2,3,10,1,2,6,6,0,19,7,HL,0.1,0.36000000000000015,0.38000000000000017,0.3016666666666668
5,7,13,1,3,3.099999999999978,6,14,34,1,68,115,3.9799999999999782,8.519999999999863,1.2200000000000009,0.02,8,13,5,1,16,22,5,1,5,0,17,7,HL,0.24875000000000014,0.3872727272727275,0.2440000000000001,0.02
5,7,14,1,2,2.6099999999999883,5,12,76,78,23,41,3.4499999999999886,0.5400000000000003,0.15,0.19000000000000003,6,1,1,1,13,2,1,1,4,0,17,7,HL,0.2653846153846155,0.2700000000000001,0.15,0.19000000000000003
5,8,15,1,3,1.5400000000000011,3,7,120,26,71,30,2.8500000000000023,0.2800000000000001,0.7800000000000005,0.4100000000000002,6,2,2,3,11,2,2,3,5,0,16,7,HL,0.2590909090909092,0.13999999999999999,0.3900000000000002,0.1366666666666667
5,8,16,1,1,2.849999999999983,3,10,46,79,76,13,2.919999999999983,0.07,1.0600000000000007,0.26000000000000006,4,1,3,1,11,1,3,1,3,0,17,7,HL,0.2654545454545456,0.07,0.3533333333333335,0.26000000000000006
5,9,17,1,3,1.320000000000001,4,6,14,27,71,100,4.449999999999978,0.02,0.22000000000000006,0.01,10,1,2,1,13,1,2,1,5,0,17,7,HL,0.3423076923076925,0.02,0.11000000000000001,0.01
5,9,18,1,6,3.4099999999999713,6,9,83,115,113,37,6.46999999999995,0.04,0.10999999999999999,6.709999999999901,13,1,1,6,17,1,1,6,6,0,12,7,HL,0.3805882352941179,0.04,0.10999999999999999,1.1183333333333303
5,10,19,1,10,4.6399999999999455,6,14,95,52,30,96,5.109999999999946,0.34000000000000014,0.02,0.12999999999999998,9,1,1,1,17,1,1,1,3,0,15,7,HL,0.3005882352941178,0.34000000000000014,0.02,0.12999999999999998
5,10,20,1,9,5.289999999999932,7,14,83,79,61,69,5.6699999999999315,0.2700000000000001,1.470000000000001,0.09999999999999999,8,1,4,1,15,1,4,1,4,0,14,7,HL,0.37799999999999945,0.2700000000000001,0.36750000000000016,0.09999999999999999
5,11,21,1,2,2.809999999999984,4,9,7,29,112,52,17.159999999999723,0.01,0.02,0.01,17,1,1,1,37,1,1,1,4,0,17,7,HL,0.46378378378378404,0.01,0.02,0.01
5,11,22,1,9,2.109999999999999,4,8,62,81,48,46,3.0399999999999996,0.08,1.9000000000000015,2.3099999999999947,7,1,4,3,13,1,6,4,4,0,17,7,HL,0.23384615384615393,0.08,0.3166666666666668,0.5775000000000003
5,12,23,1,3,5.559999999999926,5,10,32,112,51,8,5.629999999999926,0.7100000000000004,1.2000000000000008,0.01,6,2,3,1,11,2,3,1,5,0,17,7,HL,0.51181818181818,0.35500000000000015,0.4000000000000002,0.01
5,12,24,1,1,1.480000000000001,10,12,73,14,13,75,1.670000000000001,2.7799999999999847,13.859999999999749,5.499999999999927,12,6,14,7,14,6,24,7,3,0,18,7,HL,0.1192857142857143,0.46333333333333365,0.5774999999999997,0.7857142857142863
5,13,25,1,10,2.9199999999999817,3,8,92,72,10,69,4.179999999999983,0.9200000000000006,0.09,0.03,5,2,1,1,10,2,1,1,3,0,17,7,HL,0.4179999999999994,0.46000000000000024,0.09,0.03
5,13,26,1,8,5.099999999999936,13,20,50,110,18,17,6.789999999999937,2.1799999999999975,0.05,0.01,16,4,2,1,23,4,2,1,2,0,18,7,HL,0.295217391304348,0.5450000000000004,0.025,0.01
5,14,27,1,6,3.1099999999999777,10,14,2,91,34,10,3.469999999999978,0.6900000000000004,0.45000000000000023,0.09999999999999999,11,1,2,1,15,1,2,1,6,0,20,7,HL,0.23133333333333345,0.6900000000000004,0.22500000000000003,0.09999999999999999
5,14,28,1,9,3.46999999999997,8,17,67,72,73,114,3.52999999999997,0.17,8.349999999999866,1.360000000000001,9,1,10,4,18,1,13,4,4,0,13,7,HL,0.1961111111111112,0.17,0.6423076923076919,0.34000000000000014
5,15,29,1,1,3.3599999999999723,5,13,73,75,6,78,5.249999999999973,0.08,0.15,0.10999999999999999,7,1,1,1,15,1,1,1,3,0.5,24,7,HL,0.3500000000000002,0.08,0.15,0.10999999999999999
5,15,30,1,8,1.8600000000000014,3,7,113,72,13,68,2.720000000000002,0.8900000000000006,0.5700000000000003,0.20000000000000004,6,3,2,2,11,3,3,2,2,0,16,7,HL,0.2472727272727274,0.2966666666666668,0.19000000000000003,0.1
5,16,31,1,7,1.360000000000001,3,6,63,16,78,15,2.0100000000000016,3.8799999999999613,0.46000000000000024,0.6400000000000003,5,5,2,3,8,8,2,3,6,0,19,7,HL,0.2512500000000001,0.4850000000000003,0.2300000000000001,0.2133333333333334
5,16,32,1,2,5.679999999999923,8,17,60,89,109,117,6.539999999999924,2.669999999999987,0.13999999999999999,0.6600000000000004,10,6,2,3,19,8,2,3,4,0,11,7,HL,0.3442105263157897,0.33375000000000016,0.07,0.22000000000000008
5,17,33,1,9,1.5100000000000011,12,15,75,74,37,14,5.4299999999999615,0.2700000000000001,2.3599999999999937,0.7300000000000004,15,3,3,3,19,3,3,3,4,0,17,7,HL,0.2857894736842099,0.09,0.7866666666666672,0.2433333333333334
5,17,34,1,2,2.1399999999999983,4,10,118,55,52,5,2.5199999999999987,0.9200000000000006,0.5400000000000003,1.500000000000001,6,5,2,6,13,5,2,7,4,0,16,7,HL,0.19384615384615392,0.18400000000000002,0.27000000000000013,0.21428571428571436
5,18,35,1,9,2.52999999999999,7,10,119,41,110,69,3.629999999999991,0.7300000000000004,0.03,0.7700000000000005,10,2,1,2,13,2,1,2,4,0,13,7,HL,0.27923076923076934,0.3650000000000002,0.03,0.38500000000000023
5,18,36,1,2,3.889999999999961,5,12,92,89,6,1,4.479999999999961,0.4200000000000002,0.09,0.3000000000000001,7,2,2,1,14,3,2,1,4,0,18,7,HL,0.3200000000000002,0.14,0.045,0.3000000000000001
5,19,37,1,3,1.280000000000001,4,9,73,52,50,13,1.9000000000000012,0.20000000000000004,0.12999999999999998,0.8000000000000005,5,1,1,2,10,1,1,2,5,0,17,7,HL,0.19000000000000009,0.20000000000000004,0.12999999999999998,0.40000000000000013
5,19,38,1,9,1.0500000000000007,7,9,70,61,48,6,1.1400000000000008,0.20000000000000004,0.5500000000000003,0.25000000000000006,9,1,2,1,11,1,2,1,4,0,19,7,HL,0.10363636363636365,0.20000000000000004,0.2750000000000001,0.25000000000000006
5,20,39,1,8,0.8200000000000005,13,13,36,96,114,54,4.109999999999975,3.1999999999999758,0.6500000000000004,4.739999999999943,20,4,2,4,20,4,2,5,2,0,14,7,HL,0.2055000000000001,0.8000000000000005,0.3250000000000002,0.9479999999999987
5,20,40,1,1,4.839999999999941,9,21,71,48,6,39,4.939999999999941,0.02,0.3000000000000001,1.0100000000000007,10,1,1,4,22,1,1,4,3,0,20,7,HL,0.22454545454545466,0.02,0.3000000000000001,0.25250000000000006
5,21,41,1,10,3.7799999999999634,12,18,94,56,22,87,3.8499999999999632,4.079999999999957,3.1699999999999764,0.15,14,6,3,2,20,7,3,2,3,0,16,7,HL,0.1925,0.5828571428571427,1.0566666666666633,0.075
5,21,42,1,8,1.5900000000000012,6,14,113,120,117,6,1.6200000000000012,0.15,0.11999999999999998,0.4000000000000002,7,1,1,1,15,1,1,1,2,0.5,18,7,HL,0.10800000000000003,0.15,0.11999999999999998,0.4000000000000002
6,1,1,0,4,6.199999999999912,7,20,93,31,87,60,6.649999999999912,1.290000000000001,0.01,0.05,8,2,1,1,21,2,1,1,2,0,15,7,HL,0.3166666666666668,0.6450000000000005,0.01,0.05
6,1,2,0,1,2.1899999999999973,3,9,82,74,9,43,2.3699999999999974,0.02,0.37000000000000016,1.0800000000000007,4,1,1,2,10,1,1,2,3,0,17,7,HL,0.23700000000000013,0.02,0.37000000000000016,0.5400000000000004
6,2,3,0,3,1.5500000000000012,4,8,67,96,113,1,16.169999999999735,0.15,0.01,0.01,14,2,1,1,21,2,1,1,5,0,15,7,HL,0.769999999999997,0.075,0.01,0.01
6,2,4,0,7,4.1699999999999555,9,19,73,48,23,15,4.449999999999956,0.01,1.6000000000000012,3.2599999999999745,10,1,3,2,20,1,4,3,6,0,20,7,HL,0.22250000000000011,0.01,0.40000000000000024,1.0866666666666633
6,3,5,0,3,2.5199999999999902,4,7,36,2,58,89,3.139999999999991,2.99999999999998,0.24000000000000007,0.4000000000000002,6,4,2,1,9,4,2,1,5,0,18,7,HL,0.3488888888888887,0.7500000000000004,0.12000000000000002,0.4000000000000002
6,3,6,0,1,4.41999999999995,5,13,77,40,17,20,4.46999999999995,1.5500000000000012,0.13999999999999999,0.01,6,3,1,1,14,5,1,1,3,0,20,7,HL,0.31928571428571445,0.31000000000000016,0.13999999999999999,0.01
6,4,7,0,4,3.4099999999999713,5,13,3,30,93,85,3.7199999999999713,0.25000000000000006,0.01,0.02,6,1,1,1,14,1,1,1,2,0,17,7,HL,0.26571428571428585,0.25000000000000006,0.01,0.02
6,4,8,0,9,1.360000000000001,6,11,46,13,63,116,1.430000000000001,4.659999999999945,0.13999999999999999,0.19000000000000003,7,10,2,2,12,11,2,2,4,0,17,7,HL,0.1191666666666667,0.42363636363636387,0.06999999999999999,0.09500000000000001
6,5,9,0,3,2.0400000000000005,4,7,82,29,5,60,2.0800000000000005,0.11999999999999998,0.19000000000000003,0.3900000000000002,5,1,2,1,8,1,2,1,5,0,18,7,HL,0.2600000000000002,0.11999999999999998,0.095,0.3900000000000002
6,5,10,0,4,1.8000000000000014,4,10,97,48,13,108,1.8700000000000014,0.23000000000000007,0.20000000000000004,5.009999999999938,6,1,2,4,12,1,2,4,2,0,15,7,HL,0.15583333333333338,0.23000000000000007,0.1,1.252499999999995
6,6,11,0,8,3.989999999999959,10,17,119,96,2,5,4.099999999999959,0.21000000000000005,0.17,2.8399999999999834,11,1,1,4,18,1,1,6,2,0,17,7,HL,0.22777777777777788,0.21000000000000005,0.17,0.4733333333333336
6,6,12,0,1,3.6799999999999655,3,6,61,31,14,18,4.379999999999966,0.13999999999999999,0.38000000000000017,0.15,5,1,2,1,8,1,2,1,3,0,21,7,HL,0.5475000000000003,0.13999999999999999,0.19000000000000003,0.15
6,7,13,1,6,3.7699999999999636,8,16,1,10,91,96,4.079999999999964,0.16,0.01,0.7400000000000004,9,1,1,2,17,1,1,2,6,0,18,7,HL,0.2400000000000001,0.16,0.01,0.37000000000000016
6,7,14,1,2,2.8399999999999834,5,12,46,24,57,52,3.299999999999984,0.10999999999999999,0.15,0.12999999999999998,6,1,1,1,13,1,1,1,4,0,19,7,HL,0.253846153846154,0.10999999999999999,0.15,0.12999999999999998
6,8,15,1,4,3.0599999999999787,5,10,104,99,17,51,3.1299999999999786,0.13999999999999999,0.3100000000000001,0.05,6,1,2,1,11,1,3,1,2,0,14,7,HL,0.2845454545454547,0.13999999999999999,0.10333333333333332,0.05
6,8,16,1,10,3.149999999999977,5,8,11,86,91,90,3.6499999999999773,0.02,0.11999999999999998,2.709999999999986,7,1,1,6,10,1,1,6,3,0.5,24,7,HL,0.3650000000000002,0.02,0.11999999999999998,0.45166666666666694
6,9,17,1,8,3.0699999999999785,7,14,19,95,18,96,3.2399999999999785,1.9600000000000015,3.5999999999999672,5.919999999999918,8,5,4,4,15,5,8,4,2,0,18,7,HL,0.2160000000000001,0.3920000000000002,0.45000000000000023,1.4799999999999944
6,9,18,1,1,7.089999999999893,10,21,101,31,11,33,7.099999999999893,0.2800000000000001,2.6499999999999875,0.02,11,1,3,1,22,1,3,1,3,0,18,7,HL,0.3227272727272729,0.2800000000000001,0.8833333333333334,0.02
6,10,19,1,2,2.239999999999996,5,11,13,60,20,47,6.0699999999999585,0.02,0.01,0.01,10,1,1,1,18,1,1,1,4,0,21,7,HL,0.3372222222222224,0.02,0.01,0.01
6,10,20,1,3,2.7499999999999853,4,6,2,7,77,114,6.549999999999948,0.01,0.01,0.13999999999999999,8,1,1,1,11,1,1,1,5,0,17,7,HL,0.5954545454545451,0.01,0.01,0.13999999999999999
6,11,21,1,4,2.2699999999999956,4,11,52,18,57,97,2.509999999999996,0.02,0.03,0.15,5,1,1,2,12,1,1,2,2,0,16,7,HL,0.20916666666666675,0.02,0.03,0.075
6,11,22,1,9,1.420000000000001,10,15,67,2,120,63,1.430000000000001,10.899999999999812,0.3300000000000001,0.8100000000000005,11,11,1,2,16,12,1,2,4,0,16,7,HL,0.08937500000000001,0.9083333333333327,0.3300000000000001,0.40500000000000025
6,12,23,1,9,4.1699999999999555,7,16,93,63,68,85,4.229999999999955,0.13999999999999999,0.08,0.8900000000000006,8,1,1,2,17,1,1,2,4,0,14,7,HL,0.24882352941176483,0.13999999999999999,0.08,0.44500000000000023
6,12,24,1,2,3.1199999999999775,4,8,49,60,10,80,3.3099999999999774,0.24000000000000007,1.300000000000001,0.08,5,1,2,1,9,1,3,1,4,0,17,7,HL,0.367777777777778,0.24000000000000007,0.43333333333333357,0.08
6,13,25,1,3,5.4399999999999284,8,15,103,15,107,51,5.759999999999929,0.3100000000000001,0.02,0.5200000000000002,9,1,1,2,16,1,1,2,5,0,14,7,HL,0.3600000000000002,0.3100000000000001,0.02,0.2600000000000001
6,13,26,1,5,2.249999999999996,7,10,9,1,2,11,2.299999999999996,12.37999999999978,0.7100000000000004,0.13999999999999999,8,14,3,1,11,23,3,1,5,1,72,7,HL,0.2090909090909092,0.5382608695652171,0.23666666666666678,0.13999999999999999
6,14,27,1,6,6.339999999999909,7,14,1,9,66,67,6.56999999999991,5.419999999999929,6.099999999999914,0.01,8,8,8,1,15,10,11,1,6,0,20,7,HL,0.4380000000000002,0.5420000000000004,0.5545454545454549,0.01
6,14,28,1,3,3.789999999999963,5,12,32,29,16,59,3.809999999999963,0.03,0.16,0.20000000000000004,6,1,1,2,13,1,1,3,5,0,20,7,HL,0.29307692307692323,0.03,0.16,0.06666666666666667
6,15,29,1,8,6.0499999999999154,13,22,116,49,12,77,6.7999999999999154,0.060000000000000005,7.4099999999998865,3.849999999999962,15,2,8,3,24,2,8,4,2,0,15,7,HL,0.2833333333333335,0.030000000000000002,0.9262499999999987,0.962499999999998
6,15,30,1,9,4.0299999999999585,5,11,15,68,63,17,14.199999999999786,0.01,0.01,0.02,18,1,1,1,29,1,1,1,4,0,20,7,HL,0.4896551724137934,0.01,0.01,0.02
6,16,31,1,10,3.329999999999973,6,14,99,61,89,21,3.799999999999973,0.8400000000000005,0.060000000000000005,0.09,8,3,1,1,16,4,1,1,3,0,15,7,HL,0.23750000000000013,0.21000000000000008,0.060000000000000005,0.09
6,16,32,1,8,11.739999999999794,11,21,56,73,55,119,12.379999999999795,0.8300000000000005,0.01,0.4100000000000002,14,2,1,2,24,2,1,2,2,0,13,7,HL,0.5158333333333319,0.4150000000000002,0.01,0.2050000000000001
6,17,33,1,1,8.519999999999863,18,31,13,98,17,83,16.509999999999735,0.01,1.2000000000000008,0.01,20,1,2,1,45,1,2,1,3,0,17,7,HL,0.36688888888888765,0.01,0.6000000000000004,0.01
6,17,34,1,8,1.2100000000000009,17,20,109,5,7,46,1.2200000000000009,6.499999999999906,0.09,3.8699999999999615,18,8,2,3,21,8,2,4,2,0,19,7,HL,0.058095238095238096,0.8125000000000004,0.045,0.9674999999999994
6,18,35,1,8,1.350000000000001,16,19,111,9,4,25,1.360000000000001,4.799999999999942,1.0500000000000007,0.07,17,8,3,1,20,9,3,1,2,0,19,7,HL,0.068,0.5333333333333337,0.35000000000000014,0.07
6,18,36,1,4,2.579999999999989,13,17,13,46,56,41,5.249999999999976,2.489999999999991,2.9299999999999815,0.02,16,3,5,1,20,3,6,1,2,0,20,7,HL,0.2625000000000001,0.8299999999999974,0.4883333333333336,0.02
6,19,37,1,6,1.1700000000000008,3,8,12,1,5,9,1.1800000000000008,0.19000000000000003,0.17,7.25999999999989,4,1,1,7,9,1,1,8,6,1,72,7,HL,0.13111111111111112,0.19000000000000003,0.17,0.9074999999999975
6,19,38,1,10,4.739999999999943,4,9,15,14,108,92,4.759999999999943,23.630000000000894,0.01,0.04,5,14,1,2,10,25,1,2,3,0,17,7,HL,0.4760000000000003,0.945199999999998,0.01,0.02
6,20,39,1,2,1.7100000000000013,3,6,81,58,23,41,2.1500000000000017,0.060000000000000005,0.19000000000000003,0.46000000000000024,4,1,1,1,7,1,1,1,4,0,18,7,HL,0.30714285714285733,0.060000000000000005,0.19000000000000003,0.46000000000000024
6,20,40,1,3,3.419999999999971,6,11,26,27,72,119,3.459999999999971,0.15,0.5500000000000003,0.49000000000000027,7,1,1,1,12,1,1,1,5,0,16,7,HL,0.2883333333333335,0.15,0.5500000000000003,0.49000000000000027
6,21,41,1,8,2.439999999999992,11,14,20,112,30,83,2.519999999999992,0.12999999999999998,0.13999999999999999,0.03,12,1,1,1,15,1,1,1,2,0,16,7,HL,0.16800000000000007,0.12999999999999998,0.13999999999999999,0.03
6,21,42,1,9,4.289999999999953,9,18,103,107,106,4,5.739999999999954,0.02,2.249999999999996,3.1999999999999758,13,1,5,5,22,1,5,6,4,0.5,18,7,HL,0.26090909090909103,0.02,0.45000000000000023,0.5333333333333332
7,1,1,0,3,2.6599999999999873,5,14,25,58,50,94,2.7999999999999874,0.49000000000000027,0.2700000000000001,4.379999999999951,6,2,1,7,15,3,1,9,5,0,16,7,HL,0.18666666666666673,0.16333333333333333,0.2700000000000001,0.48666666666666547
7,1,2,0,6,5.34999999999993,8,16,12,81,78,79,5.959999999999931,0.7000000000000004,0.26000000000000006,2.9899999999999802,10,2,2,8,18,2,2,12,6,0.5,15,7,HL,0.3311111111111113,0.3500000000000002,0.13,0.24916666666666676
7,2,3,0,4,3.509999999999969,4,11,1,91,105,87,16.019999999999747,0.01,0.01,0.01,13,1,1,1,27,1,1,1,2,0,14,7,HL,0.593333333333333,0.01,0.01,0.01
7,2,4,0,2,4.759999999999943,7,15,18,20,22,117,47.13000000000008,0.01,0.01,0.01,20,1,1,1,85,1,1,1,4,0.5,20,7,HL,0.5544705882352943,0.01,0.01,0.01
7,3,5,0,5,7.4099999999998865,13,29,43,49,5,12,7.539999999999886,0.49000000000000027,2.1399999999999983,0.03,15,1,3,1,31,1,3,1,5,0,21,7,HL,0.243225806451613,0.49000000000000027,0.7133333333333338,0.03
7,3,6,0,7,1.1100000000000008,8,11,21,16,32,19,1.1200000000000008,0.10999999999999999,1.420000000000001,1.6100000000000012,9,1,2,6,12,1,2,6,6,0.5,23,7,HL,0.09333333333333335,0.10999999999999999,0.7100000000000004,0.2683333333333334
7,4,7,0,9,4.469999999999949,6,16,28,29,5,26,5.26999999999995,0.7400000000000004,0.2700000000000001,0.8800000000000006,9,2,1,3,19,2,1,3,4,0.5,21,7,HL,0.2773684210526317,0.3700000000000002,0.2700000000000001,0.29333333333333345
7,4,8,0,5,3.1299999999999772,5,10,40,43,14,18,3.179999999999977,0.25000000000000006,7.949999999999875,0.13999999999999999,6,2,9,1,11,3,13,1,5,0,22,7,HL,0.28909090909090923,0.08333333333333333,0.6115384615384619,0.13999999999999999
7,5,9,0,7,1.5800000000000012,3,8,21,19,31,18,2.0200000000000014,0.2700000000000001,2.020000000000001,2.0000000000000013,5,1,3,5,10,1,3,8,6,0.5,23,7,HL,0.20200000000000007,0.2700000000000001,0.6733333333333338,0.2500000000000001
7,5,10,0,5,4.729999999999944,13,20,44,112,109,38,4.749999999999943,1.1900000000000008,0.9600000000000006,0.9000000000000006,14,3,3,2,21,3,4,2,5,0,14,7,HL,0.2261904761904763,0.39666666666666683,0.2400000000000001,0.4500000000000003
7,6,11,0,8,5.299999999999931,6,15,120,75,44,9,7.299999999999933,0.08,2.819999999999984,0.01,10,1,3,1,21,1,4,1,2,0,16,7,HL,0.3476190476190478,0.08,0.7050000000000001,0.01
7,6,12,0,2,1.2400000000000009,11,13,49,30,92,23,1.2500000000000009,6.399999999999908,0.01,3.519999999999969,12,4,1,8,14,6,1,11,4,0,18,7,HL,0.08928571428571429,1.0666666666666629,0.01,0.3200000000000002
7,7,13,1,7,3.1699999999999764,5,17,85,109,115,91,4.499999999999977,0.05,0.15,0.7300000000000004,6,1,1,1,18,1,1,1,6,0,10,7,HL,0.2500000000000001,0.05,0.15,0.7300000000000004
7,7,14,1,1,3.979999999999959,13,18,84,68,12,9,3.989999999999959,0.6000000000000003,0.09,0.8800000000000006,14,1,1,4,19,2,1,4,3,0,19,7,HL,0.2099999999999998,0.30000000000000016,0.09,0.22000000000000006
7,8,15,1,1,1.430000000000001,11,13,59,34,53,49,4.6899999999999755,1.2000000000000008,0.05,0.7400000000000004,15,3,1,3,19,4,1,3,3,0.5,29,7,HL,0.24684210526315759,0.3000000000000002,0.05,0.24666666666666678
7,8,16,1,6,5.019999999999937,8,14,3,40,68,4,6.0499999999999385,1.2200000000000009,0.25000000000000006,1.360000000000001,12,2,1,2,18,2,1,2,6,0,21,7,HL,0.3361111111111112,0.6100000000000004,0.25000000000000006,0.6800000000000005
7,9,17,1,3,1.5600000000000012,3,8,28,8,120,4,1.6000000000000012,0.8700000000000006,0.8400000000000005,0.12999999999999998,4,3,2,1,9,4,5,1,5,0,19,7,HL,0.17777777777777784,0.21750000000000005,0.168,0.12999999999999998
7,9,18,1,4,5.149999999999935,7,16,104,102,57,49,5.1999999999999345,0.26000000000000006,3.3999999999999715,0.07,9,1,5,1,18,1,7,1,2,0,12,7,HL,0.28888888888888903,0.26000000000000006,0.485714285714286,0.07
7,10,19,1,4,1.400000000000001,5,8,103,8,100,30,1.9200000000000013,2.4199999999999924,0.05,0.37000000000000016,7,5,1,2,10,5,1,2,2,0,15,7,HL,0.19200000000000006,0.48400000000000026,0.05,0.18500000000000005
7,10,20,1,1,3.2199999999999753,5,13,73,81,69,37,3.2599999999999754,0.07,1.1300000000000008,0.48000000000000026,6,1,3,1,14,1,3,1,3,0,15,7,HL,0.23285714285714296,0.07,0.3766666666666668,0.48000000000000026
7,11,21,1,5,4.979999999999938,6,14,45,112,114,92,5.7999999999999385,0.5400000000000003,0.37000000000000016,1.480000000000001,9,1,1,2,18,1,1,2,5,0,12,7,HL,0.3222222222222224,0.5400000000000003,0.37000000000000016,0.7400000000000004
7,11,22,1,1,2.5599999999999894,4,9,106,103,32,100,3.01999999999999,0.7000000000000004,0.8300000000000005,0.3900000000000002,5,1,5,3,10,1,5,3,3,0.5,17,7,HL,0.30200000000000016,0.7000000000000004,0.16600000000000004,0.12999999999999998
7,12,23,1,4,2.1199999999999988,6,14,108,103,84,80,2.8999999999999995,0.6500000000000004,0.48000000000000026,1.5100000000000011,7,2,1,3,15,2,1,5,2,0,10,7,HL,0.1933333333333334,0.3250000000000001,0.48000000000000026,0.30200000000000016
7,12,24,1,10,3.2499999999999747,5,14,94,11,46,96,3.549999999999975,0.5400000000000003,0.35000000000000014,0.11999999999999998,6,1,2,1,15,1,2,1,3,0,17,7,HL,0.23666666666666678,0.5400000000000003,0.17500000000000004,0.11999999999999998
7,13,25,1,5,1.310000000000001,4,8,47,52,104,97,1.7700000000000011,0.9200000000000006,1.5900000000000012,0.6300000000000003,5,3,5,2,9,3,7,2,5,0,13,7,HL,0.1966666666666667,0.3066666666666668,0.2271428571428572,0.3150000000000001
7,13,26,1,8,1.420000000000001,5,9,90,116,7,33,4.0799999999999885,0.09,0.03,0.11999999999999998,14,1,1,1,19,1,1,1,2,0,16,7,HL,0.21473684210526323,0.09,0.03,0.11999999999999998
7,14,27,1,1,1.260000000000001,4,7,81,77,40,76,1.4300000000000008,0.22000000000000006,0.45000000000000023,0.15,5,1,2,1,8,1,3,1,3,0.5,23,7,HL,0.17875000000000005,0.22000000000000006,0.15000000000000005,0.15
7,14,28,1,10,5.229999999999933,10,14,26,90,56,24,7.009999999999934,2.2199999999999966,2.7299999999999858,5.3899999999999295,15,4,8,6,20,6,9,9,3,0,18,7,HL,0.3504999999999989,0.37000000000000016,0.30333333333333345,0.5988888888888884
7,15,29,1,9,5.2499999999999325,7,15,72,91,46,65,5.2899999999999325,1.430000000000001,1.440000000000001,0.07,9,2,5,1,17,2,6,1,4,0,16,7,HL,0.3111764705882355,0.7150000000000004,0.24000000000000007,0.07
7,15,30,1,1,1.400000000000001,3,7,80,12,49,11,1.540000000000001,0.4000000000000002,0.7400000000000004,0.12999999999999998,5,2,2,1,9,2,2,1,3,0,19,7,HL,0.17111111111111116,0.20000000000000004,0.37000000000000016,0.12999999999999998
7,16,31,1,9,2.4199999999999924,5,12,3,106,67,41,9.899999999999878,5.5299999999999265,1.260000000000001,0.01,15,9,4,1,22,13,4,1,4,0,17,7,HL,0.4499999999999999,0.42538461538461564,0.31500000000000017,0.01
7,16,32,1,10,1.410000000000001,3,7,13,118,28,95,138.4900000000203,0.01,0.01,0.01,20,1,1,1,277,1,1,1,3,0,16,7,HL,0.49996389891696763,0.01,0.01,0.01
7,17,33,1,4,1.7200000000000013,2,3,14,87,67,85,8.06999999999991,0.01,0.15,0.9700000000000006,10,1,1,2,15,1,2,2,2,0,16,7,HL,0.5380000000000004,0.01,0.075,0.4850000000000003
7,17,34,1,2,3.3999999999999715,6,21,55,32,33,6,3.759999999999972,1.270000000000001,1.9000000000000015,0.08,8,5,6,1,23,5,7,1,4,0,20,7,HL,0.16347826086956527,0.25400000000000006,0.2714285714285715,0.08
7,18,35,1,7,1.7500000000000013,3,6,38,67,18,39,2.410000000000002,0.5700000000000003,0.18000000000000002,0.5800000000000003,5,3,1,3,8,3,1,3,6,0,20,7,HL,0.30125000000000013,0.19000000000000006,0.18000000000000002,0.19333333333333336
7,18,36,1,3,3.5799999999999677,9,21,31,53,119,35,3.7699999999999676,1.7000000000000013,1.360000000000001,0.01,11,2,2,1,23,2,3,1,5,0,16,7,HL,0.16391304347826094,0.8500000000000005,0.45333333333333364,0.01
7,19,37,1,1,1.400000000000001,3,6,51,6,120,57,2.0800000000000014,0.6300000000000003,0.5500000000000003,0.13999999999999999,4,1,3,2,7,1,4,2,3,0,16,7,HL,0.29714285714285726,0.6300000000000003,0.1375,0.06999999999999999
7,19,38,1,7,4.139999999999956,6,13,24,15,37,102,4.239999999999956,0.2700000000000001,0.7800000000000005,1.8900000000000015,7,1,1,3,14,2,1,4,6,0,19,7,HL,0.30285714285714305,0.135,0.7800000000000005,0.47250000000000025
7,20,39,1,9,5.149999999999935,9,23,63,35,25,7,5.209999999999934,0.37000000000000016,0.6100000000000003,2.5499999999999896,10,3,3,6,24,3,3,7,4,0,20,7,HL,0.21708333333333343,0.12333333333333338,0.20333333333333342,0.3642857142857145
7,20,40,1,5,8.969999999999853,13,33,109,22,43,54,10.429999999999854,1.360000000000001,0.13999999999999999,2.3699999999999934,17,3,1,4,39,3,1,6,5,0,17,7,HL,0.26743589743589735,0.4533333333333336,0.13999999999999999,0.39500000000000024
8,1,1,0,7,5.37999999999993,5,12,19,21,45,81,5.52999999999993,0.7200000000000004,1.9000000000000015,5.269999999999932,7,3,2,5,14,3,2,7,6,0,20,7,HL,0.39500000000000024,0.2400000000000001,0.9500000000000006,0.7528571428571424
8,1,2,0,9,4.579999999999947,5,11,12,7,62,5,6.97999999999994,1.310000000000001,2.020000000000001,1.1200000000000008,10,2,4,3,17,2,5,3,4,0.5,22,7,HL,0.4105882352941176,0.6550000000000004,0.40400000000000025,0.3733333333333335
8,2,3,0,6,0.8800000000000006,3,6,2,57,43,87,0.8900000000000006,1.290000000000001,1.5500000000000012,0.7300000000000004,4,3,3,1,7,3,4,1,6,0,18,7,HL,0.12714285714285717,0.43000000000000016,0.3875000000000002,0.7300000000000004
8,2,4,0,9,1.5300000000000011,3,6,62,19,70,78,2.2400000000000015,3.3999999999999715,0.09,0.18000000000000002,6,3,1,1,9,6,1,1,4,0,17,7,HL,0.248888888888889,0.566666666666667,0.09,0.18000000000000002
8,3,5,0,10,5.139999999999935,6,11,50,94,52,4,5.259999999999935,2.569999999999989,0.19000000000000003,0.23000000000000007,7,5,1,2,12,6,1,2,3,0,17,7,HL,0.43833333333333363,0.42833333333333357,0.19000000000000003,0.11500000000000002
8,3,6,0,7,6.489999999999906,7,16,42,81,65,75,7.279999999999907,0.8400000000000005,0.6600000000000004,0.47000000000000025,8,1,1,1,17,1,1,1,6,0,15,7,HL,0.4282352941176473,0.8400000000000005,0.6600000000000004,0.47000000000000025
8,4,7,0,1,1.420000000000001,3,8,15,68,19,76,5.209999999999964,0.15,0.4100000000000002,0.6600000000000004,7,1,1,2,13,1,1,2,3,0,19,7,HL,0.400769230769231,0.15,0.4100000000000002,0.3300000000000001
8,4,8,0,3,1.1400000000000008,9,12,54,86,11,6,1.600000000000001,1.9200000000000015,0.2700000000000001,0.2700000000000001,10,4,1,1,13,7,1,1,5,0,19,7,HL,0.1230769230769231,0.2742857142857144,0.2700000000000001,0.2700000000000001
8,5,9,0,8,1.1500000000000008,3,6,71,72,116,40,1.710000000000001,0.4300000000000002,2.3799999999999932,0.6100000000000003,4,1,5,1,7,1,7,1,2,0,15,7,HL,0.24428571428571438,0.4300000000000002,0.3400000000000002,0.6100000000000003
8,5,10,0,2,1.330000000000001,13,15,23,19,21,85,6.169999999999942,3.3499999999999726,6.839999999999899,0.01,20,6,8,1,26,8,9,1,4,0.5,21,7,HL,0.23730769230769241,0.41875000000000023,0.7599999999999998,0.01
8,6,11,0,5,3.049999999999979,4,9,40,4,79,52,3.7499999999999796,8.359999999999866,0.03,0.8100000000000005,6,8,1,2,11,10,1,3,5,0,18,7,HL,0.34090909090909105,0.8360000000000005,0.03,0.27000000000000013
8,6,12,0,10,2.9199999999999817,4,11,24,93,86,65,3.609999999999982,2.020000000000001,3.649999999999966,13.239999999999762,5,3,5,11,12,3,5,16,3,0,16,7,HL,0.30083333333333345,0.6733333333333338,0.7299999999999975,0.8274999999999998
8,7,13,1,8,0.5400000000000003,7,8,1,2,37,120,24.000000000000867,51.67999999999829,0.01,0.01,20,19,1,1,46,60,1,1,2,0,19,7,HL,0.5217391304347819,0.8613333333333323,0.01,0.01
8,7,14,1,4,1.9100000000000015,3,6,64,99,86,100,2.6300000000000017,0.26000000000000006,0.5700000000000003,0.6100000000000003,4,1,1,2,7,1,1,2,2,0,11,7,HL,0.37571428571428594,0.26000000000000006,0.5700000000000003,0.3050000000000001
8,8,15,1,9,8.399999999999865,8,15,96,90,66,109,9.029999999999866,3.3099999999999734,0.6500000000000004,0.26000000000000006,11,8,2,1,18,9,2,1,4,0,12,7,HL,0.5016666666666648,0.3677777777777779,0.3250000000000001,0.26000000000000006
8,8,16,1,5,6.7799999999999,6,19,38,97,41,58,7.8499999999999,1.2000000000000008,0.46000000000000024,0.9900000000000007,9,3,2,2,22,3,2,2,5,0,16,7,HL,0.356818181818182,0.4000000000000002,0.23000000000000004,0.4950000000000002
8,9,17,1,7,1.7100000000000013,3,7,13,16,92,19,1.7400000000000013,0.34000000000000014,0.6200000000000003,1.8700000000000014,4,1,1,3,8,1,1,3,6,0.5,39,7,HL,0.2175000000000001,0.34000000000000014,0.6200000000000003,0.6233333333333337
8,9,18,1,2,3.8299999999999623,15,20,56,107,57,33,5.0899999999999634,0.20000000000000004,1.9100000000000015,0.6000000000000003,17,2,3,1,22,2,3,1,4,0,15,7,HL,0.2313636363636362,0.1,0.636666666666667,0.6000000000000003
8,10,19,1,10,1.9000000000000015,11,14,13,36,62,99,15.699999999999752,1.9300000000000015,0.08,3.0699999999999785,20,6,1,2,36,6,1,2,3,0,17,7,HL,0.43611111111111095,0.3216666666666668,0.08,1.5349999999999895
8,10,20,1,5,2.6499999999999875,8,12,39,40,1,5,3.0199999999999876,4.349999999999952,1.9400000000000015,2.06,10,2,5,4,14,2,6,4,5,0,22,7,HL,0.21571428571428583,2.174999999999978,0.3233333333333335,0.5150000000000002
8,11,21,1,4,3.8699999999999615,4,11,31,103,18,55,7.279999999999933,0.5200000000000002,0.46000000000000024,0.37000000000000016,12,2,2,1,21,2,2,1,2,0,17,7,HL,0.34666666666666685,0.26000000000000006,0.2300000000000001,0.37000000000000016
8,11,22,1,6,0.8800000000000006,6,6,1,47,116,46,1.8100000000000012,0.9000000000000006,2.159999999999998,2.5599999999999894,7,2,5,3,7,3,7,3,6,0,18,7,HL,0.2585714285714287,0.30000000000000016,0.3085714285714287,0.8533333333333305
8,12,23,1,2,3.4999999999999694,4,12,24,55,36,23,5.319999999999971,2.099999999999999,1.7100000000000013,0.19000000000000003,7,4,2,1,15,4,2,1,4,0,21,7,HL,0.35466666666666685,0.5250000000000002,0.8550000000000005,0.19000000000000003
8,12,24,1,9,3.1999999999999758,3,13,62,69,38,43,3.279999999999976,0.10999999999999999,0.47000000000000025,0.36000000000000015,5,1,1,1,15,1,1,1,4,0,18,7,HL,0.21866666666666676,0.10999999999999999,0.47000000000000025,0.36000000000000015
8,13,25,1,5,1.300000000000001,3,6,48,21,42,15,1.730000000000001,0.7200000000000004,0.2700000000000001,0.7200000000000004,5,1,1,2,8,1,1,2,5,0,22,7,HL,0.21625000000000005,0.7200000000000004,0.2700000000000001,0.36000000000000015
8,13,26,1,10,1.5800000000000012,9,11,96,66,110,67,2.0500000000000016,1.7900000000000014,1.400000000000001,0.03,10,2,2,1,12,2,3,1,3,0,13,7,HL,0.1708333333333334,0.8950000000000006,0.46666666666666695,0.03
8,14,27,1,7,2.6599999999999873,3,7,13,19,53,29,6.879999999999942,1.2000000000000008,0.09999999999999999,2.3199999999999945,7,2,1,3,12,2,1,4,6,0,21,7,HL,0.5733333333333326,0.6000000000000004,0.09999999999999999,0.5800000000000004
8,14,28,1,10,2.909999999999982,11,16,68,66,3,48,3.419999999999982,2.53999999999999,0.5500000000000003,0.21000000000000005,13,5,2,2,19,5,2,2,3,0,19,7,HL,0.18000000000000005,0.5080000000000002,0.2750000000000001,0.10499999999999998
8,15,29,1,5,3.659999999999966,3,5,67,64,65,41,3.939999999999966,0.21000000000000005,0.21000000000000005,1.7000000000000013,4,1,1,3,6,1,1,4,5,0.5,29,7,HL,0.6566666666666671,0.21000000000000005,0.21000000000000005,0.42500000000000027
8,15,30,1,1,1.8100000000000014,14,16,74,31,3,118,2.1100000000000017,3.0599999999999787,0.22000000000000006,0.11999999999999998,15,7,1,1,17,8,1,1,3,0,16,7,HL,0.12411764705882355,0.3825000000000002,0.22000000000000006,0.11999999999999998
8,16,31,1,1,2.99999999999998,6,12,73,115,4,1,5.419999999999972,0.4200000000000002,0.25000000000000006,0.9100000000000006,9,2,1,2,15,2,1,2,3,0,17,7,HL,0.3613333333333332,0.21000000000000005,0.25000000000000006,0.45500000000000024
8,16,32,1,2,2.959999999999981,8,18,96,98,90,55,3.6299999999999812,2.52999999999999,0.26000000000000006,1.1500000000000008,9,2,1,3,19,2,1,3,4,0,12,7,HL,0.19105263157894745,1.265000000000001,0.26000000000000006,0.3833333333333335
8,17,33,1,5,4.319999999999952,3,12,99,43,57,55,4.459999999999952,0.26000000000000006,1.420000000000001,0.2900000000000001,5,1,4,1,15,1,6,1,5,0,15,7,HL,0.2973333333333335,0.26000000000000006,0.23666666666666672,0.2900000000000001
8,17,34,1,9,2.5999999999999885,7,11,64,65,117,88,2.6099999999999883,0.8700000000000006,6.31999999999991,4.389999999999951,8,2,7,4,12,2,9,5,4,0,13,7,HL,0.21750000000000008,0.4350000000000003,0.7022222222222226,0.8779999999999979
8,18,35,1,10,0.5100000000000002,7,7,108,6,28,27,5.359999999999941,5.979999999999917,0.01,0.05,14,7,1,1,16,9,1,1,3,0,18,7,HL,0.3350000000000002,0.6644444444444447,0.01,0.05
8,18,36,1,8,2.439999999999992,6,9,114,75,77,66,3.649999999999993,2.9699999999999807,4.749999999999943,4.589999999999947,8,6,6,3,12,6,7,3,2,0,12,7,HL,0.3041666666666668,0.4950000000000002,0.6785714285714289,1.5299999999999943
8,19,37,1,3,5.8599999999999195,10,19,71,67,32,85,7.599999999999921,1.270000000000001,0.21000000000000005,2.6999999999999864,14,2,3,4,23,2,3,6,5,0,16,7,HL,0.33043478260869585,0.6350000000000003,0.06999999999999999,0.4500000000000003
8,19,38,1,2,1.5100000000000011,6,10,1,46,109,83,17.419999999999707,0.01,0.01,0.01,19,1,1,1,28,1,1,1,4,0,16,7,HL,0.6221428571428562,0.01,0.01,0.01
8,20,39,1,10,3.839999999999962,6,10,90,115,112,4,4.359999999999962,0.34000000000000014,1.0200000000000007,2.8899999999999824,8,1,2,3,12,1,2,4,3,0,13,7,HL,0.36333333333333356,0.34000000000000014,0.5100000000000002,0.7225000000000005
8,20,40,1,3,2.1699999999999977,9,19,27,31,103,82,2.3199999999999976,0.4300000000000002,0.46000000000000024,1.7100000000000013,10,1,2,5,20,1,2,6,5,0,15,7,HL,0.116,0.4300000000000002,0.23000000000000007,0.2850000000000001
9,1,1,0,1,1.6200000000000012,2,22,82,79,81,76,4.159999999999991,1.8000000000000014,2.3799999999999932,0.08,9,6,9,2,41,19,16,3,3,1,36,7,HL,0.10146341463414636,0.09473684210526316,0.14875000000000002,0.02666666666666667
9,1,2,0,6,0.8700000000000006,2,10,50,11,12,8,5.439999999999948,1.6200000000000012,0.36000000000000015,0.5500000000000003,8,7,3,3,50,15,3,3,6,0.5,22,7,HL,0.10880000000000001,0.10800000000000001,0.12000000000000001,0.18333333333333338
9,2,3,0,4,1.1500000000000008,2,11,100,102,98,9,4.079999999999982,0.47000000000000025,0.9700000000000006,1.8000000000000014,9,3,5,8,40,6,8,14,2,0.5,12,7,HL,0.10200000000000001,0.07833333333333334,0.12125000000000001,0.1285714285714286
9,2,4,0,8,0.5100000000000002,2,6,113,93,52,91,3.4499999999999815,1.5700000000000012,0.35000000000000014,0.37000000000000016,5,4,2,2,36,7,5,5,2,0,12,7,HL,0.09583333333333335,0.22428571428571437,0.07,0.07400000000000001
9,3,5,0,3,1.1700000000000008,2,15,29,34,31,11,4.0699999999999825,0.8000000000000005,0.5300000000000002,1.2300000000000009,8,4,2,6,41,7,7,12,5,0.5,21,7,HL,0.09926829268292683,0.1142857142857143,0.0757142857142857,0.10250000000000001
9,3,6,0,5,0.9600000000000006,2,13,46,85,91,39,3.4799999999999907,2.719999999999986,0.18000000000000002,0.03,6,10,1,1,34,29,1,1,5,0,16,7,HL,0.1023529411764706,0.09379310344827588,0.18000000000000002,0.03
9,4,7,0,10,1.6200000000000012,2,20,95,88,89,40,5.349999999999966,1.9600000000000015,0.09,0.21000000000000005,12,9,2,3,55,20,2,3,3,0.5,14,7,HL,0.09727272727272729,0.09800000000000002,0.045,0.07
9,4,8,0,1,0.8400000000000005,7,17,75,52,4,36,4.979999999999957,1.1200000000000008,0.17,0.8900000000000006,15,5,2,3,47,16,2,6,3,0,18,7,HL,0.10595744680851066,0.07,0.08499999999999999,0.14833333333333337
9,5,9,0,3,1.9500000000000015,2,21,3,92,89,85,6.4999999999999485,0.18000000000000002,0.2700000000000001,0.10999999999999999,7,1,2,2,53,1,5,2,5,0.5,15,7,HL,0.12264150943396228,0.18000000000000002,0.054,0.055
9,5,10,0,8,1.1000000000000008,2,11,110,119,55,46,3.66999999999999,0.7400000000000004,2.7799999999999847,0.17,4,3,6,3,41,9,19,3,2,0,13,7,HL,0.08951219512195122,0.08222222222222221,0.14631578947368423,0.05666666666666666
9,6,11,0,10,1.1900000000000008,2,13,87,40,93,86,5.20999999999996,0.6800000000000004,0.5200000000000002,0.10999999999999999,13,4,6,1,46,6,10,1,3,0.5,14,7,HL,0.11326086956521741,0.11333333333333334,0.052,0.10999999999999999
9,6,12,0,9,2.010000000000001,19,40,67,10,5,83,4.739999999999987,1.6400000000000012,0.21000000000000005,0.6400000000000003,20,5,1,3,66,17,1,6,4,0,19,7,HL,0.07181818181818182,0.09647058823529411,0.21000000000000005,0.10666666666666666
9,7,13,1,3,1.0400000000000007,4,9,36,77,112,62,3.4299999999999935,1.5200000000000011,0.7000000000000004,0.48000000000000026,9,4,2,2,33,13,3,3,5,0,14,7,HL,0.10393939393939396,0.11692307692307695,0.2333333333333334,0.16000000000000003
9,7,14,1,7,0.9600000000000006,10,14,86,42,22,45,4.949999999999959,0.7500000000000004,1.1500000000000008,0.8700000000000006,15,2,4,3,41,13,7,6,6,0,19,7,HL,0.1207317073170732,0.057692307692307696,0.16428571428571434,0.14500000000000002
9,8,15,1,7,1.8200000000000014,2,20,73,68,78,66,6.669999999999942,0.16,0.09,0.45000000000000023,9,1,1,2,59,1,1,8,6,0,14,7,HL,0.11305084745762713,0.16,0.09,0.05625
9,8,16,1,10,1.1700000000000008,2,12,89,4,57,87,5.499999999999953,1.5700000000000012,0.16,0.20000000000000004,13,6,2,3,43,17,3,3,3,0,16,7,HL,0.12790697674418608,0.0923529411764706,0.05333333333333332,0.06666666666666667
9,9,17,1,6,0.7800000000000005,2,10,3,2,11,49,2.2500000000000018,4.149999999999956,0.03,0.46000000000000024,5,8,1,6,20,34,1,6,6,0.5,40,7,HL,0.11250000000000002,0.12205882352941179,0.03,0.07666666666666667
9,9,18,1,1,0.5100000000000002,3,3,117,14,73,69,9.699999999999848,0.01,0.01,0.11999999999999998,20,1,1,1,92,1,1,1,3,0,15,7,HL,0.10543478260869567,0.01,0.01,0.11999999999999998
9,10,19,1,7,0.7000000000000004,12,16,50,54,60,92,5.469999999999943,0.15,1.7500000000000013,2.0000000000000013,20,1,9,12,51,1,16,19,6,0.5,27,7,HL,0.10725490196078433,0.15,0.10937500000000001,0.10526315789473686
9,10,20,1,9,0.7300000000000004,2,5,44,2,63,83,5.18999999999995,4.979999999999938,1.1800000000000008,0.01,10,11,12,1,45,39,18,1,4,0,18,7,HL,0.11533333333333336,0.12769230769230772,0.06555555555555556,0.01
9,11,21,1,10,1.500000000000001,2,18,3,85,90,87,5.96999999999995,0.05,0.060000000000000005,0.5600000000000003,13,1,1,3,48,1,1,3,3,0.5,24,7,HL,0.12437500000000001,0.05,0.060000000000000005,0.1866666666666667
9,11,22,1,7,1.2000000000000008,2,10,15,13,59,21,3.529999999999995,4.90999999999994,0.03,0.02,7,10,1,1,32,35,1,1,6,0.5,40,7,HL,0.11031250000000002,0.14028571428571432,0.03,0.02
9,12,23,1,8,1.5300000000000011,16,26,109,20,81,78,5.06999999999997,0.7200000000000004,0.38000000000000017,0.18000000000000002,20,3,2,1,49,4,4,2,2,0,14,7,HL,0.10346938775510206,0.18000000000000005,0.095,0.09
9,12,24,1,10,1.0400000000000007,2,11,7,89,51,10,5.169999999999957,0.11999999999999998,0.7500000000000004,0.49000000000000027,9,1,4,2,44,1,7,5,3,0,19,7,HL,0.11750000000000002,0.11999999999999998,0.10714285714285715,0.09799999999999999
9,13,25,1,3,1.5600000000000012,2,17,11,2,7,100,5.339999999999964,0.7300000000000004,4.43999999999995,0.09,8,2,12,1,53,9,34,2,5,0.5,38,7,HL,0.10075471698113209,0.0811111111111111,0.13058823529411767,0.045
9,13,26,1,7,1.0700000000000007,8,16,94,21,19,115,5.559999999999949,0.5600000000000003,0.21000000000000005,0.4000000000000002,17,3,2,3,48,4,4,5,6,0,17,7,HL,0.11583333333333334,0.14,0.052500000000000005,0.07999999999999999
9,14,27,1,4,0.6000000000000003,2,8,102,103,16,98,4.669999999999958,0.2700000000000001,0.38000000000000017,0.3900000000000002,10,2,1,2,41,2,2,6,2,0.5,18,7,HL,0.11390243902439026,0.135,0.19000000000000003,0.065
9,14,28,1,2,1.0500000000000007,16,20,5,3,6,111,6.789999999999923,0.09,1.290000000000001,0.5000000000000002,20,2,3,5,71,2,20,7,4,0.5,38,7,HL,0.09563380281690143,0.045,0.0645,0.07142857142857142
9,15,29,1,1,0.7300000000000004,2,8,73,9,60,53,3.329999999999989,3.1699999999999764,0.15,0.3200000000000001,5,9,1,2,36,33,1,2,3,0,17,7,HL,0.09250000000000001,0.09606060606060607,0.15,0.16000000000000003
9,15,30,1,9,0.8600000000000005,2,13,96,67,71,91,4.519999999999967,0.4200000000000002,0.34000000000000014,0.36000000000000015,9,2,3,3,44,4,6,6,4,0,14,7,HL,0.10272727272727274,0.10500000000000001,0.05666666666666667,0.06
9,16,31,1,3,0.9300000000000006,11,15,28,30,32,26,3.4099999999999917,1.8500000000000014,0.24000000000000007,0.09999999999999999,14,4,3,2,40,21,3,2,5,1,60,7,HL,0.08525,0.08809523809523809,0.07999999999999999,0.05
9,16,32,1,8,1.0800000000000007,2,13,23,62,22,16,5.979999999999941,0.15,2.8399999999999834,0.7400000000000004,13,1,10,5,55,1,24,5,2,0.5,40,7,HL,0.10872727272727274,0.15,0.11833333333333336,0.14800000000000005
9,17,33,1,5,1.0500000000000007,12,15,39,23,119,14,3.5099999999999922,2.109999999999999,0.8700000000000006,0.19000000000000003,16,5,3,2,36,21,8,4,5,0,19,7,HL,0.09750000000000002,0.1004761904761905,0.10875000000000001,0.0475
9,17,34,1,3,1.0500000000000007,2,11,34,61,7,26,5.229999999999956,1.290000000000001,0.15,0.6800000000000004,8,4,2,4,52,13,2,10,5,0,20,7,HL,0.10057692307692309,0.09923076923076925,0.07500000000000001,0.06799999999999999
9,18,35,1,9,0.4100000000000002,7,7,13,65,85,61,5.159999999999943,0.46000000000000024,0.35000000000000014,0.4200000000000002,20,3,2,2,51,3,2,2,4,0,17,7,HL,0.1011764705882353,0.15333333333333335,0.17500000000000004,0.21000000000000008
9,18,36,1,1,0.37000000000000016,4,5,114,73,4,119,5.359999999999938,0.3900000000000002,0.20000000000000004,0.16,9,4,2,2,45,5,2,2,3,0,13,7,HL,0.11911111111111113,0.07800000000000001,0.09999999999999999,0.08
9,19,37,1,8,1.440000000000001,2,16,119,60,57,52,4.02999999999999,1.7000000000000013,0.8100000000000005,0.49000000000000027,6,4,2,4,41,10,10,4,2,0.5,26,7,HL,0.09829268292682929,0.17000000000000004,0.081,0.1225
9,19,38,1,4,0.9000000000000006,15,18,71,82,103,6,6.3999999999999275,0.7000000000000004,0.7000000000000004,0.46000000000000024,20,4,4,2,60,6,9,2,2,0,15,7,HL,0.10666666666666669,0.11666666666666668,0.07777777777777778,0.23000000000000012
9,20,39,1,2,2.1299999999999986,16,27,118,58,115,3,5.629999999999968,0.7100000000000004,0.5300000000000002,0.18000000000000002,19,3,2,2,61,6,5,4,4,0,14,7,HL,0.09229508196721312,0.11833333333333335,0.10600000000000001,0.045
9,20,40,1,4,0.9000000000000006,2,11,103,101,108,64,3.1099999999999977,1.420000000000001,0.23000000000000007,1.460000000000001,7,4,1,6,27,14,1,13,2,0.5,16,7,HL,0.11518518518518521,0.10142857142857142,0.23000000000000007,0.11230769230769232
9,21,41,1,10,0.8400000000000005,4,8,111,49,5,53,3.6499999999999844,1.6200000000000012,0.3100000000000001,0.46000000000000024,12,4,2,2,33,11,4,7,3,0,16,7,HL,0.11060606060606062,0.1472727272727273,0.0775,0.06571428571428571
9,21,42,1,1,1.1400000000000008,2,12,81,66,103,22,6.1799999999999375,1.6000000000000012,1.0900000000000007,0.17,17,7,5,2,58,18,12,4,3,0,15,7,HL,0.10655172413793104,0.08888888888888889,0.09083333333333334,0.042499999999999996
10,1,1,0,8,1.2400000000000009,2,13,57,112,50,119,10.099999999999856,0.3900000000000002,0.34000000000000014,0.4200000000000002,17,2,2,2,59,3,2,6,2,0,12,7,HL,0.17118644067796615,0.13,0.17000000000000004,0.06999999999999999
10,1,2,0,3,1.8700000000000014,18,26,31,28,30,27,7.619999999999923,3.4999999999999694,2.5999999999999885,0.10999999999999999,20,13,9,2,70,25,25,2,5,1,60,7,HL,0.10885714285714287,0.14000000000000004,0.10400000000000002,0.05500000000000001
10,2,3,0,4,1.8100000000000014,2,14,103,105,108,100,10.749999999999854,0.4400000000000002,0.3300000000000001,0.15,18,3,2,1,68,3,2,1,2,1,24,7,HL,0.1580882352941177,0.14666666666666667,0.165,0.15
10,2,4,0,1,2.1299999999999986,13,23,78,53,83,84,8.39999999999991,1.7900000000000014,1.0100000000000007,1.5900000000000012,20,9,5,8,69,11,7,17,3,0.5,13,7,HL,0.12173913043478263,0.16272727272727278,0.14428571428571432,0.09352941176470589
10,3,5,0,4,2.3199999999999945,2,23,102,98,106,83,8.709999999999903,3.319999999999973,1.9100000000000015,0.4200000000000002,18,9,7,1,65,23,13,1,2,0.5,9,7,HL,0.13400000000000004,0.14434782608695657,0.14692307692307696,0.4200000000000002
10,3,6,0,2,0.6300000000000003,7,8,24,58,119,115,28.350000000001533,0.07,0.01,0.34000000000000014,20,2,1,3,180,2,1,5,4,0,14,7,HL,0.15750000000000003,0.035,0.01,0.06800000000000002
10,4,7,0,8,1.6300000000000012,2,17,113,116,114,54,10.32999999999986,0.5400000000000003,0.3100000000000001,4.299999999999953,16,3,2,10,70,4,2,26,2,0.5,10,7,HL,0.1475714285714286,0.135,0.15500000000000003,0.1653846153846154
10,4,8,0,1,0.6000000000000003,2,7,81,73,75,21,11.209999999999818,1.0200000000000007,1.1300000000000008,0.6700000000000004,20,5,7,3,82,7,13,4,3,0.5,15,7,HL,0.13670731707317077,0.14571428571428574,0.08692307692307694,0.16750000000000004
10,5,9,0,9,1.7200000000000013,2,13,62,64,67,66,10.43999999999986,3.649999999999966,1.430000000000001,1.6600000000000013,19,11,7,6,76,30,12,8,4,1,48,7,HL,0.1373684210526316,0.12166666666666669,0.11916666666666668,0.20750000000000007
10,5,10,0,1,0.6700000000000004,5,6,78,77,82,79,8.279999999999882,4.6399999999999455,0.03,1.390000000000001,19,7,1,6,57,28,1,13,3,1,36,7,HL,0.14526315789473687,0.16571428571428576,0.03,0.10692307692307694
10,6,11,0,5,0.5400000000000003,9,9,42,47,20,37,6.549999999999916,4.559999999999947,2.1799999999999975,2.6899999999999866,20,13,9,7,43,32,15,15,5,0.5,21,7,HL,0.15232558139534888,0.14250000000000002,0.14533333333333337,0.17933333333333337
10,6,12,0,2,0.3300000000000001,6,6,3,9,83,57,20.65000000000038,0.04,0.03,0.01,20,1,1,1,161,1,1,1,4,0,19,7,HL,0.12826086956521743,0.04,0.03,0.01
10,7,13,1,4,0.8400000000000005,3,11,102,103,107,106,9.03999999999987,0.9700000000000006,1.410000000000001,3.419999999999971,17,5,5,11,74,5,7,17,2,1,24,7,HL,0.12216216216216219,0.19400000000000003,0.2014285714285715,0.20117647058823537
10,7,14,1,8,2.0000000000000013,2,19,120,57,115,117,9.519999999999886,1.0800000000000007,1.370000000000001,1.1400000000000008,15,2,5,5,66,5,7,11,2,0.5,16,7,HL,0.14424242424242428,0.21600000000000008,0.19571428571428576,0.10363636363636364
10,8,15,1,5,0.9400000000000006,11,13,47,19,53,49,8.26999999999989,6.169999999999913,0.6900000000000004,2.7499999999999853,20,12,6,9,65,47,6,29,5,0,19,7,HL,0.12723076923076926,0.13127659574468087,0.11500000000000002,0.09482758620689657
10,8,16,1,1,1.1100000000000008,2,10,112,80,82,11,12.079999999999812,0.7900000000000005,0.34000000000000014,0.7100000000000004,18,4,2,8,91,5,3,9,3,0,14,7,HL,0.13274725274725277,0.15800000000000003,0.11333333333333331,0.0788888888888889
10,9,17,1,3,0.5900000000000003,2,5,27,31,3,10,7.049999999999907,2.4099999999999926,4.949999999999939,0.08,14,6,13,1,43,26,33,1,5,0,22,7,HL,0.16395348837209306,0.0926923076923077,0.15000000000000002,0.08
10,9,18,1,8,0.48000000000000026,6,6,22,40,114,37,16.499999999999705,0.02,0.13999999999999999,0.7100000000000004,20,1,2,5,114,1,2,9,2,0,18,7,HL,0.1447368421052632,0.02,0.07,0.0788888888888889
10,10,19,1,1,2.0400000000000005,5,12,37,12,84,73,13.499999999999801,0.20000000000000004,0.18000000000000002,1.1900000000000008,20,1,2,4,93,1,2,7,3,0,17,7,HL,0.14516129032258068,0.20000000000000004,0.09,0.17000000000000004
10,10,20,1,3,1.2000000000000008,4,15,25,116,18,32,9.179999999999875,0.7100000000000004,0.4100000000000002,0.9800000000000006,17,3,2,3,68,6,2,9,5,0,18,7,HL,0.13500000000000004,0.11833333333333335,0.20500000000000004,0.10888888888888888
10,11,21,1,5,2.109999999999999,3,14,84,46,47,109,9.659999999999883,0.38000000000000017,0.9800000000000006,0.7000000000000004,15,3,4,3,65,3,6,8,5,0,15,7,HL,0.14861538461538465,0.1266666666666667,0.16333333333333336,0.08750000000000002
10,11,22,1,4,1.450000000000001,10,12,13,15,29,17,13.059999999999798,0.5200000000000002,0.3300000000000001,0.060000000000000005,20,4,2,2,93,7,3,3,2,0.5,41,7,HL,0.14043010752688176,0.0742857142857143,0.11000000000000001,0.02
10,12,23,1,5,2.3699999999999934,5,22,110,39,15,14,11.339999999999847,1.310000000000001,1.9200000000000015,0.9800000000000006,20,6,9,4,73,14,14,6,5,0,19,7,HL,0.1553424657534247,0.09357142857142857,0.13714285714285718,0.16333333333333336
10,12,24,1,4,0.19000000000000003,3,3,1,107,57,55,21.03000000000046,0.01,0.03,0.01,20,1,2,1,130,1,2,1,2,0,16,7,HL,0.1617692307692308,0.01,0.015,0.01
10,13,25,1,4,0.8700000000000006,6,8,104,52,100,54,7.659999999999901,2.669999999999987,0.6800000000000004,0.48000000000000026,19,6,3,2,67,16,3,2,2,0,12,7,HL,0.11432835820895523,0.16687500000000002,0.2266666666666667,0.24000000000000005
10,13,26,1,9,1.1300000000000008,3,9,61,14,66,109,10.889999999999837,0.8100000000000005,0.22000000000000006,0.13999999999999999,19,3,3,1,81,6,4,1,4,0,16,7,HL,0.13444444444444448,0.135,0.055,0.13999999999999999
10,14,27,1,4,1.7600000000000013,2,25,104,19,17,21,6.029999999999955,3.4499999999999704,0.7500000000000004,0.2800000000000001,11,7,2,2,56,27,6,2,2,0.5,38,7,HL,0.10767857142857144,0.1277777777777778,0.12500000000000003,0.14
10,14,28,1,3,2.289999999999995,15,26,11,119,117,30,11.839999999999836,0.24000000000000007,0.13999999999999999,0.16,20,2,1,2,103,2,1,2,5,0,15,7,HL,0.11495145631067963,0.12,0.13999999999999999,0.07999999999999999
10,15,29,1,9,1.320000000000001,10,14,13,18,83,19,8.879999999999884,0.5200000000000002,0.8800000000000006,0.3100000000000001,20,4,3,2,64,4,5,2,4,0.5,39,7,HL,0.13875000000000004,0.13,0.17600000000000007,0.15500000000000003
10,15,30,1,6,0.6500000000000004,2,3,110,6,7,39,10.379999999999837,1.5100000000000011,3.2999999999999736,0.07,12,6,10,1,65,11,26,1,6,0,19,7,HL,0.15969230769230774,0.1372727272727273,0.12692307692307694,0.07
10,16,31,1,1,1.380000000000001,8,14,82,18,13,24,8.929999999999884,1.7800000000000014,1.6800000000000013,0.25000000000000006,20,6,5,2,65,12,10,3,3,0.5,39,7,HL,0.1373846153846154,0.14833333333333334,0.168,0.08333333333333333
10,16,32,1,6,0.9500000000000006,2,10,119,115,9,2,8.099999999999893,0.7500000000000004,1.6200000000000012,2.869999999999983,14,5,4,11,63,6,12,31,6,0,16,7,HL,0.1285714285714286,0.12500000000000003,0.13500000000000004,0.09258064516129033
10,17,33,1,6,1.8100000000000014,18,28,99,5,83,74,11.859999999999832,0.15,0.6400000000000003,0.3000000000000001,20,1,4,1,85,1,4,1,6,0,14,7,HL,0.1395294117647059,0.15,0.16000000000000003,0.3000000000000001
10,17,34,1,7,2.3199999999999945,13,26,17,109,120,13,12.719999999999818,0.8400000000000005,0.8400000000000005,2.399999999999993,20,3,3,6,97,12,7,12,6,0,16,7,HL,0.13113402061855672,0.07,0.12000000000000004,0.2000000000000001
10,18,35,1,9,1.370000000000001,2,12,68,106,13,24,10.319999999999855,0.3000000000000001,0.2700000000000001,0.6000000000000003,13,1,2,3,74,1,2,5,4,0,18,7,HL,0.13945945945945948,0.3000000000000001,0.135,0.12000000000000002
10,18,36,1,2,1.5100000000000011,2,19,111,5,6,55,9.629999999999873,0.8600000000000005,0.5600000000000003,0.16,14,4,3,1,79,5,7,1,4,0,18,7,HL,0.12189873417721521,0.17200000000000001,0.08,0.16
10,19,37,1,7,1.300000000000001,4,8,16,48,56,23,16.23999999999973,1.480000000000001,0.09999999999999999,0.4300000000000002,20,6,1,3,112,9,1,3,6,0,21,7,HL,0.14500000000000005,0.16444444444444448,0.09999999999999999,0.1433333333333334
10,19,38,1,9,0.8700000000000006,6,7,5,3,63,34,11.189999999999825,3.2499999999999747,0.7500000000000004,0.7500000000000004,20,11,3,1,72,33,5,1,4,0,21,7,HL,0.1554166666666667,0.0984848484848485,0.15000000000000002,0.7500000000000004
11,1,1,0,1,2.849999999999983,2,68,53,74,51,79,7.599999999999927,1.500000000000001,0.09,0.6400000000000003,14,9,1,6,155,27,1,11,3,0,14,7,HL,0.04903225806451613,0.05555555555555555,0.09,0.05818181818181819
11,1,2,0,10,1.0700000000000007,2,17,91,86,93,90,5.819999999999943,0.9000000000000006,0.20000000000000004,1.2100000000000009,20,3,3,12,92,18,7,22,3,1,36,7,HL,0.0632608695652174,0.049999999999999996,0.02857142857142857,0.055
11,2,3,0,8,1.490000000000001,2,34,113,117,111,93,5.3399999999999626,0.7200000000000004,1.8000000000000014,1.0000000000000007,9,4,6,9,101,15,41,14,2,0.5,9,7,HL,0.05287128712871287,0.048,0.04390243902439024,0.07142857142857144
11,2,4,0,5,2.1199999999999988,2,39,48,46,58,47,6.589999999999948,1.0000000000000007,0.7000000000000004,0.04,7,2,4,2,123,21,11,3,5,0.5,19,7,HL,0.05357723577235772,0.047619047619047616,0.06363636363636363,0.013333333333333334
11,3,5,0,5,2.020000000000001,2,41,39,46,47,85,4.5699999999999905,1.350000000000001,1.380000000000001,2.099999999999999,6,4,6,9,88,21,26,35,5,0.5,18,7,HL,0.05193181818181818,0.0642857142857143,0.05307692307692308,0.06
11,3,6,0,3,2.199999999999997,2,43,29,58,32,33,5.149999999999978,1.1900000000000008,1.290000000000001,0.8600000000000005,7,2,3,5,120,21,29,18,5,0.5,19,7,HL,0.042916666666666665,0.056666666666666664,0.04448275862068966,0.04777777777777778
11,4,7,0,2,2.010000000000001,2,39,55,59,57,91,5.089999999999979,1.8200000000000014,1.8600000000000014,1.290000000000001,4,4,6,7,107,28,46,25,4,0.5,15,7,HL,0.04757009345794393,0.065,0.04043478260869565,0.0516
11,4,8,0,3,1.6200000000000012,2,41,36,84,27,33,6.749999999999936,1.490000000000001,0.16,0.03,11,10,2,1,146,33,6,1,5,0.5,18,7,HL,0.046232876712328765,0.04515151515151515,0.02666666666666667,0.03
11,5,9,0,10,1.6600000000000013,2,29,91,90,92,87,6.2099999999999485,1.1600000000000008,0.6200000000000003,0.9000000000000006,5,4,6,11,124,26,11,15,3,1,36,7,HL,0.05008064516129032,0.04461538461538462,0.056363636363636366,0.060000000000000005
11,5,10,0,7,1.1300000000000008,2,23,17,31,73,49,4.919999999999964,5.649999999999924,0.01,0.4000000000000002,7,11,1,4,96,116,1,8,6,0,18,7,HL,0.05125,0.04870689655172414,0.01,0.05
11,6,11,0,7,2.2699999999999956,2,49,21,19,110,15,5.619999999999968,2.2699999999999956,4.599999999999946,0.060000000000000005,6,5,17,2,119,46,95,3,6,0.5,20,7,HL,0.04722689075630252,0.04934782608695652,0.04842105263157895,0.02
11,6,12,0,6,2.07,2,54,50,87,85,5,9.849999999999879,0.2700000000000001,0.15,0.03,16,4,2,1,201,6,3,1,6,0,16,7,HL,0.04900497512437811,0.045,0.049999999999999996,0.03
11,7,13,1,8,2.579999999999989,2,63,115,116,77,80,5.679999999999967,2.0000000000000013,0.7100000000000004,0.6400000000000003,8,3,5,5,124,35,13,14,2,0,10,7,HL,0.045806451612903226,0.05714285714285714,0.05461538461538462,0.045714285714285714
11,7,14,1,10,2.259999999999996,2,51,88,87,54,11,5.699999999999966,2.249999999999996,1.0100000000000007,0.4100000000000002,4,4,4,2,121,50,21,3,3,0,16,7,HL,0.047107438016528926,0.045,0.048095238095238094,0.13666666666666666
11,8,15,1,2,1.1100000000000008,19,31,30,119,74,73,10.979999999999835,0.03,0.03,0.03,20,1,1,1,232,1,1,1,4,0,13,7,HL,0.04732758620689655,0.03,0.03,0.03
11,8,16,1,9,1.6500000000000012,2,31,67,61,66,63,4.439999999999985,1.9300000000000015,0.6800000000000004,0.8800000000000006,8,3,3,6,87,38,11,19,4,1,48,7,HL,0.05103448275862069,0.05078947368421052,0.06181818181818182,0.04631578947368421
11,9,17,1,10,1.2400000000000009,20,33,13,21,23,24,10.319999999999851,0.3100000000000001,1.360000000000001,2.0400000000000005,20,3,10,17,218,8,29,40,3,1,72,7,HL,0.047339449541284405,0.03875,0.04689655172413793,0.051
11,9,18,1,6,1.9600000000000015,2,30,10,3,81,56,5.679999999999966,0.2900000000000001,1.500000000000001,0.4400000000000002,9,2,2,2,95,5,31,10,6,0,19,7,HL,0.05978947368421053,0.057999999999999996,0.04838709677419355,0.044
11,10,19,1,8,2.0400000000000005,20,49,40,16,76,46,10.879999999999857,0.13999999999999999,0.5100000000000002,1.1700000000000008,20,2,5,13,218,4,11,32,2,0,19,7,HL,0.04990825688073395,0.035,0.046363636363636364,0.0365625
11,10,20,1,3,2.4599999999999915,3,40,31,55,34,92,5.3199999999999745,3.2099999999999755,0.16,0.6400000000000003,9,4,3,2,95,50,4,13,5,0,17,7,HL,0.056,0.06420000000000001,0.04,0.04923076923076923
11,11,21,1,9,1.7000000000000013,2,31,66,84,69,111,5.939999999999955,1.5100000000000011,0.3300000000000001,0.5700000000000003,6,4,3,2,116,33,6,15,4,0,13,7,HL,0.05120689655172414,0.04575757575757576,0.055,0.038
11,11,22,1,10,1.5100000000000011,18,34,95,49,14,55,6.349999999999943,2.389999999999993,0.5100000000000002,0.5600000000000003,20,3,3,5,125,58,12,12,3,0,17,7,HL,0.0508,0.04120689655172414,0.0425,0.04666666666666667
11,12,23,1,7,2.4199999999999924,3,54,13,23,81,71,7.839999999999922,3.8099999999999627,0.03,0.04,12,10,2,2,160,91,2,2,6,0,19,7,HL,0.049,0.04186813186813187,0.015,0.02
11,12,24,1,6,2.2299999999999964,2,50,4,3,91,49,4.889999999999984,6.729999999999901,0.03,0.01,6,11,2,1,116,131,2,1,6,0,19,7,HL,0.0421551724137931,0.05137404580152672,0.015,0.01
11,13,25,1,5,1.5700000000000012,2,28,44,86,62,43,4.419999999999984,3.3499999999999726,0.5100000000000002,0.09999999999999999,7,6,3,2,72,67,11,2,5,0,17,7,HL,0.06138888888888889,0.05,0.046363636363636364,0.05
11,13,26,1,1,2.1299999999999986,20,54,55,28,114,50,7.629999999999926,0.35000000000000014,0.21000000000000005,1.5400000000000011,20,2,2,4,162,4,3,25,3,0,15,7,HL,0.04709876543209877,0.08750000000000001,0.06999999999999999,0.061599999999999995
11,14,27,1,7,2.3699999999999934,2,59,63,86,22,14,8.039999999999917,0.6500000000000004,0.04,2.0799999999999996,12,2,2,4,164,18,2,47,6,0,19,7,HL,0.04902439024390244,0.03611111111111111,0.02,0.04425531914893617
11,14,28,1,4,3.00999999999998,20,81,104,103,53,6,8.049999999999917,0.6400000000000003,0.08,0.3200000000000001,20,5,2,3,181,16,2,10,2,0,14,7,HL,0.044475138121546964,0.04,0.04,0.032
11,15,29,1,6,2.389999999999993,2,52,8,47,43,44,4.799999999999986,3.319999999999973,0.6100000000000003,0.6200000000000003,6,4,2,2,96,66,10,16,6,0.5,36,7,HL,0.05,0.0503030303030303,0.061,0.03875
11,15,30,1,3,1.8500000000000014,4,43,30,20,17,67,5.7099999999999635,1.8800000000000014,0.34000000000000014,0.08,8,5,3,2,115,37,7,2,5,0,21,7,HL,0.04965217391304348,0.05081081081081081,0.04857142857142857,0.04
11,16,31,1,3,1.2100000000000009,2,26,25,28,36,10,6.529999999999932,0.26000000000000006,0.34000000000000014,0.2700000000000001,11,2,3,3,122,4,9,4,5,0.5,36,7,HL,0.053524590163934425,0.065,0.03777777777777778,0.0675
11,16,32,1,5,2.429999999999992,5,45,47,61,22,16,6.51999999999995,1.0400000000000007,0.6100000000000003,0.47000000000000025,8,2,2,3,127,21,13,12,5,0,21,7,HL,0.05133858267716535,0.049523809523809526,0.04692307692307692,0.03916666666666666
11,17,33,1,10,1.340000000000001,2,32,40,85,14,37,6.539999999999934,0.6200000000000003,0.23000000000000007,0.5100000000000002,12,3,3,2,133,16,5,9,3,0,19,7,HL,0.04917293233082707,0.03875,0.046,0.05666666666666667
11,17,34,1,8,2.0300000000000007,2,49,116,61,119,69,6.749999999999945,0.8400000000000005,0.19000000000000003,0.34000000000000014,10,2,2,5,147,16,3,9,2,0,12,7,HL,0.04591836734693878,0.0525,0.06333333333333332,0.03777777777777778
11,18,35,1,6,1.7600000000000013,3,34,7,96,69,46,5.049999999999975,1.470000000000001,1.1400000000000008,0.25000000000000006,6,3,3,3,98,33,22,8,6,0,18,7,HL,0.05153061224489796,0.04454545454545455,0.05181818181818182,0.03125
11,18,36,1,4,1.9200000000000015,2,46,107,54,19,102,6.509999999999948,2.199999999999997,0.6500000000000004,0.3300000000000001,8,7,4,3,152,38,16,10,2,0,14,7,HL,0.04282894736842105,0.05789473684210526,0.040625,0.033
11,19,37,1,8,1.1900000000000008,3,24,120,118,68,65,6.9699999999999225,0.47000000000000025,0.37000000000000016,0.15,19,3,2,2,136,10,10,3,2,0,12,7,HL,0.051250000000000004,0.047,0.037,0.049999999999999996
11,19,38,1,7,2.679999999999987,18,54,47,92,90,91,10.959999999999855,0.03,0.11999999999999998,0.03,20,2,3,2,227,2,4,2,6,0.5,23,7,HL,0.04828193832599119,0.015,0.030000000000000002,0.015
11,20,39,1,7,2.7399999999999856,3,46,41,20,77,73,8.619999999999905,0.21000000000000005,1.0500000000000007,0.17,13,3,2,1,156,5,18,2,6,0,17,7,HL,0.05525641025641026,0.042,0.058333333333333334,0.08499999999999999
11,20,40,1,6,2.7899999999999845,2,50,4,1,62,26,7.179999999999936,5.509999999999927,0.01,0.01,9,15,1,1,135,113,1,1,6,0,21,7,HL,0.05318518518518518,0.048761061946902655,0.01,0.01
12,1,1,0,4,1.1500000000000008,2,21,104,103,51,53,2.9700000000000024,0.38000000000000017,0.7900000000000005,1.1800000000000008,5,1,6,10,45,1,20,15,2,0,12,7,HL,0.066,0.38000000000000017,0.0395,0.07866666666666666
12,1,2,0,3,1.0100000000000007,5,17,36,33,27,3,4.03999999999998,0.9200000000000006,0.5500000000000003,0.45000000000000023,16,5,6,5,58,10,7,7,5,0.5,21,7,HL,0.06965517241379311,0.09200000000000001,0.07857142857142858,0.06428571428571428
12,2,3,0,5,1.0800000000000007,12,24,46,43,44,7,3.5999999999999908,0.36000000000000015,0.17,1.300000000000001,19,2,3,7,64,4,3,11,5,0.5,21,7,HL,0.05625,0.09000000000000001,0.056666666666666664,0.11818181818181821
12,2,4,0,9,0.49000000000000027,2,6,64,35,68,25,3.449999999999981,4.349999999999952,0.13999999999999999,0.01,7,15,2,1,51,58,2,1,4,0,18,7,HL,0.06764705882352941,0.075,0.06999999999999999,0.01
12,3,5,0,10,0.9600000000000006,2,15,90,96,91,58,3.3499999999999934,0.35000000000000014,0.09999999999999999,0.9800000000000006,10,3,1,6,35,5,1,9,3,0.5,13,7,HL,0.09571428571428572,0.06999999999999999,0.09999999999999999,0.1088888888888889
12,3,6,0,7,1.1200000000000008,4,20,13,47,41,18,4.60999999999997,0.5000000000000002,0.20000000000000004,0.09999999999999999,12,5,2,2,55,7,3,2,6,0,22,7,HL,0.08381818181818183,0.07142857142857144,0.06666666666666667,0.05
12,4,7,0,1,0.8000000000000005,2,13,48,54,49,78,3.959999999999977,0.36000000000000015,0.45000000000000023,0.12999999999999998,10,5,3,2,54,8,4,3,3,0,16,7,HL,0.07333333333333333,0.045,0.11250000000000002,0.043333333333333335
12,4,8,0,10,1.2400000000000009,2,26,90,91,32,92,4.509999999999975,0.49000000000000027,0.37000000000000016,0.060000000000000005,14,5,3,1,68,7,5,1,3,0.5,14,7,HL,0.06632352941176471,0.07,0.07400000000000001,0.060000000000000005
12,5,9,0,9,0.9800000000000006,2,13,71,64,27,101,2.3200000000000016,2.1199999999999988,1.270000000000001,0.13999999999999999,7,6,9,2,27,32,13,4,4,0,15,7,HL,0.08592592592592593,0.06625,0.0976923076923077,0.035
12,5,10,0,5,0.5700000000000003,3,9,53,56,95,94,2.590000000000001,1.6800000000000013,0.6300000000000003,0.8500000000000005,10,8,3,4,41,19,13,11,5,0,14,7,HL,0.06317073170731707,0.08842105263157896,0.048461538461538466,0.07727272727272728
12,6,11,0,3,0.6000000000000003,2,8,32,104,60,102,3.689999999999978,0.8100000000000005,0.09999999999999999,0.34000000000000014,14,3,1,3,47,10,1,4,5,0,13,7,HL,0.07851063829787235,0.081,0.09999999999999999,0.08499999999999999
12,6,12,0,8,0.4100000000000002,2,6,117,47,111,46,2.94999999999999,1.0600000000000007,0.20000000000000004,0.6200000000000003,9,5,3,4,36,13,5,12,2,0,14,7,HL,0.08194444444444446,0.08153846153846155,0.04,0.051666666666666666
12,7,13,1,3,0.48000000000000026,9,10,1,25,5,90,6.529999999999916,0.01,0.060000000000000005,0.09999999999999999,20,1,1,2,96,1,1,2,5,0,20,7,HL,0.06802083333333334,0.01,0.060000000000000005,0.05
12,7,14,1,9,0.9700000000000006,15,22,71,74,14,111,3.249999999999996,2.7899999999999845,2.010000000000001,0.09,18,9,14,3,56,39,25,3,4,0,15,7,HL,0.05803571428571429,0.07153846153846154,0.0804,0.03
12,8,15,1,4,0.8700000000000006,3,13,98,97,32,28,4.099999999999976,0.13999999999999999,0.4100000000000002,0.15,10,1,4,1,57,1,7,1,2,0,14,7,HL,0.07192982456140351,0.13999999999999999,0.058571428571428566,0.15
12,8,16,1,1,1.370000000000001,3,24,84,39,37,44,4.659999999999975,0.21000000000000005,0.20000000000000004,0.09,9,3,2,1,69,4,3,1,3,0.5,33,7,HL,0.06753623188405797,0.0525,0.06666666666666667,0.09
12,9,17,1,7,0.4100000000000002,3,6,21,118,13,112,2.1200000000000014,1.460000000000001,0.26000000000000006,0.18000000000000002,7,4,2,1,25,18,4,1,6,0,16,7,HL,0.0848,0.08111111111111112,0.065,0.18000000000000002
12,9,18,1,6,0.9900000000000007,3,15,12,4,11,5,2.840000000000002,0.6300000000000003,0.5300000000000002,0.4200000000000002,8,4,3,2,48,16,8,6,6,1,72,7,HL,0.05916666666666667,0.039375,0.06625,0.07
12,10,19,1,8,1.0400000000000007,2,14,38,120,43,116,3.9099999999999833,0.5200000000000002,0.13999999999999999,0.8000000000000005,9,3,1,8,53,8,1,11,2,0,14,7,HL,0.07377358490566038,0.06499999999999999,0.13999999999999999,0.07272727272727272
12,10,20,1,2,1.8200000000000014,16,37,55,52,35,57,3.9799999999999995,0.7700000000000005,0.46000000000000024,0.09,20,5,3,2,65,10,6,2,4,0.5,29,7,HL,0.061230769230769234,0.07700000000000001,0.07666666666666667,0.045000000000000005
12,11,21,1,6,0.5400000000000003,2,6,2,111,84,9,3.0299999999999914,0.6600000000000004,0.3300000000000001,0.19000000000000003,9,2,3,2,43,7,3,3,6,0,17,7,HL,0.07046511627906978,0.09428571428571429,0.11,0.06333333333333332
12,11,22,1,10,0.9300000000000006,6,14,88,40,96,17,3.7399999999999847,1.1000000000000008,1.0600000000000007,1.330000000000001,14,9,6,10,38,12,14,15,3,0,17,7,HL,0.09842105263157895,0.09166666666666667,0.07571428571428572,0.08866666666666667
12,12,23,1,6,0.7500000000000004,2,6,112,7,47,45,2.780000000000001,0.3300000000000001,0.8500000000000005,0.3000000000000001,6,2,4,2,31,2,7,2,6,0,18,7,HL,0.08967741935483872,0.165,0.12142857142857144,0.15000000000000005
12,12,24,1,1,0.9000000000000006,2,15,75,107,83,84,3.149999999999997,1.2000000000000008,0.13999999999999999,0.2700000000000001,11,6,2,2,53,12,3,3,3,0.5,20,7,HL,0.059433962264150944,0.1,0.04666666666666667,0.09
12,13,25,1,9,0.9000000000000006,3,15,70,47,109,65,2.9300000000000015,1.430000000000001,0.16,0.12999999999999998,10,4,2,2,48,17,5,4,4,0,15,7,HL,0.06104166666666667,0.08411764705882353,0.032,0.0325
