Subject,Round,Phase,afterbreak,Schema,Schema_RT,Schema_OB,Schema_AS,Cho_1,Cho_2,Cho_3,Cho_4,RT_1,RT_2,RT_3,RT_4,OB_1,OB_2,OB_3,OB_4,AS_1,AS_2,AS_3,AS_4,schema_payoff,AC,performance,breakR,type,dwellmean_1,dwellmean_2,dwellmean_3,dwellmean_4
1,1,1,0,8,0.4200000000000002,2,3,27,82,36,66,2.919999999999991,1.0500000000000007,0.26000000000000006,0.21000000000000005,8,2,1,1,12,8,1,1,2,0,17,7,Hc,0.24333333333333343,0.13125000000000003,0.26000000000000006,0.21000000000000005
1,1,2,0,7,0.2900000000000001,2,3,99,104,85,48,2.5099999999999967,0.8400000000000005,1.370000000000001,1.2500000000000009,5,3,5,4,9,3,7,4,3,0,12,7,Hc,0.278888888888889,0.2800000000000001,0.19571428571428579,0.31250000000000017
1,2,3,0,4,0.5900000000000003,2,3,48,99,42,45,3.689999999999978,0.46000000000000024,0.3100000000000001,0.47000000000000025,9,1,2,2,12,1,2,4,2,0.5,17,7,Hc,0.3075000000000001,0.46000000000000024,0.15500000000000003,0.11750000000000001
1,2,4,0,1,0.37000000000000016,2,3,25,68,86,88,1.730000000000001,1.9000000000000015,0.7900000000000005,0.3000000000000001,3,3,3,2,5,4,3,2,5,0,15,7,Hc,0.34600000000000014,0.47500000000000026,0.2633333333333334,0.15000000000000002
1,3,5,0,10,0.26000000000000006,2,3,14,22,24,89,2.0900000000000016,4.90999999999994,0.01,0.9200000000000006,6,11,1,2,9,19,1,3,6,0.5,21,7,Hc,0.2322222222222223,0.25842105263157905,0.01,0.3066666666666668
1,3,6,0,8,0.2800000000000001,2,3,67,120,25,8,2.909999999999988,0.6200000000000003,0.37000000000000016,0.4000000000000002,6,2,2,2,9,2,2,2,2,0,17,7,Hc,0.3233333333333335,0.3100000000000001,0.18500000000000003,0.20000000000000007
1,4,7,0,8,0.18000000000000002,2,2,13,116,35,111,27.960000000001543,0.01,0.01,0.6000000000000003,20,1,1,2,96,1,1,2,2,0,15,7,Hc,0.2912500000000001,0.01,0.01,0.30000000000000016
1,4,8,0,2,0.21000000000000005,2,4,78,108,74,106,3.0799999999999828,0.36000000000000015,0.4400000000000002,0.22000000000000006,8,2,3,1,14,3,3,1,3,0,10,7,Hc,0.22000000000000008,0.12000000000000004,0.1466666666666667,0.22000000000000006
1,5,9,0,10,0.5400000000000003,2,3,115,32,18,117,4.8999999999999515,0.18000000000000002,1.1200000000000008,0.3900000000000002,12,1,3,2,16,1,3,3,6,0,15,7,Hc,0.30625000000000013,0.18000000000000002,0.3733333333333336,0.13000000000000003
1,5,10,0,9,0.3300000000000001,2,4,101,65,72,61,2.6099999999999954,0.5200000000000002,0.4400000000000002,0.49000000000000027,6,1,2,2,9,1,2,4,4,0.5,14,7,Hc,0.2900000000000001,0.5200000000000002,0.22000000000000003,0.1225
1,6,11,0,1,0.2900000000000001,2,3,28,104,106,31,1.9800000000000013,1.0200000000000007,0.49000000000000027,0.6900000000000004,4,3,2,4,5,3,2,4,5,0,14,7,Hc,0.39600000000000024,0.34000000000000014,0.2450000000000001,0.17250000000000004
1,6,12,0,8,0.20000000000000004,2,3,5,69,11,115,14.789999999999733,0.01,0.01,0.04,19,1,1,1,56,1,1,1,2,0,18,7,Hc,0.264107142857143,0.01,0.01,0.04
1,7,13,1,9,0.8100000000000005,3,6,45,96,93,12,3.6199999999999846,0.8300000000000005,0.2800000000000001,0.18000000000000002,9,2,2,1,15,3,2,1,4,0,17,7,Hc,0.2413333333333334,0.2766666666666667,0.13999999999999999,0.18000000000000002
1,7,14,1,2,0.24000000000000007,2,3,77,14,31,114,2.929999999999987,0.22000000000000006,0.5500000000000003,0.9500000000000006,7,1,1,2,13,1,1,2,3,0,16,7,Hc,0.22538461538461546,0.22000000000000006,0.5500000000000003,0.47500000000000026
1,8,15,1,9,0.7400000000000004,3,4,15,66,63,24,3.7399999999999807,0.8000000000000005,0.11999999999999998,0.22000000000000006,8,4,1,1,16,6,1,1,4,0,20,7,Hc,0.2337500000000001,0.13333333333333336,0.11999999999999998,0.22000000000000006
1,8,16,1,2,0.3200000000000001,2,3,74,27,29,9,2.4599999999999986,0.5000000000000002,0.26000000000000006,0.6800000000000004,8,2,1,4,12,2,1,5,3,0,19,7,Hc,0.20500000000000004,0.25000000000000006,0.26000000000000006,0.13600000000000004
1,9,17,1,4,1.1400000000000008,4,5,88,101,86,98,3.2300000000000004,0.5800000000000003,2.0500000000000003,0.03,7,3,3,1,9,4,4,1,2,0,10,7,Hc,0.3588888888888891,0.14500000000000002,0.5125000000000004,0.03
1,9,18,1,9,0.3900000000000002,2,3,63,4,12,75,3.4599999999999786,0.6600000000000004,0.15,0.45000000000000023,5,4,1,1,8,8,1,1,4,0,19,7,Hc,0.4325000000000002,0.08249999999999999,0.15,0.45000000000000023
1,10,19,1,8,0.36000000000000015,3,4,94,46,70,115,2.5199999999999982,0.48000000000000026,0.6100000000000003,0.09999999999999999,6,1,1,1,11,1,1,1,2,0,14,7,Hc,0.22909090909090918,0.48000000000000026,0.6100000000000003,0.09999999999999999
1,10,20,1,10,1.5700000000000012,5,6,15,98,108,14,3.450000000000003,1.7800000000000014,0.8900000000000006,0.22000000000000006,8,3,3,2,12,5,5,2,6,0,16,7,Hc,0.28750000000000014,0.3560000000000002,0.17800000000000005,0.11000000000000001
1,11,21,1,1,0.3100000000000001,2,4,25,29,65,85,2.649999999999994,0.19000000000000003,0.7100000000000004,0.5500000000000003,7,1,2,2,14,1,2,3,5,0,17,7,Hc,0.18928571428571433,0.19000000000000003,0.35500000000000015,0.1833333333333334
1,11,22,1,3,0.34000000000000014,2,4,79,44,6,108,2.5299999999999976,0.4200000000000002,0.9400000000000006,0.48000000000000026,7,1,2,2,13,1,3,3,5,0,16,7,Hc,0.1946153846153847,0.4200000000000002,0.31333333333333346,0.16000000000000003
1,12,23,1,1,0.17,2,3,30,14,31,33,3.0499999999999825,1.0400000000000007,0.09999999999999999,0.20000000000000004,8,2,1,2,15,3,1,2,5,0.5,21,7,Hc,0.2033333333333334,0.34666666666666685,0.09999999999999999,0.09999999999999999
1,12,24,1,9,0.46000000000000024,2,3,65,76,109,119,4.169999999999965,0.2700000000000001,0.10999999999999999,0.13999999999999999,8,2,1,1,11,2,1,1,4,0,11,7,Hc,0.37909090909090926,0.135,0.10999999999999999,0.13999999999999999
1,13,25,1,6,0.2800000000000001,2,3,119,118,81,53,2.729999999999992,0.8800000000000006,0.5400000000000003,0.11999999999999998,7,2,2,2,13,8,2,2,4,0,11,7,Hc,0.21000000000000008,0.11,0.2700000000000001,0.05999999999999999
1,13,26,1,1,0.5200000000000002,2,4,31,100,65,21,2.639999999999999,2.0000000000000013,0.05,2.07,7,7,1,4,12,8,1,5,5,0,17,7,Hc,0.22000000000000008,0.2500000000000001,0.05,0.41400000000000026
1,14,27,1,10,0.6100000000000003,3,5,13,80,81,29,2.9399999999999946,0.3100000000000001,0.5400000000000003,0.48000000000000026,8,2,2,2,11,2,7,4,6,0,17,7,Hc,0.2672727272727274,0.15500000000000003,0.07714285714285714,0.12
1,14,28,1,3,1.2100000000000009,7,11,98,103,90,1,3.489999999999996,6.569999999999904,0.01,1.280000000000001,10,8,1,4,15,12,1,4,5,0,13,7,Hc,0.23266666666666677,0.5475000000000003,0.01,0.3200000000000002
1,15,29,1,10,0.36000000000000015,2,5,17,15,58,49,3.3499999999999805,3.9099999999999606,0.03,0.060000000000000005,11,9,1,1,18,14,1,1,6,0,20,7,Hc,0.18611111111111114,0.2792857142857144,0.03,0.060000000000000005
1,15,30,1,7,0.46000000000000024,2,5,71,117,5,7,3.199999999999986,0.38000000000000017,0.3300000000000001,0.3100000000000001,7,1,1,3,20,1,1,4,3,0,18,7,Hc,0.16000000000000006,0.38000000000000017,0.3300000000000001,0.0775
1,16,31,1,5,0.24000000000000007,2,3,4,54,8,117,3.5199999999999743,0.25000000000000006,0.38000000000000017,1.8200000000000014,9,1,2,5,16,2,2,6,6,0,18,7,Hc,0.22000000000000006,0.12500000000000003,0.19,0.30333333333333345
1,16,32,1,1,1.1200000000000008,11,14,30,65,19,21,3.7099999999999893,1.2500000000000009,0.22000000000000006,1.370000000000001,15,4,1,4,28,5,1,4,5,0,21,7,Hc,0.13250000000000003,0.2500000000000001,0.22000000000000006,0.34250000000000014
1,17,33,1,7,3.189999999999976,4,8,4,9,86,32,5.339999999999974,0.46000000000000024,1.0400000000000007,0.3000000000000001,6,1,3,2,13,1,4,2,3,0,20,7,Hc,0.410769230769231,0.46000000000000024,0.2600000000000001,0.15
1,17,34,1,9,0.3000000000000001,1,2,62,24,21,114,4.73999999999995,0.9700000000000006,0.4300000000000002,0.07,9,4,3,2,14,6,4,2,4,0,18,7,Hc,0.3385714285714287,0.1616666666666667,0.10750000000000001,0.035
1,18,35,1,3,0.6500000000000004,10,12,40,37,60,99,2.4400000000000017,1.6700000000000013,0.47000000000000025,0.6100000000000003,13,6,3,2,17,9,3,3,5,0,16,7,Hc,0.14352941176470593,0.1855555555555556,0.15666666666666673,0.2033333333333334
1,18,36,1,8,0.36000000000000015,2,3,65,112,114,110,2.2500000000000018,1.500000000000001,0.2800000000000001,0.47000000000000025,7,2,1,2,9,3,1,2,2,0.5,10,7,Hc,0.2500000000000001,0.5000000000000002,0.2800000000000001,0.23500000000000004
1,19,37,1,4,0.9600000000000006,11,13,101,9,43,95,1.8300000000000012,2.5599999999999894,0.7000000000000004,0.07,13,5,3,1,15,9,7,1,2,0,16,7,Hc,0.12200000000000004,0.28444444444444456,0.1,0.07
1,19,38,1,2,0.2800000000000001,2,4,66,29,79,71,3.899999999999967,0.17,0.05,0.18000000000000002,8,1,1,1,14,1,1,1,3,0,16,7,Hc,0.2785714285714287,0.17,0.05,0.18000000000000002
1,20,39,1,2,0.48000000000000026,6,6,65,77,8,63,6.749999999999911,3.0599999999999787,0.4400000000000002,0.01,17,4,2,1,20,6,2,1,3,0,17,7,Hc,0.3375000000000002,0.5100000000000003,0.22000000000000003,0.01
1,20,40,1,6,0.46000000000000024,2,4,95,27,93,117,3.2799999999999843,1.310000000000001,0.05,0.3300000000000001,7,2,1,1,12,3,1,1,4,0,13,7,Hc,0.27333333333333343,0.43666666666666687,0.05,0.3300000000000001
1,21,41,1,1,0.4200000000000002,2,4,63,36,26,65,2.7499999999999947,0.4200000000000002,0.5200000000000002,0.5000000000000002,7,2,1,2,16,2,1,3,5,0,18,7,Hc,0.17187500000000006,0.21000000000000005,0.5200000000000002,0.16666666666666669
1,21,42,1,3,0.6300000000000003,7,8,38,52,45,10,2.749999999999999,1.0600000000000007,2.859999999999983,0.8600000000000005,9,3,4,3,12,4,5,3,5,0,20,7,Hc,0.22916666666666677,0.26500000000000007,0.5720000000000004,0.2866666666666668
2,1,1,0,8,0.5000000000000002,2,3,3,111,29,7,13.499999999999767,4.41999999999995,3.8199999999999625,1.9000000000000015,11,8,7,4,25,13,9,4,2,0,19,6,Hc,0.5400000000000003,0.34000000000000014,0.4244444444444429,0.4750000000000002
2,1,2,0,4,0.6400000000000003,2,3,79,61,69,100,7.189999999999905,7.3599999999998875,1.300000000000001,1.7400000000000013,7,7,3,4,13,19,3,7,2,0,13,6,Hc,0.5530769230769221,0.38736842105263175,0.4333333333333335,0.24857142857142867
2,2,3,0,6,0.5200000000000002,2,5,58,55,99,57,10.139999999999839,2.3599999999999937,6.269999999999911,2.349999999999994,11,4,6,10,26,4,13,10,4,0.5,14,6,Hc,0.3900000000000002,0.5900000000000003,0.48230769230769255,0.23500000000000007
2,2,4,0,5,0.6900000000000004,5,6,1,10,109,11,11.979999999999805,2.6899999999999866,1.490000000000001,5.809999999999921,17,5,2,7,36,9,2,12,6,0.5,20,6,Hc,0.33277777777777795,0.298888888888889,0.7450000000000004,0.48416666666666697
2,3,5,0,1,0.6400000000000003,2,4,31,120,119,65,17.00999999999976,13.439999999999758,0.6000000000000003,3.049999999999979,17,11,2,5,50,33,3,5,5,0,13,6,Hc,0.34020000000000017,0.4072727272727274,0.20000000000000004,0.6100000000000003
2,3,6,0,3,0.6600000000000004,2,5,97,39,101,105,8.679999999999874,9.729999999999837,3.6399999999999664,0.5200000000000002,8,11,7,1,26,19,9,1,5,0.5,11,6,Hc,0.333846153846154,0.5121052631578941,0.40444444444444466,0.5200000000000002
2,4,7,0,6,0.6600000000000004,2,6,97,52,44,54,16.789999999999722,0.3100000000000001,1.2500000000000009,0.4300000000000002,17,1,3,2,46,1,4,2,4,0,15,6,Hc,0.3650000000000002,0.3100000000000001,0.3125000000000001,0.21500000000000005
2,4,8,0,2,0.26000000000000006,1,2,74,75,36,32,8.769999999999863,3.5999999999999672,1.9900000000000015,2.9699999999999807,9,4,4,5,30,6,7,6,3,0,16,6,Hc,0.29233333333333344,0.6000000000000003,0.2842857142857144,0.4950000000000003
2,5,9,0,2,0.9800000000000006,3,5,26,81,33,56,12.4399999999998,2.7899999999999845,0.6700000000000004,0.7500000000000004,12,4,1,2,33,7,2,3,3,0,17,6,Hc,0.3769696969696972,0.39857142857142874,0.3350000000000002,0.2500000000000001
2,5,10,0,7,0.46000000000000024,2,4,96,92,45,48,12.709999999999784,1.9500000000000015,0.8000000000000005,1.0700000000000007,14,3,1,2,36,10,1,3,3,0,16,6,Hc,0.35305555555555573,0.19500000000000006,0.8000000000000005,0.3566666666666668
2,6,11,1,5,0.8500000000000005,5,9,92,4,48,43,21.080000000000364,0.22000000000000006,0.6100000000000003,0.5500000000000003,19,2,2,2,54,2,2,3,6,0,19,6,Hc,0.3903703703703706,0.11000000000000001,0.3050000000000001,0.18333333333333335
2,6,12,1,2,0.34000000000000014,2,4,14,18,79,78,30.710000000001948,0.8400000000000005,0.19000000000000003,0.04,20,3,2,1,94,4,2,1,3,0,18,6,Hc,0.3267021276595746,0.21000000000000008,0.095,0.04
2,7,13,1,1,0.6900000000000004,2,5,33,25,1,2,16.879999999999733,1.7500000000000013,6.439999999999907,1.5600000000000012,18,6,11,5,42,10,17,5,5,0,22,6,Hc,0.4019047619047621,0.17500000000000004,0.3788235294117649,0.3120000000000001
2,7,14,1,2,0.6800000000000004,2,7,76,77,14,49,7.7399999999998945,8.64999999999986,2.7499999999999853,1.1100000000000008,10,9,3,2,28,22,8,2,3,0,16,6,Hc,0.2764285714285716,0.39318181818181835,0.34375000000000017,0.5550000000000003
2,8,15,1,9,0.34000000000000014,2,3,70,71,64,78,8.259999999999875,7.959999999999875,3.049999999999979,1.0200000000000007,9,13,7,2,26,19,9,3,4,0.5,15,6,Hc,0.31769230769230783,0.41894736842105285,0.338888888888889,0.34000000000000014
2,8,16,1,7,0.3300000000000001,2,4,56,92,52,36,19.56000000000021,0.7900000000000005,0.7800000000000005,0.6200000000000003,17,3,2,2,56,4,2,4,3,0,16,6,Hc,0.3492857142857144,0.19750000000000006,0.3900000000000002,0.15500000000000005
2,9,17,1,9,0.35000000000000014,2,3,83,43,78,120,18.350000000000016,1.270000000000001,1.380000000000001,1.6200000000000012,14,2,4,2,42,4,4,2,4,0,13,6,Hc,0.43690476190476213,0.31750000000000017,0.3450000000000002,0.8100000000000005
2,9,18,1,4,0.3300000000000001,2,4,98,107,104,86,5.599999999999932,5.159999999999934,2.1199999999999988,2.769999999999985,8,6,5,5,19,20,5,6,2,0.5,9,6,Hc,0.2947368421052633,0.25800000000000006,0.4240000000000002,0.4616666666666669
2,10,19,1,4,0.25000000000000006,2,4,108,100,99,107,9.669999999999844,6.149999999999913,5.469999999999928,3.7399999999999642,11,9,9,7,26,18,11,8,2,1,24,6,Hc,0.37192307692307713,0.34166666666666684,0.49727272727272687,0.46750000000000025
2,10,20,1,8,2.859999999999983,7,11,80,83,109,119,9.679999999999882,2.719999999999986,3.899999999999961,1.310000000000001,14,4,8,3,22,9,11,5,2,0,10,6,Hc,0.4400000000000002,0.30222222222222234,0.3545454545454547,0.26200000000000007
2,11,21,1,1,0.47000000000000025,2,4,98,101,82,107,14.689999999999742,0.3100000000000001,0.8700000000000006,0.7700000000000005,17,2,1,4,39,2,1,4,5,0.5,9,6,Hc,0.37666666666666687,0.15500000000000003,0.8700000000000006,0.19250000000000003
2,11,22,1,8,0.6000000000000003,2,3,46,118,18,42,7.669999999999894,6.439999999999907,3.4999999999999694,3.0299999999999794,10,8,5,7,17,14,9,8,2,0,18,6,Hc,0.4511764705882355,0.46000000000000024,0.3888888888888891,0.3787500000000002
2,12,23,1,5,1.390000000000001,3,7,7,4,47,2,6.469999999999937,2.4699999999999913,9.719999999999837,3.1599999999999766,9,3,8,6,20,3,26,10,6,0.5,23,6,Hc,0.3235000000000001,0.8233333333333339,0.37384615384615405,0.3160000000000001
2,12,24,1,1,1.1700000000000008,3,4,35,29,104,100,11.879999999999818,4.089999999999957,2.4599999999999915,0.18000000000000002,15,6,5,1,36,12,11,1,5,0,14,6,Hc,0.3300000000000001,0.3408333333333335,0.2236363636363637,0.18000000000000002
2,13,25,1,2,0.5000000000000002,2,3,34,84,83,119,14.019999999999756,1.290000000000001,7.479999999999885,1.420000000000001,11,3,11,3,25,4,22,6,3,0,13,6,Hc,0.5607999999999995,0.3225000000000001,0.3400000000000002,0.23666666666666675
2,13,26,1,7,0.6100000000000003,3,7,91,41,94,42,9.879999999999846,4.529999999999948,0.6600000000000004,1.0400000000000007,10,7,2,2,27,12,2,4,3,0,16,6,Hc,0.3659259259259261,0.37750000000000017,0.3300000000000001,0.2600000000000001
2,14,27,1,4,0.5800000000000003,3,5,97,81,107,66,5.529999999999939,7.469999999999885,5.339999999999931,2.7799999999999847,6,9,7,2,12,15,12,4,2,0,11,6,Hc,0.4608333333333336,0.4980000000000003,0.44500000000000023,0.6950000000000004
2,14,28,1,8,0.5100000000000002,2,3,111,115,113,13,49.0999999999989,1.420000000000001,5.339999999999931,3.989999999999959,20,4,10,6,107,5,16,8,2,0.5,12,6,Hc,0.45887850467289737,0.28400000000000014,0.33375000000000016,0.4987500000000003
2,15,29,1,6,0.3300000000000001,2,3,80,76,79,82,8.229999999999876,2.5599999999999894,7.109999999999893,3.229999999999975,11,4,10,10,26,6,17,13,4,1,36,6,Hc,0.3165384615384617,0.4266666666666669,0.41823529411764726,0.24846153846153857
2,15,30,1,1,0.2900000000000001,2,3,30,71,31,70,13.579999999999762,5.509999999999927,1.1300000000000008,0.5300000000000002,13,9,3,2,29,11,4,3,5,0,18,6,Hc,0.46827586206896527,0.5009090909090907,0.2825000000000001,0.17666666666666672
2,16,31,1,9,0.6300000000000003,2,4,66,61,64,6,13.54999999999977,2.53999999999999,4.7799999999999425,5.5299999999999265,14,4,10,9,37,7,12,12,4,0.5,18,6,Hc,0.36621621621621636,0.362857142857143,0.39833333333333354,0.4608333333333336
2,16,32,1,10,0.4300000000000002,2,3,82,13,15,18,10.099999999999838,1.6100000000000012,4.249999999999954,0.17,12,4,5,1,22,8,9,1,6,0.5,21,6,Hc,0.4590909090909093,0.20125000000000007,0.4722222222222225,0.17
2,17,33,1,3,5.399999999999929,14,28,107,101,40,103,12.729999999999817,3.0699999999999785,2.5599999999999894,2.5599999999999894,20,4,6,4,43,8,9,4,5,0.5,11,6,Hc,0.2960465116279071,0.38375000000000015,0.28444444444444456,0.6400000000000003
2,17,34,1,5,0.9500000000000006,11,12,3,7,109,9,17.239999999999746,0.5800000000000003,4.489999999999949,0.8000000000000005,20,3,8,3,52,3,16,4,6,0.5,20,6,Hc,0.33153846153846167,0.19333333333333338,0.2806250000000001,0.20000000000000007
2,18,35,1,6,0.4000000000000002,2,5,58,120,113,54,17.48999999999987,1.5400000000000011,0.6400000000000003,0.6800000000000004,16,3,2,3,44,6,2,3,4,0,12,6,Hc,0.39750000000000024,0.25666666666666677,0.3200000000000001,0.2266666666666667
2,18,36,1,9,0.26000000000000006,5,5,71,75,108,103,18.720000000000088,0.4000000000000002,3.1599999999999766,0.13999999999999999,20,1,8,1,50,1,13,1,4,0,11,6,Hc,0.3744000000000002,0.4000000000000002,0.24307692307692316,0.13999999999999999
3,1,1,0,6,0.3000000000000001,2,3,101,33,3,60,5.379999999999936,0.8200000000000005,0.8000000000000005,0.17,9,2,2,1,14,2,2,1,4,0,17,7,Hc,0.38428571428571445,0.4100000000000002,0.4000000000000002,0.17
3,1,2,0,10,0.4000000000000002,2,4,16,14,119,120,3.219999999999984,2.259999999999996,2.429999999999992,5.34999999999993,5,3,4,9,11,6,5,15,6,0,16,7,Hc,0.29272727272727284,0.3766666666666668,0.48600000000000027,0.3566666666666668
3,2,3,0,7,0.5300000000000002,2,5,90,20,117,94,2.4300000000000015,3.699999999999965,0.8900000000000006,0.2800000000000001,4,7,2,2,9,7,4,3,3,0,14,7,Hc,0.27000000000000013,0.5285714285714289,0.22250000000000006,0.09333333333333334
3,2,4,0,3,0.6900000000000004,4,5,102,39,6,82,6.649999999999918,0.49000000000000027,0.8200000000000005,0.4100000000000002,9,2,3,2,17,2,4,2,5,0,16,7,Hc,0.39117647058823546,0.24500000000000005,0.20500000000000007,0.20500000000000004
3,3,5,0,10,0.3200000000000001,3,3,15,27,65,97,11.429999999999808,0.10999999999999999,0.060000000000000005,0.02,14,1,1,1,28,1,1,1,6,0,17,7,Hc,0.40821428571428586,0.10999999999999999,0.060000000000000005,0.02
3,3,6,0,8,0.6000000000000003,7,8,42,8,83,79,6.849999999999912,2.0799999999999996,0.34000000000000014,0.34000000000000014,14,3,1,1,22,5,1,1,2,0,17,7,Hc,0.3113636363636365,0.4160000000000002,0.34000000000000014,0.34000000000000014
3,4,7,0,3,0.6600000000000004,2,5,46,104,57,58,5.139999999999949,1.0700000000000007,0.5000000000000002,0.35000000000000014,8,2,1,1,22,2,1,1,5,0,15,7,Hc,0.23363636363636373,0.5350000000000003,0.5000000000000002,0.35000000000000014
3,4,8,0,8,0.5100000000000002,2,3,66,25,27,77,6.509999999999916,0.4200000000000002,0.48000000000000026,0.47000000000000025,8,1,2,1,17,2,2,1,2,0,17,7,Hc,0.38294117647058845,0.21000000000000002,0.24000000000000005,0.47000000000000025
3,5,9,0,4,0.4000000000000002,2,4,103,4,6,12,2.7399999999999944,3.899999999999961,1.460000000000001,0.2800000000000001,4,5,3,2,7,9,3,2,2,0.5,20,7,Hc,0.3914285714285717,0.43333333333333357,0.4866666666666669,0.14000000000000004
3,5,10,0,3,0.4400000000000002,2,3,13,17,64,114,6.829999999999909,0.4400000000000002,0.3300000000000001,0.48000000000000026,9,1,1,2,21,1,1,2,5,0,18,7,Hc,0.3252380952380954,0.4400000000000002,0.3300000000000001,0.2400000000000001
3,6,11,0,8,0.49000000000000027,3,5,118,9,115,70,6.309999999999921,2.4699999999999913,0.09999999999999999,0.20000000000000004,12,4,1,1,20,4,1,1,2,0,14,7,Hc,0.31550000000000017,0.6175000000000004,0.09999999999999999,0.20000000000000004
3,6,12,0,6,0.5600000000000003,2,3,14,98,29,56,6.659999999999915,0.4400000000000002,0.8700000000000006,0.16,10,1,3,1,16,1,5,1,4,0,17,7,Hc,0.41625000000000006,0.4400000000000002,0.17400000000000004,0.16
3,7,13,1,5,0.3100000000000001,2,3,114,25,119,11,5.869999999999926,0.7100000000000004,0.7800000000000005,0.2800000000000001,11,2,2,3,20,2,3,4,6,0,15,7,Hc,0.2935000000000001,0.35500000000000015,0.26000000000000006,0.07
3,7,14,1,3,0.5300000000000002,2,3,99,102,13,61,6.079999999999926,1.430000000000001,0.4000000000000002,0.6000000000000003,7,4,1,1,18,6,1,1,5,0,14,7,Hc,0.33777777777777795,0.2383333333333334,0.4000000000000002,0.6000000000000003
3,8,15,1,2,0.19000000000000003,1,2,115,80,118,23,3.099999999999982,1.6200000000000012,0.6000000000000003,0.8100000000000005,3,3,1,3,8,6,1,3,3,0,13,7,Hc,0.3875000000000002,0.27000000000000013,0.6000000000000003,0.27000000000000013
3,8,16,1,5,0.47000000000000025,2,3,101,37,1,39,5.309999999999942,3.509999999999969,5.019999999999937,1.2000000000000008,6,4,7,3,24,8,11,3,6,0,18,7,Hc,0.22125000000000009,0.43875000000000025,0.45636363636363664,0.40000000000000024
3,9,17,1,4,0.6100000000000003,2,5,99,53,12,57,4.409999999999963,3.0299999999999794,0.4200000000000002,0.4100000000000002,6,4,2,1,17,6,2,1,2,0,16,7,Hc,0.25941176470588245,0.5050000000000003,0.21000000000000005,0.4100000000000002
3,9,18,1,9,0.45000000000000023,3,4,61,113,68,41,3.3799999999999817,2.8799999999999826,0.24000000000000007,0.5100000000000002,8,4,1,1,14,7,1,1,4,0,15,7,Hc,0.24142857142857152,0.41142857142857164,0.24000000000000007,0.5100000000000002
3,10,19,1,4,0.9300000000000006,2,5,5,45,61,6,14.749999999999751,0.01,0.03,0.01,16,1,1,1,33,1,1,1,2,0,21,7,Hc,0.44696969696969724,0.01,0.03,0.01
3,10,20,1,10,0.6400000000000003,2,3,54,20,14,117,6.669999999999916,0.5100000000000002,1.0000000000000007,2.709999999999986,10,2,3,5,17,2,3,11,6,0,18,7,Hc,0.3923529411764708,0.2550000000000001,0.3333333333333335,0.24636363636363645
3,11,21,1,1,0.3200000000000001,2,3,106,29,51,56,4.289999999999959,0.9900000000000007,1.1600000000000008,0.8000000000000005,6,2,2,2,7,5,4,3,5,0,15,7,Hc,0.6128571428571432,0.19800000000000004,0.29000000000000015,0.2666666666666668
3,11,22,1,2,1.300000000000001,4,9,9,37,70,7,5.119999999999964,1.350000000000001,0.9300000000000006,0.22000000000000006,8,2,2,1,21,7,3,1,3,0,21,7,Hc,0.24380952380952392,0.1928571428571429,0.3100000000000001,0.22000000000000006
3,12,23,1,7,0.3100000000000001,2,3,99,24,87,100,5.169999999999941,1.9200000000000015,0.13999999999999999,0.5600000000000003,7,4,1,2,18,5,1,4,3,0,13,7,Hc,0.2872222222222223,0.3840000000000002,0.13999999999999999,0.14
3,12,24,1,3,0.5400000000000003,2,5,66,77,8,48,3.2999999999999856,3.1199999999999775,0.8200000000000005,0.2900000000000001,5,5,2,1,10,13,2,1,5,0,18,7,Hc,0.3300000000000002,0.2400000000000001,0.4100000000000002,0.2900000000000001
3,13,25,1,7,0.46000000000000024,2,3,88,71,20,61,3.9199999999999706,2.399999999999993,0.6600000000000004,0.22000000000000006,6,3,2,1,11,8,2,1,3,0,17,7,Hc,0.35636363636363655,0.30000000000000016,0.3300000000000001,0.22000000000000006
3,13,26,1,8,0.5000000000000002,2,4,117,57,52,7,5.029999999999948,1.5500000000000012,1.460000000000001,0.15,9,4,3,1,18,4,5,1,2,0,16,7,Hc,0.27944444444444455,0.3875000000000002,0.2920000000000001,0.15
3,14,27,1,8,0.34000000000000014,2,3,111,10,4,118,3.919999999999968,0.9400000000000006,2.1699999999999977,0.7000000000000004,7,1,4,2,15,1,12,2,2,0,16,7,Hc,0.2613333333333334,0.9400000000000006,0.18083333333333337,0.35000000000000014
3,14,28,1,3,0.46000000000000024,2,4,43,106,48,46,6.349999999999919,0.6900000000000004,1.5200000000000011,0.16,10,3,4,2,19,5,7,2,5,0.5,17,7,Hc,0.3342105263157896,0.138,0.21714285714285722,0.07999999999999999
3,15,29,1,6,0.3200000000000001,2,3,53,55,76,13,8.909999999999862,0.12999999999999998,1.9100000000000015,0.49000000000000027,12,2,5,2,27,2,5,2,4,0,17,7,Hc,0.3300000000000001,0.065,0.3820000000000002,0.24500000000000008
3,15,30,1,3,0.25000000000000006,2,3,39,40,68,48,2.9899999999999856,0.9200000000000006,1.1200000000000008,0.35000000000000014,6,2,3,1,12,4,6,1,5,0.5,19,7,Hc,0.24916666666666676,0.23000000000000007,0.18666666666666673,0.35000000000000014
3,16,31,1,6,0.3100000000000001,2,4,49,55,86,85,1.9600000000000013,2.9799999999999804,0.9100000000000006,1.430000000000001,4,4,3,3,6,5,3,3,4,0,14,7,Hc,0.3266666666666668,0.5960000000000003,0.30333333333333345,0.4766666666666669
3,16,32,1,8,0.17,2,2,15,61,80,19,8.209999999999873,0.2800000000000001,0.3000000000000001,0.25000000000000006,12,1,2,2,19,2,2,2,2,0,19,7,Hc,0.432105263157895,0.14,0.15,0.12500000000000003
3,17,33,1,7,0.6700000000000004,2,6,90,2,1,91,6.259999999999925,1.350000000000001,1.1000000000000008,1.290000000000001,11,2,4,4,32,2,6,4,3,0,18,7,Hc,0.19562500000000008,0.6750000000000004,0.18333333333333338,0.3225000000000001
3,17,34,1,1,0.4200000000000002,2,3,66,102,27,67,4.38999999999996,1.5600000000000012,0.3000000000000001,0.38000000000000017,9,2,1,2,17,5,1,3,5,0,15,7,Hc,0.2582352941176472,0.3120000000000001,0.3000000000000001,0.1266666666666667
3,18,35,1,3,0.6500000000000004,2,6,43,51,48,15,3.099999999999992,5.569999999999926,1.7000000000000013,0.3200000000000001,6,9,3,3,12,12,3,4,5,0,20,7,Hc,0.25833333333333347,0.46416666666666695,0.566666666666667,0.07999999999999999
3,18,36,1,1,0.49000000000000027,3,5,36,67,35,6,4.119999999999967,3.1199999999999775,0.2700000000000001,2.9199999999999817,7,4,1,5,12,11,1,9,5,0,20,7,Hc,0.34333333333333355,0.2836363636363638,0.2700000000000001,0.3244444444444446
3,19,37,1,4,0.4100000000000002,3,4,29,105,101,106,4.189999999999964,2.8399999999999834,1.1300000000000008,0.10999999999999999,7,6,4,1,13,8,4,1,2,0.5,11,7,Hc,0.32230769230769246,0.35500000000000015,0.28250000000000014,0.10999999999999999
3,19,38,1,7,0.5100000000000002,2,3,93,109,120,117,9.769999999999847,9.249999999999847,6.249999999999911,2.629999999999988,13,12,10,6,24,17,12,7,3,0.5,9,7,Hc,0.4070833333333335,0.5441176470588238,0.5208333333333337,0.3757142857142859
3,20,39,1,4,0.46000000000000024,2,3,97,102,100,62,3.5899999999999777,1.1900000000000008,2.249999999999996,1.8000000000000014,6,4,4,3,13,5,7,7,2,0.5,10,7,Hc,0.27615384615384625,0.23800000000000007,0.32142857142857156,0.25714285714285723
3,20,40,1,7,0.5800000000000003,2,3,56,85,15,39,6.319999999999922,0.8500000000000005,0.36000000000000015,0.6300000000000003,10,2,1,2,16,2,1,2,3,0,18,7,Hc,0.3950000000000002,0.42500000000000016,0.36000000000000015,0.3150000000000001
4,1,1,0,8,0.7200000000000004,2,3,62,44,72,70,5.879999999999935,2.959999999999981,7.159999999999892,3.3099999999999734,5,3,11,3,14,5,26,5,2,0.5,17,7,Hc,0.4200000000000002,0.5920000000000003,0.2753846153846155,0.6620000000000004
4,1,2,0,1,0.8800000000000006,2,4,100,34,3,29,10.97999999999983,1.0400000000000007,0.5400000000000003,0.23000000000000007,8,2,1,1,30,4,1,1,5,0,18,7,Hc,0.36600000000000016,0.2600000000000001,0.5400000000000003,0.23000000000000007
4,2,3,0,3,0.6500000000000004,2,3,116,38,70,41,14.199999999999756,0.5500000000000003,0.9000000000000006,0.11999999999999998,12,2,2,1,47,2,2,1,5,0,16,7,Hc,0.30212765957446824,0.2750000000000001,0.45000000000000023,0.11999999999999998
4,2,4,0,6,0.6800000000000004,2,4,54,25,74,81,4.2299999999999685,3.6399999999999664,2.7799999999999847,0.8200000000000005,5,4,4,1,15,12,10,1,4,0,15,7,Hc,0.28200000000000014,0.30333333333333345,0.27800000000000014,0.8200000000000005
4,3,5,0,5,1.1700000000000008,2,7,9,11,3,105,3.599999999999993,7.989999999999874,20.4600000000004,1.0900000000000007,5,5,16,2,13,19,72,2,6,0.5,20,7,Hc,0.27692307692307705,0.4205263157894739,0.2841666666666668,0.5450000000000003
4,3,6,0,7,3.149999999999977,9,14,96,120,25,87,4.509999999999978,5.449999999999928,0.5900000000000003,0.23000000000000007,11,4,3,1,17,11,5,1,3,0,13,7,Hc,0.26529411764705896,0.49545454545454576,0.11800000000000001,0.23000000000000007
4,4,7,0,1,1.0100000000000007,1,2,67,93,36,64,7.529999999999906,3.2599999999999745,1.1600000000000008,1.1500000000000008,4,4,3,5,16,10,4,7,5,0,16,7,Hc,0.47062500000000024,0.3260000000000001,0.29000000000000015,0.1642857142857143
4,4,8,0,4,0.6200000000000003,2,5,107,108,106,102,6.309999999999923,0.5700000000000003,3.099999999999978,3.2999999999999736,6,1,7,7,22,1,14,11,2,1,24,7,Hc,0.2868181818181819,0.5700000000000003,0.2214285714285715,0.30000000000000016
4,5,9,0,2,0.7600000000000005,2,4,78,69,62,63,3.9299999999999766,9.249999999999847,1.9000000000000015,0.48000000000000026,5,11,4,2,9,27,6,2,3,0.5,15,7,Hc,0.4366666666666669,0.3425925925925927,0.3166666666666668,0.24000000000000005
4,5,10,0,1,0.47000000000000025,2,3,29,30,1,52,16.879999999999765,0.02,2.809999999999984,0.7900000000000005,13,1,5,1,42,1,9,1,5,0,20,7,Hc,0.4019047619047621,0.02,0.31222222222222235,0.7900000000000005
4,6,11,0,8,0.5000000000000002,2,3,118,77,114,115,4.5299999999999585,3.45999999999997,0.6200000000000003,1.0200000000000007,9,5,2,2,16,6,3,4,2,0.5,9,7,Hc,0.2831250000000001,0.576666666666667,0.20666666666666675,0.2550000000000001
4,6,12,0,10,0.6700000000000004,2,4,23,15,17,13,3.68999999999998,2.6599999999999873,2.8799999999999826,10.469999999999821,4,4,4,13,10,9,6,32,6,1,72,7,Hc,0.3690000000000002,0.2955555555555557,0.4800000000000003,0.32718750000000013
4,7,13,1,7,0.5000000000000002,2,3,93,89,1,12,6.6899999999999125,2.1799999999999975,3.5899999999999674,0.7200000000000004,7,2,4,3,23,5,16,3,3,0,18,7,Hc,0.29086956521739143,0.4360000000000002,0.22437500000000007,0.24000000000000007
4,7,14,1,10,0.15,3,3,13,24,21,79,2.21,4.209999999999955,6.559999999999905,1.6700000000000013,5,5,7,2,7,17,22,6,6,0.5,21,7,Hc,0.3157142857142859,0.24764705882352953,0.2981818181818183,0.27833333333333343
4,8,15,1,5,0.6400000000000003,7,7,5,75,7,9,11.709999999999809,0.6400000000000003,0.26000000000000006,0.3300000000000001,10,1,1,2,35,1,1,2,6,0.5,21,7,Hc,0.33457142857142874,0.6400000000000003,0.26000000000000006,0.16500000000000004
4,8,16,1,3,0.6600000000000004,2,4,64,69,98,99,5.269999999999946,0.5500000000000003,4.2199999999999545,0.5500000000000003,7,1,4,1,14,1,15,1,5,0,12,7,Hc,0.3764285714285716,0.5500000000000003,0.28133333333333344,0.5500000000000003
4,9,17,1,5,1.1700000000000008,8,10,2,4,3,32,5.409999999999955,2.439999999999992,0.9000000000000006,0.5000000000000002,14,4,2,1,20,12,2,1,6,0.5,23,7,Hc,0.27050000000000013,0.2033333333333334,0.4500000000000002,0.5000000000000002
4,9,18,1,3,2.9199999999999817,16,23,48,41,47,66,5.249999999999976,1.0300000000000007,6.079999999999915,7.399999999999887,18,2,7,8,26,4,12,18,5,0.5,19,7,Hc,0.201923076923077,0.2575000000000001,0.5066666666666669,0.4111111111111113
4,10,19,1,3,1.8100000000000014,3,7,68,72,15,63,6.2799999999999505,7.989999999999874,0.7200000000000004,1.440000000000001,9,7,1,3,19,16,1,3,5,0.5,18,7,Hc,0.33052631578947383,0.49937500000000007,0.7200000000000004,0.48000000000000026
4,10,20,1,6,1.7100000000000013,8,9,103,98,58,108,4.079999999999995,2.809999999999984,2.8799999999999826,1.0500000000000007,10,2,5,4,12,18,12,5,4,0.5,10,7,Hc,0.3400000000000002,0.15611111111111114,0.24000000000000007,0.21000000000000008
4,11,21,1,7,2.2699999999999956,19,26,72,100,91,70,9.34999999999989,2.239999999999996,0.34000000000000014,1.360000000000001,20,3,2,3,48,7,3,6,3,0,13,7,Hc,0.19479166666666675,0.3200000000000001,0.11333333333333336,0.22666666666666674
4,11,22,1,8,1.350000000000001,2,6,119,57,59,56,3.599999999999997,5.619999999999925,0.5700000000000003,0.34000000000000014,4,3,2,1,12,17,3,1,2,0.5,14,7,Hc,0.30000000000000016,0.3305882352941178,0.19000000000000006,0.34000000000000014
4,12,23,1,4,0.9700000000000006,10,11,106,20,63,19,8.549999999999883,4.589999999999947,0.17,0.5500000000000003,19,5,1,1,27,12,1,1,2,0,18,7,Hc,0.3166666666666668,0.3825000000000002,0.17,0.5500000000000003
4,12,24,1,7,6.359999999999909,16,31,56,35,117,28,10.789999999999859,0.5300000000000002,6.719999999999901,1.2200000000000009,19,1,3,3,38,1,17,8,3,0,16,7,Hc,0.2839473684210528,0.5300000000000002,0.395294117647059,0.15250000000000005
4,13,25,1,3,3.649999999999966,10,21,38,87,114,111,14.819999999999773,9.719999999999837,0.03,0.9200000000000006,19,10,1,3,41,32,1,4,5,0,12,7,Hc,0.36146341463414655,0.30375000000000013,0.03,0.2300000000000001
4,13,26,1,4,1.5300000000000011,2,9,106,57,54,33,10.279999999999859,1.360000000000001,2.859999999999983,1.7700000000000014,9,2,5,2,35,5,14,4,2,0,15,7,Hc,0.2937142857142858,0.2720000000000001,0.20428571428571435,0.4425000000000002
4,14,27,1,7,0.3900000000000002,2,3,86,44,39,95,5.079999999999945,5.979999999999917,0.5200000000000002,0.6600000000000004,7,6,2,2,18,21,3,4,3,0,16,7,Hc,0.2822222222222223,0.2847619047619049,0.17333333333333337,0.16500000000000004
4,14,28,1,5,0.2900000000000001,7,7,6,119,12,9,17.069999999999823,0.07,0.04,0.04,20,1,1,1,50,1,1,1,6,0.5,20,7,Hc,0.34140000000000015,0.07,0.04,0.04
4,15,29,1,6,0.36000000000000015,2,3,50,58,57,51,2.44,4.269999999999953,0.6500000000000004,1.7800000000000014,6,6,3,5,11,11,4,5,4,1,48,7,Hc,0.22181818181818191,0.38818181818181835,0.16250000000000003,0.35600000000000015
4,15,30,1,9,2.4999999999999907,12,22,113,34,25,114,13.399999999999803,3.979999999999959,1.5200000000000011,2.6899999999999866,20,7,4,7,57,11,4,10,4,0,14,7,Hc,0.2350877192982457,0.36181818181818204,0.38000000000000017,0.26900000000000013
4,16,31,1,6,0.5400000000000003,2,4,56,117,11,1,4.579999999999958,6.28999999999991,1.1100000000000008,0.34000000000000014,5,8,3,1,16,21,4,1,4,0,18,7,Hc,0.2862500000000001,0.29952380952380964,0.2775000000000001,0.34000000000000014
4,16,32,1,2,4.529999999999948,5,15,81,98,46,43,6.949999999999941,7.159999999999892,1.7300000000000013,0.6400000000000003,7,5,2,2,21,14,3,3,3,0,15,7,Hc,0.3309523809523811,0.5114285714285717,0.576666666666667,0.2133333333333334
4,17,33,1,2,1.1400000000000008,4,7,61,46,78,82,2.2200000000000015,10.189999999999827,0.17,0.6400000000000003,5,6,1,4,8,32,1,6,3,0,15,7,Hc,0.27750000000000014,0.31843750000000015,0.17,0.10666666666666667
4,17,34,1,5,0.5700000000000003,3,4,51,9,52,53,3.11999999999999,3.4899999999999696,5.8599999999999195,1.1800000000000008,7,4,7,4,11,4,14,6,6,0.5,18,7,Hc,0.28363636363636374,0.8725000000000006,0.41857142857142876,0.19666666666666674
4,18,35,1,7,0.38000000000000017,2,3,87,96,90,92,15.089999999999732,0.9900000000000007,4.979999999999938,5.979999999999917,12,3,9,12,37,4,14,21,3,1,36,7,Hc,0.40783783783783806,0.24750000000000008,0.3557142857142859,0.2847619047619049
4,18,36,1,3,0.7000000000000004,2,5,51,52,2,47,7.849999999999892,2.3299999999999943,0.9500000000000006,0.2800000000000001,6,4,2,1,21,10,3,1,5,0,19,7,Hc,0.373809523809524,0.2330000000000001,0.3166666666666668,0.2800000000000001
4,19,37,1,1,0.5300000000000002,2,3,29,71,101,105,5.609999999999936,0.9000000000000006,1.420000000000001,4.159999999999956,7,3,2,4,25,4,4,7,5,0,13,7,Hc,0.2244000000000001,0.2250000000000001,0.3550000000000002,0.5942857142857146
4,19,38,1,6,0.9800000000000006,2,8,42,49,2,1,12.589999999999797,0.26000000000000006,1.9900000000000015,2.010000000000001,12,1,6,3,34,1,7,3,4,0,21,7,Hc,0.370294117647059,0.26000000000000006,0.28428571428571436,0.6700000000000004
5,1,1,0,10,0.5400000000000003,2,4,18,106,52,19,2.9799999999999924,3.759999999999964,1.5300000000000011,0.20000000000000004,4,4,3,2,12,7,4,2,6,0,18,7,Hc,0.24833333333333343,0.5371428571428575,0.3825000000000002,0.09999999999999999
5,1,2,0,2,1.0000000000000007,2,7,67,30,5,26,7.8399999999998995,0.5500000000000003,0.6100000000000003,0.08,7,2,2,1,28,2,3,1,3,0,20,7,Hc,0.28000000000000014,0.2750000000000001,0.2033333333333334,0.08
5,2,3,0,9,0.9900000000000007,13,13,47,101,5,4,6.539999999999926,0.9900000000000007,2.109999999999999,5.8599999999999195,18,2,3,11,26,4,4,26,4,0,19,7,Hc,0.25153846153846166,0.24750000000000008,0.5275000000000003,0.22538461538461546
5,2,4,0,8,1.6900000000000013,18,23,117,52,29,16,4.679999999999982,1.310000000000001,0.6900000000000004,1.280000000000001,20,2,2,3,29,3,3,4,2,0,17,7,Hc,0.16137931034482764,0.43666666666666687,0.23000000000000007,0.3200000000000002
5,3,5,0,9,0.8600000000000005,2,4,41,97,44,2,6.379999999999927,1.2300000000000009,0.8000000000000005,0.4100000000000002,10,3,2,2,18,4,8,2,4,0,18,7,Hc,0.3544444444444446,0.30750000000000016,0.09999999999999999,0.20500000000000004
5,3,6,0,8,1.6800000000000013,17,23,119,112,50,15,4.7999999999999785,0.7200000000000004,0.5100000000000002,2.0500000000000003,20,2,1,3,39,2,1,3,2,0,14,7,Hc,0.1230769230769231,0.36000000000000015,0.5100000000000002,0.6833333333333338
5,4,7,0,9,0.5000000000000002,2,3,61,67,41,70,2.5700000000000003,1.1000000000000008,1.8700000000000014,0.34000000000000014,5,3,5,2,9,5,7,3,4,0.5,17,7,Hc,0.2855555555555557,0.22000000000000008,0.26714285714285724,0.11333333333333334
5,4,8,0,7,1.6200000000000012,16,19,5,52,53,112,6.969999999999931,4.059999999999958,8.399999999999865,0.05,20,5,12,2,34,10,24,2,3,0,16,7,Hc,0.20500000000000007,0.4060000000000002,0.35000000000000003,0.025
5,5,9,0,8,0.8400000000000005,2,4,23,29,119,18,6.139999999999932,1.0400000000000007,0.8400000000000005,0.20000000000000004,9,3,3,1,26,4,4,1,2,0,19,7,Hc,0.23615384615384624,0.2600000000000001,0.21000000000000008,0.20000000000000004
5,5,10,0,7,0.6500000000000004,9,9,2,90,50,85,16.029999999999717,0.01,0.02,0.01,20,1,1,1,55,1,1,1,3,0,16,7,Hc,0.2914545454545456,0.01,0.02,0.01
5,6,11,0,7,0.47000000000000025,2,3,90,94,87,47,3.1299999999999875,1.7400000000000013,1.350000000000001,0.4000000000000002,6,3,3,1,11,3,6,1,3,0.5,14,7,Hc,0.28454545454545466,0.5800000000000003,0.22500000000000006,0.4000000000000002
5,6,12,0,10,0.4200000000000002,6,6,13,16,27,17,4.559999999999956,0.4200000000000002,1.320000000000001,0.18000000000000002,10,2,1,1,21,2,2,1,6,0.5,23,7,Hc,0.21714285714285722,0.21000000000000008,0.6600000000000004,0.18000000000000002
5,7,13,1,4,1.1500000000000008,2,5,2,63,102,79,7.839999999999902,0.9100000000000006,0.4100000000000002,4.009999999999959,14,4,2,3,22,4,2,5,2,0,15,7,Hc,0.35636363636363655,0.2275000000000001,0.20500000000000007,0.8019999999999986
5,7,14,1,6,0.23000000000000007,3,3,20,49,27,60,13.939999999999753,0.01,0.01,0.17,16,1,1,2,43,1,1,2,4,0,19,7,Hc,0.3241860465116281,0.01,0.01,0.08499999999999999
5,8,15,1,3,0.3200000000000001,2,3,38,41,9,92,2.679999999999994,1.6400000000000012,1.7200000000000013,1.380000000000001,5,2,3,3,9,7,3,6,5,0,19,7,Hc,0.2977777777777779,0.23428571428571437,0.5733333333333337,0.23000000000000007
5,8,16,1,1,0.8300000000000005,11,11,25,108,84,20,3.5599999999999863,7.539999999999884,0.6800000000000004,0.8900000000000006,14,6,2,2,20,24,2,2,5,0,16,7,Hc,0.17800000000000005,0.3141666666666668,0.3400000000000002,0.44500000000000023
5,9,17,1,1,0.3900000000000002,3,4,28,24,33,19,2.2600000000000016,4.939999999999939,0.22000000000000006,0.09,5,7,2,1,10,8,2,1,5,0,22,7,Hc,0.2260000000000001,0.6175000000000004,0.10999999999999999,0.09
5,9,18,1,4,0.4200000000000002,2,3,99,39,93,107,1.8900000000000012,4.159999999999956,1.1200000000000008,0.8600000000000005,4,4,4,3,7,15,4,5,2,0,12,7,Hc,0.27000000000000013,0.27733333333333343,0.2800000000000001,0.17200000000000004
5,10,19,1,7,1.0100000000000007,14,14,87,91,93,95,7.33999999999991,0.5400000000000003,1.300000000000001,0.18000000000000002,20,2,4,2,34,2,4,2,3,1,36,7,Hc,0.21588235294117655,0.2700000000000001,0.3250000000000001,0.09
5,10,20,1,5,0.7700000000000005,3,5,4,36,98,25,15.779999999999724,0.01,0.02,0.01,16,1,1,1,49,1,1,1,6,0,18,7,Hc,0.32204081632653075,0.01,0.02,0.01
5,11,21,1,10,0.4000000000000002,2,4,16,13,18,105,1.8200000000000012,0.5600000000000003,0.37000000000000016,1.320000000000001,4,2,1,1,8,3,1,1,6,0.5,20,7,Hc,0.22750000000000006,0.18666666666666673,0.37000000000000016,1.320000000000001
5,11,22,1,5,0.6700000000000004,6,7,40,79,82,1,8.84999999999987,2.949999999999981,0.35000000000000014,0.4400000000000002,15,4,2,2,28,6,2,2,6,0,17,7,Hc,0.3160714285714287,0.4916666666666669,0.17500000000000004,0.2200000000000001
5,12,23,1,7,0.13999999999999999,2,2,15,88,18,17,15.099999999999726,0.01,0.19000000000000003,0.01,14,1,1,1,32,1,1,1,3,0.5,21,7,Hc,0.4718750000000002,0.01,0.19000000000000003,0.01
5,12,24,1,4,4.579999999999947,8,18,103,99,35,11,5.739999999999948,0.3000000000000001,1.9600000000000015,0.2700000000000001,10,1,3,1,30,1,4,1,2,0,15,7,Hc,0.1913333333333334,0.3000000000000001,0.4900000000000002,0.2700000000000001
5,13,25,1,7,4.249999999999954,8,19,9,87,103,10,7.689999999999925,2.4599999999999915,0.22000000000000006,1.1400000000000008,13,3,1,3,29,9,1,7,3,0,17,7,Hc,0.2651724137931036,0.27333333333333343,0.22000000000000006,0.1628571428571429
5,13,26,1,2,0.4400000000000002,2,5,83,66,72,62,3.499999999999979,0.8300000000000005,0.9100000000000006,0.4100000000000002,5,1,2,1,15,1,3,1,3,0.5,15,7,Hc,0.23333333333333342,0.8300000000000005,0.30333333333333345,0.4100000000000002
5,14,27,1,6,0.8400000000000005,10,11,87,88,86,50,4.089999999999975,4.87999999999994,2.4199999999999924,0.2700000000000001,15,7,4,2,18,12,8,2,4,0.5,13,7,Hc,0.22722222222222233,0.40666666666666684,0.30250000000000016,0.13500000000000004
5,14,28,1,10,0.8200000000000005,11,12,15,17,64,65,3.38999999999999,15.569999999999713,5.889999999999919,1.2300000000000009,13,15,9,3,19,34,14,4,6,0,20,7,Hc,0.178421052631579,0.45794117647058846,0.42071428571428593,0.30750000000000016
5,15,29,1,7,0.9200000000000006,2,7,4,28,72,91,7.149999999999912,1.440000000000001,0.45000000000000023,0.060000000000000005,11,3,2,1,30,4,3,1,3,0,18,7,Hc,0.23833333333333342,0.36000000000000015,0.15000000000000002,0.060000000000000005
5,15,30,1,6,0.11999999999999998,2,2,16,50,51,58,24.010000000000936,0.4100000000000002,0.46000000000000024,0.01,20,3,2,1,69,4,2,1,4,0.5,18,7,Hc,0.3479710144927538,0.10250000000000001,0.23000000000000012,0.01
5,16,31,1,1,7.399999999999887,9,28,65,86,23,35,8.479999999999887,2.6899999999999866,0.6600000000000004,0.26000000000000006,11,3,2,2,30,11,3,2,5,0,18,7,Hc,0.2826666666666668,0.24454545454545465,0.22000000000000008,0.13000000000000003
5,16,32,1,6,2.5999999999999885,14,21,41,1,4,84,8.739999999999903,3.45999999999997,6.7499999999999005,4.039999999999958,20,5,14,11,35,7,21,14,4,0,20,7,Hc,0.24971428571428572,0.49428571428571455,0.32142857142857156,0.2885714285714287
5,17,33,1,9,0.5300000000000002,2,4,72,64,30,62,2.7299999999999973,0.8600000000000005,0.9300000000000006,1.1500000000000008,4,4,2,4,13,5,2,5,4,0.5,17,7,Hc,0.21000000000000008,0.17200000000000007,0.4650000000000003,0.2300000000000001
5,17,34,1,7,2.629999999999988,20,27,91,11,9,5,5.599999999999969,0.37000000000000016,2.399999999999993,3.8799999999999613,20,2,4,6,37,2,4,11,3,0.5,21,7,Hc,0.1513513513513514,0.18500000000000003,0.6000000000000003,0.3527272727272729
5,18,35,1,4,1.0700000000000007,4,7,107,6,44,37,2.5500000000000016,1.8600000000000014,0.49000000000000027,0.5600000000000003,6,2,2,2,13,5,2,3,2,0,18,7,Hc,0.1961538461538462,0.37200000000000016,0.2450000000000001,0.1866666666666667
5,18,36,1,10,0.49000000000000027,6,7,16,24,14,95,3.369999999999983,0.34000000000000014,6.439999999999907,2.0000000000000013,8,1,8,6,17,1,19,6,6,0.5,21,7,Hc,0.19823529411764712,0.34000000000000014,0.3389473684210528,0.3333333333333335
5,19,37,1,7,0.5600000000000003,3,4,57,95,23,53,3.9499999999999718,0.6400000000000003,0.6900000000000004,0.4300000000000002,7,3,2,1,13,4,3,1,3,0,17,7,Hc,0.303846153846154,0.16000000000000003,0.23000000000000007,0.4300000000000002
5,19,38,1,4,0.6100000000000003,2,3,103,102,100,9,7.319999999999902,0.37000000000000016,1.0800000000000007,1.310000000000001,12,2,5,4,21,2,5,6,2,0.5,12,7,Hc,0.34857142857142875,0.18500000000000003,0.2160000000000001,0.2183333333333334
5,20,39,1,9,1.0500000000000007,14,15,69,62,14,65,4.249999999999977,0.48000000000000026,1.1700000000000008,1.0700000000000007,20,1,2,3,26,1,4,3,4,0.5,18,7,Hc,0.16346153846153852,0.48000000000000026,0.2925000000000001,0.3566666666666668
5,20,40,1,1,1.1900000000000008,2,7,107,79,30,27,4.9099999999999655,2.389999999999993,0.3300000000000001,0.18000000000000002,7,2,1,1,19,9,1,1,5,0,15,7,Hc,0.25842105263157905,0.26555555555555566,0.3300000000000001,0.18000000000000002
6,1,1,0,7,0.49000000000000027,2,3,54,2,93,113,11.349999999999813,0.6300000000000003,0.16,1.5200000000000011,10,1,1,2,24,2,1,4,3,0,15,7,Hc,0.47291666666666693,0.3150000000000001,0.16,0.38000000000000017
6,1,2,0,10,0.37000000000000016,2,3,19,18,106,61,4.8299999999999494,1.9600000000000015,6.079999999999915,0.9600000000000006,4,2,5,2,16,5,17,2,6,0,18,7,Hc,0.3018750000000001,0.3920000000000002,0.3576470588235296,0.48000000000000026
6,2,3,0,3,0.45000000000000023,2,3,114,46,14,91,7.639999999999891,3.0599999999999787,2.5499999999999896,0.45000000000000023,7,2,3,1,23,10,6,1,5,0,16,7,Hc,0.33217391304347843,0.3060000000000001,0.4250000000000002,0.45000000000000023
6,2,4,0,1,0.7300000000000004,2,4,26,68,64,101,4.009999999999975,6.339999999999909,3.089999999999978,0.38000000000000017,4,3,3,2,16,18,7,2,5,0,15,7,Hc,0.2506250000000001,0.3522222222222224,0.44142857142857167,0.19
6,3,5,0,9,1.2000000000000008,2,7,68,114,72,6,7.179999999999918,4.209999999999955,3.1199999999999775,2.0400000000000005,7,5,6,5,29,10,10,12,4,0,16,7,Hc,0.24758620689655184,0.4210000000000002,0.3120000000000001,0.17000000000000004
6,3,6,0,1,0.5100000000000002,3,3,13,60,30,49,31.820000000002096,0.01,0.02,0.01,20,1,1,1,83,1,1,1,5,0,19,7,Hc,0.38337349397590365,0.01,0.02,0.01
6,4,7,0,6,1.9200000000000015,2,6,56,27,9,2,5.7999999999999625,1.320000000000001,3.4099999999999713,4.549999999999947,7,2,3,4,20,3,6,16,4,0,21,7,Hc,0.29000000000000015,0.4400000000000002,0.5683333333333337,0.2843750000000001
6,4,8,0,3,12.189999999999785,16,40,16,42,48,14,12.649999999999785,0.37000000000000016,3.45999999999997,2.899999999999982,17,1,3,6,41,1,11,9,5,0,22,7,Hc,0.3085365853658538,0.37000000000000016,0.3145454545454547,0.32222222222222235
6,5,9,0,2,0.21000000000000005,2,2,2,77,25,9,15.519999999999719,0.04,0.7000000000000004,0.08,11,1,2,1,44,1,2,1,3,0,20,7,Hc,0.3527272727272729,0.04,0.3500000000000002,0.08
6,5,10,0,3,0.9000000000000006,2,5,42,39,43,55,5.029999999999957,0.7600000000000005,1.400000000000001,5.979999999999917,6,1,2,7,16,1,5,11,5,0.5,19,7,Hc,0.3143750000000001,0.7600000000000005,0.2800000000000001,0.5436363636363639
6,6,11,0,6,1.5800000000000012,4,8,17,46,22,58,5.009999999999972,3.8099999999999627,0.47000000000000025,1.340000000000001,8,3,2,3,17,9,3,6,4,0,21,7,Hc,0.2947058823529413,0.42333333333333356,0.15666666666666668,0.22333333333333344
6,6,12,0,5,1.500000000000001,18,21,25,9,5,4,6.679999999999935,5.459999999999928,0.4400000000000002,1.1700000000000008,20,3,1,3,28,21,1,3,6,0.5,23,7,Hc,0.23857142857142868,0.2600000000000001,0.4400000000000002,0.3900000000000002
6,7,13,1,1,0.16,3,3,16,73,28,25,23.69000000000088,0.05,0.37000000000000016,0.02,17,1,2,2,61,1,2,2,5,0,19,7,Hc,0.3883606557377051,0.05,0.18500000000000005,0.01
6,7,14,1,5,0.47000000000000025,2,3,7,60,42,5,3.47999999999998,6.819999999999899,1.5500000000000012,0.13999999999999999,4,4,3,1,10,17,6,1,6,0,21,7,Hc,0.3480000000000002,0.4011764705882355,0.2583333333333334,0.13999999999999999
6,8,15,1,3,0.3300000000000001,4,5,70,2,8,12,10.549999999999827,7.739999999999879,0.04,0.10999999999999999,14,8,1,1,29,15,1,1,5,0.5,22,7,Hc,0.36379310344827603,0.5160000000000003,0.04,0.10999999999999999
6,8,16,1,10,1.1600000000000008,6,9,14,35,84,56,11.029999999999834,7.70999999999988,0.03,0.7900000000000005,17,5,1,3,38,15,1,3,6,0,18,7,Hc,0.290263157894737,0.5140000000000003,0.03,0.2633333333333334
6,9,17,1,8,0.49000000000000027,2,4,112,116,28,57,7.209999999999901,2.819999999999984,0.8000000000000005,2.6399999999999877,11,3,2,4,23,9,4,6,2,0,13,7,Hc,0.3134782608695654,0.31333333333333346,0.20000000000000004,0.4400000000000003
6,9,18,1,3,1.5300000000000011,4,8,37,76,14,75,8.399999999999899,0.8300000000000005,0.7600000000000005,0.6200000000000003,8,1,2,2,30,2,2,2,5,0,17,7,Hc,0.28000000000000014,0.41500000000000015,0.3800000000000002,0.31000000000000016
6,10,19,1,8,2.8899999999999824,3,7,39,19,40,42,10.619999999999862,1.2000000000000008,0.8000000000000005,0.5900000000000003,9,2,2,3,28,2,3,4,2,0.5,21,7,Hc,0.3792857142857145,0.6000000000000003,0.2666666666666668,0.14750000000000005
6,10,20,1,7,0.5300000000000002,2,5,87,95,85,93,6.179999999999924,5.35999999999993,0.2700000000000001,0.17,8,7,2,1,25,13,3,1,3,1,36,7,Hc,0.24720000000000011,0.41230769230769154,0.09,0.17
6,11,21,1,7,0.45000000000000023,2,3,20,94,89,115,1.570000000000001,2.3799999999999932,1.1800000000000008,2.9299999999999815,4,2,2,3,8,4,3,7,3,0,14,7,Hc,0.19625000000000006,0.5950000000000003,0.39333333333333353,0.41857142857142876
6,11,22,1,2,3.509999999999969,4,7,79,54,26,78,6.269999999999954,2.7499999999999853,0.8600000000000005,0.6700000000000004,8,3,2,2,13,7,2,2,3,0,15,7,Hc,0.4823076923076926,0.39285714285714307,0.43000000000000016,0.33500000000000013
6,12,23,1,7,6.119999999999914,7,25,94,53,52,57,7.0099999999999145,1.7800000000000014,2.159999999999998,1.410000000000001,9,2,2,3,27,6,5,4,3,0.5,15,7,Hc,0.25962962962962977,0.2966666666666668,0.43200000000000016,0.35250000000000015
6,12,24,1,9,2.2299999999999964,3,6,111,17,45,16,6.97999999999994,1.5300000000000011,0.5200000000000002,0.17,7,3,1,2,13,5,1,2,4,0,19,7,Hc,0.5369230769230773,0.3060000000000001,0.5200000000000002,0.08499999999999999
6,13,25,1,4,1.0700000000000007,3,6,103,84,60,48,8.449999999999887,1.330000000000001,1.0300000000000007,2.0500000000000003,6,3,3,3,26,5,4,4,2,0,14,7,Hc,0.3250000000000001,0.2660000000000001,0.2575000000000001,0.5125000000000003
6,13,26,1,5,0.7800000000000005,4,8,33,114,113,25,9.899999999999851,1.5500000000000012,0.5100000000000002,1.310000000000001,10,3,2,2,24,4,2,2,6,0,14,7,Hc,0.41250000000000026,0.3875000000000002,0.25500000000000006,0.6550000000000005
6,14,27,1,4,0.8700000000000006,2,7,53,101,98,30,5.489999999999947,1.5400000000000011,2.159999999999998,0.7400000000000004,7,2,3,2,20,4,5,3,2,0,13,7,Hc,0.27450000000000013,0.3850000000000002,0.43200000000000016,0.24666666666666678
6,14,28,1,10,0.24000000000000007,5,6,24,18,13,15,0.6000000000000002,0.2800000000000001,8.60999999999986,1.2500000000000009,7,1,8,3,8,1,20,5,6,1,72,7,Hc,0.07500000000000001,0.2800000000000001,0.4305000000000002,0.2500000000000001
6,15,29,1,2,0.8900000000000006,3,6,84,77,53,34,6.709999999999921,0.9400000000000006,0.5300000000000002,0.7400000000000004,5,2,2,2,26,3,2,4,3,0,15,7,Hc,0.25807692307692315,0.31333333333333346,0.26500000000000007,0.18500000000000005
6,15,30,1,8,0.8200000000000005,2,4,117,116,93,86,7.3499999999999055,4.279999999999953,5.0599999999999365,2.249999999999996,13,7,6,4,22,10,10,4,2,0,10,7,Hc,0.33409090909090927,0.4280000000000002,0.5060000000000002,0.5625000000000003
6,16,31,1,2,0.10999999999999999,2,2,15,66,74,107,36.820000000001265,0.02,0.01,0.02,20,1,1,2,104,1,1,2,3,0,15,7,Hc,0.35403846153846164,0.02,0.01,0.01
6,16,32,1,7,0.7500000000000004,4,5,32,28,94,30,4.489999999999965,1.340000000000001,2.579999999999989,3.429999999999971,7,3,2,6,20,7,9,7,3,0.5,18,7,Hc,0.2245000000000001,0.1914285714285715,0.2866666666666668,0.49000000000000027
6,17,33,1,10,0.6400000000000003,2,4,61,75,70,31,8.729999999999873,0.3100000000000001,1.290000000000001,0.8900000000000006,6,2,2,2,37,2,5,6,6,0,16,7,Hc,0.23594594594594603,0.155,0.25800000000000006,0.14833333333333334
6,17,34,1,3,0.49000000000000027,2,4,38,92,39,40,3.9999999999999694,2.899999999999982,0.35000000000000014,1.8400000000000014,7,6,1,4,14,11,1,6,5,0.5,18,7,Hc,0.28571428571428586,0.2636363636363637,0.35000000000000014,0.3066666666666668
6,18,35,1,8,0.45000000000000023,2,3,18,115,21,34,2.709999999999996,0.9600000000000006,1.480000000000001,2.7399999999999856,4,1,3,2,14,1,5,8,2,0,19,7,Hc,0.19357142857142862,0.9600000000000006,0.2960000000000001,0.34250000000000014
6,18,36,1,5,1.1200000000000008,3,6,5,2,86,10,3.399999999999996,16.6399999999998,0.02,0.03,5,11,1,1,14,41,1,1,6,0.5,21,7,Hc,0.24285714285714297,0.40585365853658556,0.02,0.03
6,19,37,1,5,0.8300000000000005,3,7,43,12,58,50,6.069999999999933,0.9500000000000006,1.330000000000001,0.3200000000000001,9,2,2,2,20,3,7,2,6,0,19,7,Hc,0.30350000000000016,0.31666666666666676,0.19000000000000003,0.16
6,19,38,1,9,0.7500000000000004,2,3,61,31,71,74,8.059999999999889,3.179999999999976,1.360000000000001,1.5900000000000012,6,3,4,4,30,6,4,6,4,0,16,7,Hc,0.2686666666666668,0.53,0.34000000000000014,0.2650000000000001
7,1,1,0,1,0.5700000000000003,2,3,114,1,29,30,3.3599999999999848,0.8400000000000005,0.18000000000000002,0.12999999999999998,5,2,1,1,8,2,1,1,5,0,18,7,Hc,0.4200000000000002,0.4200000000000002,0.18000000000000002,0.12999999999999998
7,1,2,0,10,0.7500000000000004,4,6,20,23,38,21,2.1200000000000014,1.7300000000000013,0.21000000000000005,2.959999999999981,6,3,1,4,9,4,1,5,6,0.5,23,7,Hc,0.23555555555555563,0.4325000000000002,0.21000000000000005,0.5920000000000004
7,2,3,0,5,0.8200000000000005,2,5,103,42,97,6,5.7099999999999405,0.5700000000000003,0.16,0.08,6,2,1,1,24,2,1,1,6,0,15,7,Hc,0.23791666666666675,0.2850000000000001,0.16,0.08
7,2,4,0,1,1.0300000000000007,2,5,73,67,34,15,5.04999999999996,0.7700000000000005,0.09999999999999999,2.619999999999988,5,3,2,3,18,4,2,6,5,0,18,7,Hc,0.28055555555555567,0.19250000000000006,0.05,0.4366666666666669
7,3,5,0,9,0.9500000000000006,2,6,72,84,61,25,3.0100000000000007,2.0500000000000003,0.17,0.49000000000000027,5,2,1,2,14,8,1,3,4,0,16,7,Hc,0.21500000000000008,0.2562500000000001,0.17,0.16333333333333333
7,3,6,0,8,0.4200000000000002,2,4,116,39,96,60,2.8899999999999917,1.6700000000000013,2.6999999999999864,0.36000000000000015,4,3,6,1,12,7,9,1,2,0,14,7,Hc,0.24083333333333343,0.23857142857142863,0.30000000000000016,0.36000000000000015
7,4,7,0,3,0.7700000000000005,2,5,86,94,62,70,4.189999999999971,0.9300000000000006,0.6100000000000003,0.24000000000000007,6,2,2,1,17,5,3,1,5,0,14,7,Hc,0.24647058823529422,0.18600000000000005,0.20333333333333337,0.24000000000000007
7,4,8,0,6,0.7000000000000004,5,6,55,57,58,49,2.8499999999999988,0.6400000000000003,3.229999999999975,2.3799999999999932,7,2,6,2,14,3,9,2,4,1,48,7,Hc,0.20357142857142865,0.2133333333333334,0.35888888888888903,1.1899999999999966
7,5,9,0,6,0.9900000000000007,14,16,49,52,31,25,2.0100000000000016,1.260000000000001,6.28999999999991,1.5200000000000011,17,4,9,7,20,4,17,8,4,0,18,7,Hc,0.10050000000000003,0.31500000000000017,0.3700000000000002,0.19000000000000006
7,5,10,0,9,0.37000000000000016,2,3,67,93,88,63,2.44,2.339999999999994,1.9900000000000015,0.02,4,3,2,1,11,5,2,1,4,0,14,7,Hc,0.22181818181818191,0.46800000000000025,0.9950000000000007,0.02
7,6,11,0,4,1.1600000000000008,15,18,106,80,108,99,2.530000000000002,1.7900000000000014,0.19000000000000003,0.16,17,3,1,2,24,6,1,3,2,0.5,9,7,Hc,0.1054166666666667,0.29833333333333345,0.19000000000000003,0.05333333333333334
7,6,12,0,7,0.36000000000000015,2,3,89,96,62,111,1.8600000000000012,0.9600000000000006,4.989999999999938,0.7300000000000004,5,2,9,3,7,4,11,3,3,0,12,7,Hc,0.26571428571428585,0.24000000000000005,0.4536363636363639,0.24333333333333346
7,7,13,1,2,1.1400000000000008,2,6,66,74,64,67,3.6599999999999913,0.3100000000000001,0.8400000000000005,0.46000000000000024,5,2,2,3,15,3,3,3,3,0.5,15,7,Hc,0.24400000000000008,0.10333333333333335,0.2800000000000001,0.15333333333333338
7,7,14,1,6,0.4300000000000002,2,4,58,49,50,85,1.7900000000000011,1.270000000000001,1.470000000000001,1.8500000000000014,4,2,4,6,7,3,4,9,4,0.5,15,7,Hc,0.25571428571428584,0.4233333333333335,0.36750000000000016,0.20555555555555566
7,8,15,1,1,0.4200000000000002,2,3,27,15,30,36,2.639999999999997,2.4499999999999917,0.07,0.7300000000000004,5,3,1,3,11,7,1,4,5,0.5,21,7,Hc,0.2400000000000001,0.3500000000000002,0.07,0.18250000000000005
7,8,16,1,3,2.6499999999999875,7,10,38,50,7,37,3.389999999999988,0.46000000000000024,3.3399999999999728,0.01,11,1,4,1,18,1,9,1,5,0,20,7,Hc,0.1883333333333334,0.46000000000000024,0.3711111111111113,0.01
7,9,17,1,8,0.8200000000000005,2,5,115,63,116,67,3.019999999999998,2.0799999999999996,0.4200000000000002,0.24000000000000007,5,4,2,2,15,6,2,2,2,0,12,7,Hc,0.2013333333333334,0.34666666666666685,0.21000000000000005,0.11999999999999998
7,9,18,1,4,0.3300000000000001,2,3,103,41,56,59,1.3700000000000008,1.5900000000000012,0.47000000000000025,0.5200000000000002,4,2,2,2,5,7,3,2,2,0,15,7,Hc,0.27400000000000013,0.2271428571428572,0.1566666666666667,0.26000000000000006
7,10,19,1,9,0.49000000000000027,2,3,70,5,63,7,2.0400000000000014,1.360000000000001,1.0600000000000007,1.1800000000000008,7,3,2,4,11,7,5,6,4,0,20,7,Hc,0.1854545454545455,0.19428571428571437,0.21200000000000005,0.19666666666666674
7,10,20,1,3,0.35000000000000014,2,5,43,50,54,110,4.239999999999961,0.7000000000000004,0.38000000000000017,0.7000000000000004,6,2,2,2,18,4,5,2,5,0,15,7,Hc,0.23555555555555566,0.17500000000000002,0.076,0.3500000000000002
7,11,21,1,8,0.5400000000000003,5,6,116,83,52,79,2.3400000000000016,1.6800000000000013,0.3100000000000001,2.2199999999999966,7,3,1,3,14,6,1,3,2,0,12,7,Hc,0.1671428571428572,0.28000000000000014,0.3100000000000001,0.7400000000000004
7,11,22,1,7,0.7000000000000004,2,6,93,41,95,94,2.3100000000000014,2.0300000000000007,0.2800000000000001,0.09999999999999999,4,3,2,1,12,5,2,1,3,0.5,14,7,Hc,0.19250000000000006,0.4060000000000002,0.14,0.09999999999999999
7,12,23,1,9,0.5300000000000002,2,5,63,101,61,46,2.5700000000000007,3.759999999999964,0.02,0.09,5,6,1,1,11,7,1,1,4,0,15,7,Hc,0.2336363636363637,0.5371428571428575,0.02,0.09
7,12,24,1,1,0.7200000000000004,2,6,50,87,55,96,2.2500000000000018,1.1300000000000008,0.7900000000000005,0.3200000000000001,4,3,3,2,9,3,5,2,5,0,14,7,Hc,0.2500000000000001,0.3766666666666668,0.15800000000000003,0.16000000000000003
7,13,25,1,1,0.9400000000000006,11,12,27,9,8,49,1.9900000000000013,9.409999999999844,0.2800000000000001,0.24000000000000007,13,11,2,1,14,29,2,1,5,0,21,7,Hc,0.14214285714285718,0.3244827586206898,0.14000000000000004,0.24000000000000007
7,13,26,1,4,0.7900000000000005,2,4,97,64,68,44,4.099999999999974,0.4100000000000002,2.2299999999999964,0.05,5,2,3,2,12,3,3,2,2,0,15,7,Hc,0.3416666666666668,0.1366666666666667,0.7433333333333338,0.025
7,14,27,1,8,0.26000000000000006,2,3,113,114,118,42,0.7600000000000002,0.9700000000000006,0.3200000000000001,2.629999999999988,3,3,1,4,4,3,1,7,2,0.5,11,7,Hc,0.19000000000000006,0.3233333333333335,0.3200000000000001,0.37571428571428594
7,14,28,1,5,0.6300000000000003,13,14,64,102,82,4,5.649999999999938,0.9300000000000006,2.0300000000000007,1.0500000000000007,19,3,5,3,23,4,6,3,6,0,15,7,Hc,0.2456521739130434,0.2325000000000001,0.33833333333333354,0.3500000000000002
7,15,29,1,10,0.9400000000000006,9,11,24,21,20,102,2.5900000000000016,1.450000000000001,3.46999999999997,0.35000000000000014,11,4,7,3,17,4,10,3,6,0.5,20,7,Hc,0.15235294117647064,0.36250000000000016,0.3470000000000002,0.11666666666666667
7,15,30,1,6,0.08,2,2,6,56,51,50,13.469999999999759,0.01,0.01,0.01,15,1,1,1,51,1,1,1,4,0.5,18,7,Hc,0.2641176470588236,0.01,0.01,0.01
7,16,31,1,9,0.8000000000000005,15,17,68,67,74,22,1.9500000000000013,0.19000000000000003,2.7999999999999843,0.7600000000000005,17,1,4,3,24,1,8,3,4,0,17,7,Hc,0.08125000000000002,0.19000000000000003,0.35000000000000014,0.2533333333333334
7,16,32,1,6,0.5400000000000003,2,5,54,95,93,5,1.3200000000000007,0.9900000000000007,1.0300000000000007,0.4100000000000002,3,2,2,3,6,4,6,5,4,0,16,7,Hc,0.22000000000000008,0.24750000000000008,0.1716666666666667,0.082
7,17,33,1,5,0.34000000000000014,2,2,2,72,35,86,9.049999999999859,0.01,0.3200000000000001,0.01,14,1,2,1,39,1,2,1,6,0,18,7,Hc,0.23205128205128214,0.01,0.16000000000000003,0.01
7,17,34,1,10,0.7700000000000005,3,4,109,38,75,22,2.2600000000000016,1.0800000000000007,1.8000000000000014,0.20000000000000004,5,2,2,2,9,2,6,2,6,0,16,7,Hc,0.2511111111111112,0.5400000000000003,0.3000000000000001,0.1
7,18,35,1,6,1.7000000000000013,4,12,55,11,81,6,3.1400000000000023,3.7399999999999642,0.16,0.05,6,5,2,1,16,16,2,1,4,0,19,7,Hc,0.19625000000000006,0.2337500000000001,0.08,0.05
7,18,36,1,1,0.2900000000000001,2,4,30,23,24,98,2.3899999999999992,1.7400000000000013,1.0300000000000007,0.4100000000000002,6,4,2,2,14,8,4,2,5,0,19,7,Hc,0.17071428571428576,0.21750000000000008,0.2575000000000001,0.20500000000000002
7,19,37,1,3,1.1800000000000008,3,6,114,22,60,53,2.070000000000001,2.2799999999999954,1.1200000000000008,0.22000000000000006,5,5,2,2,11,7,4,2,5,0,16,7,Hc,0.18818181818181823,0.32571428571428584,0.2800000000000001,0.11
7,19,38,1,7,0.8900000000000006,3,4,92,87,71,9,2.0500000000000016,1.6700000000000013,0.6400000000000003,0.37000000000000016,5,2,2,2,11,7,2,3,3,0,16,7,Hc,0.18636363636363643,0.23857142857142868,0.3200000000000002,0.12333333333333335
7,20,39,1,6,2.719999999999986,5,9,104,54,7,3,5.209999999999977,0.25000000000000006,1.490000000000001,5.289999999999932,8,1,2,9,21,1,2,10,4,0,18,7,Hc,0.2480952380952382,0.25000000000000006,0.7450000000000006,0.5289999999999997
7,20,40,1,3,6.739999999999901,11,28,47,95,86,88,6.929999999999901,2.0400000000000005,0.45000000000000023,0.10999999999999999,13,2,2,1,30,4,2,1,5,0.5,14,7,Hc,0.2310000000000001,0.5100000000000002,0.22500000000000012,0.10999999999999999
7,21,41,1,8,0.45000000000000023,2,3,6,114,10,86,2.2800000000000016,1.1900000000000008,0.37000000000000016,0.19000000000000003,5,2,2,2,10,5,2,2,2,0,17,7,Hc,0.2280000000000001,0.23800000000000007,0.18500000000000003,0.09500000000000001
7,21,42,1,10,5.8599999999999195,8,18,75,101,102,106,9.159999999999894,9.999999999999831,0.6000000000000003,1.7200000000000013,12,13,3,4,29,19,3,4,6,0.5,9,7,Hc,0.3158620689655174,0.5263157894736842,0.20000000000000007,0.4300000000000002
8,1,1,0,1,0.6600000000000004,2,5,29,34,100,4,4.119999999999971,1.330000000000001,0.8800000000000006,0.47000000000000025,5,3,2,2,19,9,4,3,5,0,18,7,Hc,0.21684210526315797,0.1477777777777778,0.2200000000000001,0.1566666666666667
8,1,2,0,10,0.8400000000000005,2,9,114,46,82,21,6.459999999999925,0.8600000000000005,0.3000000000000001,0.11999999999999998,5,3,1,1,25,3,1,1,6,0,16,7,Hc,0.25840000000000013,0.2866666666666668,0.3000000000000001,0.11999999999999998
8,2,3,0,10,0.8600000000000005,13,14,102,103,19,66,6.519999999999924,1.8100000000000014,2.1399999999999983,1.8900000000000015,16,3,5,5,45,8,8,6,6,0,14,7,Hc,0.14488888888888893,0.22625000000000006,0.2675000000000001,0.3150000000000001
8,2,4,0,6,1.1800000000000008,2,8,49,82,28,59,3.5599999999999943,3.839999999999962,0.5400000000000003,0.37000000000000016,4,4,2,2,18,16,3,2,4,0,16,7,Hc,0.19777777777777783,0.24000000000000007,0.18000000000000005,0.18500000000000003
8,3,5,0,4,0.48000000000000026,3,4,15,97,49,101,4.009999999999969,1.1300000000000008,1.0200000000000007,0.18000000000000002,5,3,2,1,17,7,3,1,2,0,14,7,Hc,0.23588235294117654,0.16142857142857148,0.34000000000000014,0.18000000000000002
8,3,6,0,5,0.4400000000000002,2,5,2,1,65,80,3.169999999999986,6.209999999999912,0.03,0.15,6,6,1,1,17,22,1,1,6,0,19,7,Hc,0.18647058823529417,0.2822727272727274,0.03,0.15
8,4,7,0,2,5.539999999999926,9,31,43,11,78,3,7.459999999999928,7.559999999999883,0.02,0.7300000000000004,12,5,1,3,35,26,1,4,3,0,20,7,Hc,0.21314285714285722,0.2907692307692309,0.02,0.18250000000000008
8,4,8,0,7,0.5500000000000003,2,4,92,87,90,62,3.849999999999974,1.5600000000000012,0.8600000000000005,1.1500000000000008,5,3,3,4,20,8,4,7,3,0.5,13,7,Hc,0.19250000000000006,0.19500000000000006,0.21500000000000005,0.1642857142857143
8,5,9,0,9,0.38000000000000017,2,3,69,71,105,1,2.4400000000000004,0.7500000000000004,2.9199999999999817,1.430000000000001,6,1,3,3,11,1,15,9,4,0,16,7,Hc,0.22181818181818191,0.7500000000000004,0.19466666666666674,0.1588888888888889
8,5,10,0,2,1.390000000000001,16,19,22,82,57,75,8.999999999999883,0.03,1.0500000000000007,1.1500000000000008,20,1,3,3,48,1,3,8,3,0,16,7,Hc,0.18750000000000006,0.03,0.35000000000000014,0.14375000000000004
8,6,11,0,7,0.5700000000000003,2,5,99,88,24,69,4.9399999999999515,0.23000000000000007,1.1900000000000008,0.23000000000000007,4,1,3,2,24,2,5,2,3,0,15,7,Hc,0.2058333333333334,0.11499999999999999,0.2380000000000001,0.115
8,6,12,0,8,0.4000000000000002,2,3,111,2,8,3,4.31999999999996,0.9100000000000006,0.24000000000000007,2.0000000000000013,6,3,1,5,18,4,1,9,2,0.5,20,7,Hc,0.24000000000000007,0.22750000000000006,0.24000000000000007,0.22222222222222232
8,7,13,1,5,1.0500000000000007,2,5,6,2,7,42,4.799999999999965,7.429999999999886,0.01,0.5200000000000002,5,9,1,2,23,29,1,2,6,0.5,23,7,Hc,0.20869565217391312,0.25620689655172424,0.01,0.26000000000000006
8,7,14,1,1,0.35000000000000014,2,5,34,25,33,22,3.5299999999999763,0.5400000000000003,2.010000000000001,2.2199999999999966,5,2,5,3,17,2,8,3,5,0.5,21,7,Hc,0.2076470588235295,0.27000000000000013,0.2512500000000001,0.7400000000000004
8,8,15,1,8,0.9600000000000006,2,8,119,4,8,112,4.4699999999999696,2.859999999999983,0.5900000000000003,0.08,6,5,3,1,19,16,4,1,2,0,16,7,Hc,0.23526315789473695,0.17875000000000005,0.14750000000000005,0.08
8,8,16,1,7,0.6600000000000004,2,3,87,68,92,19,6.849999999999913,1.0800000000000007,2.289999999999995,0.09999999999999999,12,3,5,1,26,4,7,1,3,0,16,7,Hc,0.2634615384615386,0.2700000000000001,0.3271428571428573,0.09999999999999999
8,9,17,1,4,0.9300000000000006,6,7,102,68,19,72,2.2600000000000016,1.460000000000001,3.8099999999999627,0.7700000000000005,8,3,4,2,11,6,10,3,2,0,16,7,Hc,0.20545454545454553,0.2433333333333334,0.38100000000000017,0.25666666666666677
8,9,18,1,1,0.9800000000000006,3,8,32,28,6,91,5.4499999999999496,0.35000000000000014,0.26000000000000006,0.24000000000000007,6,1,2,1,25,1,2,1,5,0,19,7,Hc,0.21800000000000005,0.35000000000000014,0.13000000000000003,0.24000000000000007
8,10,19,1,3,1.2200000000000009,2,11,13,91,112,39,14.079999999999771,0.01,0.02,0.09999999999999999,18,1,1,3,60,1,1,3,5,0,16,7,Hc,0.23466666666666675,0.01,0.02,0.03333333333333333
8,10,20,1,1,0.7400000000000004,2,9,2,62,11,26,3.5199999999999854,2.239999999999996,2.1899999999999973,0.12999999999999998,3,4,4,2,10,5,9,2,5,0,21,7,Hc,0.3519999999999985,0.44800000000000023,0.2433333333333334,0.06499999999999999
8,11,21,1,5,0.12999999999999998,2,2,3,11,102,46,4.8599999999999435,0.4200000000000002,0.5300000000000002,0.22000000000000006,5,2,2,1,15,5,2,1,6,0,19,7,Hc,0.3240000000000002,0.084,0.26500000000000007,0.22000000000000006
8,11,22,1,7,0.6900000000000004,3,5,20,68,25,29,5.269999999999947,0.3100000000000001,1.370000000000001,2.399999999999993,7,2,2,2,22,2,6,3,3,0,20,7,Hc,0.23954545454545462,0.155,0.22833333333333342,0.8000000000000005
8,12,23,1,2,0.6100000000000003,2,7,78,15,20,84,2.6300000000000012,0.5100000000000002,1.7400000000000013,1.9200000000000015,5,1,3,3,13,1,12,11,3,0,18,7,Hc,0.20230769230769238,0.5100000000000002,0.14500000000000002,0.17454545454545461
8,12,24,1,3,3.0299999999999794,7,14,105,85,94,8,8.219999999999914,0.7800000000000005,0.11999999999999998,2.479999999999991,13,2,2,5,37,4,2,13,5,0,14,7,Hc,0.22216216216216222,0.19500000000000006,0.06,0.19076923076923083
8,13,25,1,9,1.0900000000000007,2,4,66,34,32,117,8.309999999999892,0.6600000000000004,0.24000000000000007,0.4400000000000002,8,2,1,3,32,5,1,4,4,0,16,7,Hc,0.2596875000000001,0.132,0.24000000000000007,0.10999999999999999
8,13,26,1,5,0.5300000000000002,2,3,45,47,37,56,6.039999999999927,0.7600000000000005,1.1300000000000008,0.9900000000000007,7,2,3,2,17,4,3,3,6,0.5,19,7,Hc,0.355294117647059,0.19000000000000003,0.3766666666666668,0.3300000000000001
8,14,27,1,8,1.6200000000000012,2,11,82,23,109,77,5.689999999999959,1.2300000000000009,0.5900000000000003,0.22000000000000006,6,2,2,1,22,7,4,1,2,0,14,7,Hc,0.2586363636363637,0.17571428571428574,0.14750000000000002,0.22000000000000006
8,14,28,1,7,0.4400000000000002,2,3,88,92,89,69,3.509999999999979,1.9700000000000015,0.6200000000000003,1.1900000000000008,7,8,3,6,13,11,3,7,3,0.5,13,7,Hc,0.27000000000000013,0.17909090909090913,0.20666666666666672,0.17000000000000004
8,15,29,1,3,0.6000000000000003,8,8,112,1,117,76,10.499999999999833,7.389999999999887,0.5400000000000003,1.1200000000000008,18,11,4,5,36,22,5,5,5,0,13,7,Hc,0.2916666666666668,0.33590909090909105,0.10800000000000001,0.22400000000000006
8,15,30,1,10,1.0200000000000007,2,7,13,58,90,54,13.199999999999786,0.46000000000000024,0.03,0.01,11,2,1,1,51,2,1,1,6,0,17,7,Hc,0.2588235294117648,0.23000000000000012,0.03,0.01
8,16,31,1,4,0.5900000000000003,3,4,74,102,70,106,4.029999999999971,0.4100000000000002,2.199999999999997,0.20000000000000004,7,1,3,2,16,1,6,2,2,0,11,7,Hc,0.2518750000000001,0.4100000000000002,0.3666666666666668,0.09999999999999999
8,16,32,1,5,0.5700000000000003,2,3,54,113,5,51,3.779999999999976,2.0899999999999994,0.2800000000000001,0.3100000000000001,4,2,1,2,20,11,1,2,6,0,16,7,Hc,0.18900000000000006,0.19000000000000003,0.2800000000000001,0.155
8,17,33,1,8,1.2100000000000009,17,19,117,118,55,60,3.9499999999999864,0.7200000000000004,1.8700000000000014,1.0600000000000007,19,2,2,4,30,3,6,5,2,0,12,7,Hc,0.1316666666666667,0.2400000000000001,0.31166666666666676,0.21200000000000008
8,17,34,1,3,0.6100000000000003,2,5,2,7,44,97,22.03000000000055,0.01,0.01,0.01,20,1,1,1,75,1,1,1,5,0,19,7,Hc,0.29373333333333346,0.01,0.01,0.01
8,18,35,1,4,1.1700000000000008,12,13,19,106,83,82,7.759999999999905,0.48000000000000026,0.4200000000000002,0.13999999999999999,18,3,1,1,34,3,1,1,2,0,14,7,Hc,0.22823529411764715,0.16000000000000003,0.4200000000000002,0.13999999999999999
8,18,36,1,1,0.36000000000000015,2,3,9,54,34,11,7.389999999999895,0.4300000000000002,0.3000000000000001,0.37000000000000016,9,1,2,2,21,1,2,2,5,0,21,7,Hc,0.35190476190476205,0.4300000000000002,0.15000000000000002,0.18500000000000003
8,19,37,1,6,0.5200000000000002,2,4,50,49,12,97,4.909999999999951,8.859999999999856,0.04,0.01,7,13,2,1,22,34,2,1,4,0,16,7,Hc,0.22318181818181826,0.26058823529411773,0.02,0.01
8,19,38,1,7,0.35000000000000014,7,8,14,47,16,40,9.849999999999842,0.23000000000000007,0.10999999999999999,0.8100000000000005,15,2,1,3,46,3,1,3,3,0,22,7,Hc,0.21413043478260876,0.07666666666666666,0.10999999999999999,0.27000000000000013
8,20,39,1,4,0.6300000000000003,2,4,53,107,101,102,5.129999999999949,0.2800000000000001,0.4400000000000002,1.1600000000000008,8,1,2,3,21,1,4,4,2,0.5,10,7,Hc,0.24428571428571438,0.2800000000000001,0.11000000000000001,0.2900000000000001
8,20,40,1,8,0.4100000000000002,2,3,111,23,120,90,6.189999999999921,1.1900000000000008,2.3699999999999934,0.15,9,4,6,1,23,7,7,1,2,0,13,7,Hc,0.2691304347826088,0.17000000000000004,0.33857142857142875,0.15
9,1,1,0,6,0.34000000000000014,2,3,115,79,6,51,2.4299999999999997,0.8100000000000005,0.4300000000000002,0.11999999999999998,4,3,2,1,8,3,2,1,4,0,15,7,Hc,0.30375000000000013,0.2700000000000001,0.21500000000000005,0.11999999999999998
9,1,2,0,10,0.2800000000000001,2,4,18,13,19,66,2.0900000000000016,5.099999999999936,0.01,0.01,6,8,1,1,10,22,1,1,6,0.5,22,7,Hc,0.20900000000000007,0.2318181818181819,0.01,0.01
9,2,3,0,9,0.2900000000000001,2,3,80,43,106,6,2.969999999999987,0.9500000000000006,0.5500000000000003,0.10999999999999999,6,2,2,1,12,5,3,1,4,0,16,7,Hc,0.24750000000000008,0.19000000000000006,0.18333333333333335,0.10999999999999999
9,2,4,0,10,0.2900000000000001,2,4,116,93,23,18,3.7399999999999705,0.8200000000000005,0.060000000000000005,1.320000000000001,6,2,1,4,15,2,1,6,6,0,17,7,Hc,0.24933333333333343,0.41000000000000014,0.060000000000000005,0.22000000000000008
9,3,5,0,10,0.19000000000000003,2,3,20,36,22,92,2.1800000000000015,0.9400000000000006,3.0299999999999794,0.09999999999999999,4,2,8,1,11,2,14,1,6,0,20,7,Hc,0.19818181818181824,0.4700000000000002,0.2164285714285715,0.09999999999999999
9,3,6,0,3,0.37000000000000016,2,3,39,6,42,59,2.1900000000000017,0.6400000000000003,1.1500000000000008,0.18000000000000002,5,1,3,1,11,1,7,1,5,0,20,7,Hc,0.19909090909090915,0.6400000000000003,0.1642857142857143,0.18000000000000002
9,4,7,0,6,0.25000000000000006,2,3,108,18,100,51,3.009999999999985,1.0700000000000007,0.15,0.08,5,2,1,1,11,6,1,1,4,0,14,7,Hc,0.27363636363636373,0.17833333333333337,0.15,0.08
9,4,8,0,5,0.4000000000000002,2,3,3,95,8,44,4.139999999999964,0.09999999999999999,0.16,0.17,6,1,1,1,18,1,1,1,6,0,20,7,Hc,0.2300000000000001,0.09999999999999999,0.16,0.17
9,5,9,0,8,0.26000000000000006,2,5,119,72,30,111,2.9199999999999875,0.7900000000000005,0.11999999999999998,0.11999999999999998,6,2,1,1,17,3,1,1,2,0,13,7,Hc,0.171764705882353,0.2633333333333334,0.11999999999999998,0.11999999999999998
9,5,10,0,5,0.36000000000000015,2,4,100,79,44,84,3.939999999999968,0.3200000000000001,0.4300000000000002,0.12999999999999998,7,2,2,1,12,2,2,1,6,0,13,7,Hc,0.3283333333333335,0.16,0.21500000000000002,0.12999999999999998
9,6,11,0,1,0.22000000000000006,2,3,27,34,101,16,2.6799999999999917,1.0700000000000007,0.4400000000000002,2.159999999999998,4,4,2,6,11,4,3,7,5,0,18,7,Hc,0.24363636363636373,0.2675000000000001,0.14666666666666667,0.3085714285714287
9,6,12,0,3,0.2900000000000001,2,3,120,91,42,109,2.300000000000001,1.310000000000001,0.15,0.7700000000000005,6,3,2,2,8,4,2,2,5,0,12,7,Hc,0.28750000000000014,0.3275000000000002,0.07499999999999998,0.3850000000000002
9,7,13,1,10,0.21000000000000005,2,3,87,19,110,116,3.2699999999999787,0.5100000000000002,3.2499999999999747,2.569999999999989,4,2,5,2,11,2,7,2,6,0,13,7,Hc,0.2972727272727274,0.25500000000000006,0.4642857142857145,1.2849999999999946
9,7,14,1,5,0.3300000000000001,2,6,73,25,79,50,3.0699999999999856,0.6300000000000003,0.9300000000000006,0.09,6,2,3,1,19,4,4,1,6,0,15,7,Hc,0.1615789473684211,0.15750000000000003,0.23250000000000007,0.09
9,8,15,1,5,0.24000000000000007,2,3,11,35,7,34,1.680000000000001,1.0900000000000007,0.5800000000000003,0.17,5,2,3,1,7,3,3,1,6,0,22,7,Hc,0.24000000000000007,0.3633333333333335,0.19333333333333338,0.17
9,8,16,1,8,0.5600000000000003,2,4,119,17,86,23,3.189999999999988,0.7300000000000004,0.46000000000000024,0.11999999999999998,5,3,3,1,13,6,3,1,2,0,17,7,Hc,0.24538461538461548,0.12166666666666669,0.15333333333333338,0.11999999999999998
9,9,17,1,10,0.3100000000000001,2,3,15,14,41,115,2.6299999999999946,11.329999999999803,0.060000000000000005,0.01,7,16,1,1,12,38,1,1,6,0,19,7,Hc,0.21916666666666676,0.29815789473684223,0.060000000000000005,0.01
9,9,18,1,6,0.15,2,3,51,97,55,31,1.9700000000000013,0.37000000000000016,0.3200000000000001,0.5700000000000003,4,1,1,2,7,1,1,2,4,0,15,7,Hc,0.28142857142857153,0.37000000000000016,0.3200000000000001,0.2850000000000001
9,10,19,1,9,0.22000000000000006,2,4,62,71,19,107,2.3099999999999996,0.4100000000000002,2.629999999999988,2.1199999999999988,5,1,6,4,10,1,9,4,4,0,16,7,Hc,0.2310000000000001,0.4100000000000002,0.2922222222222223,0.5300000000000004
9,10,20,1,6,0.5700000000000003,3,4,57,49,51,83,1.8700000000000012,1.280000000000001,0.3000000000000001,0.48000000000000026,6,2,1,1,8,5,1,1,4,0.5,15,7,Hc,0.2337500000000001,0.25600000000000006,0.3000000000000001,0.48000000000000026
9,11,21,1,4,0.17,2,3,108,51,27,26,1.690000000000001,1.500000000000001,0.2800000000000001,0.7500000000000004,5,3,1,5,10,5,1,5,2,0,16,7,Hc,0.16900000000000004,0.3000000000000001,0.2800000000000001,0.15000000000000002
9,11,22,1,9,0.2800000000000001,2,3,72,1,6,70,2.689999999999993,0.7300000000000004,0.4400000000000002,1.330000000000001,5,2,2,2,13,3,5,2,4,0,20,7,Hc,0.206923076923077,0.2433333333333334,0.08800000000000001,0.6650000000000005
9,12,23,1,2,0.3900000000000002,3,4,84,107,59,76,2.1500000000000017,1.410000000000001,0.25000000000000006,0.7600000000000005,6,2,2,4,9,2,2,5,3,0,12,7,Hc,0.23888888888888896,0.7050000000000004,0.12500000000000003,0.15200000000000005
9,12,24,1,7,0.4100000000000002,3,5,91,34,89,67,2.0500000000000016,0.6300000000000003,0.16,1.260000000000001,6,2,1,2,10,2,1,5,3,0,15,7,Hc,0.20500000000000007,0.3150000000000001,0.16,0.25200000000000006
9,13,25,1,1,0.22000000000000006,3,4,28,112,6,70,2.6899999999999915,0.5600000000000003,0.22000000000000006,1.1000000000000008,7,1,1,3,9,1,1,3,5,0,17,7,Hc,0.29888888888888904,0.5600000000000003,0.22000000000000006,0.3666666666666668
9,13,26,1,2,0.3100000000000001,2,3,56,76,80,99,3.1599999999999833,1.8600000000000014,0.03,0.01,8,4,1,1,14,5,1,1,3,0,12,7,Hc,0.22571428571428578,0.3720000000000002,0.03,0.01
9,14,27,1,6,0.20000000000000004,2,3,26,119,25,34,2.9599999999999853,0.6100000000000003,0.8700000000000006,0.6100000000000003,5,2,2,4,13,5,2,4,4,0.5,17,7,Hc,0.2276923076923078,0.12200000000000004,0.4350000000000002,0.15250000000000002
9,14,28,1,2,0.25000000000000006,2,4,100,5,106,97,2.2200000000000015,0.8900000000000006,0.38000000000000017,0.09,4,2,2,1,11,4,2,1,3,0.5,12,7,Hc,0.2018181818181819,0.22250000000000006,0.19000000000000003,0.09
9,15,29,1,7,0.11999999999999998,2,3,88,106,108,8,3.029999999999982,0.3300000000000001,1.2300000000000009,0.060000000000000005,7,1,5,1,10,1,7,1,3,0,13,7,Hc,0.30300000000000016,0.3300000000000001,0.17571428571428574,0.060000000000000005
9,15,30,1,8,0.38000000000000017,4,6,117,112,68,71,2.599999999999997,0.8700000000000006,1.6400000000000012,1.2000000000000008,6,2,4,3,18,3,4,3,2,0,12,7,Hc,0.1444444444444445,0.2900000000000001,0.41000000000000025,0.40000000000000024
9,16,31,1,3,0.3100000000000001,4,6,46,116,8,37,1.710000000000001,0.9300000000000006,1.0800000000000007,0.09999999999999999,7,1,3,1,11,1,5,1,5,0,18,7,Hc,0.1554545454545455,0.9300000000000006,0.21600000000000005,0.09999999999999999
9,16,32,1,9,0.36000000000000015,3,5,100,72,99,105,2.489999999999999,0.4100000000000002,0.6200000000000003,0.2900000000000001,6,1,2,3,10,1,2,3,4,0.5,10,7,Hc,0.2490000000000001,0.4100000000000002,0.3100000000000001,0.09666666666666668
9,17,33,1,8,0.23000000000000007,2,3,119,88,59,115,2.5599999999999943,0.7900000000000005,0.8100000000000005,0.08,7,2,2,1,11,3,6,1,2,0,11,7,Hc,0.2327272727272728,0.2633333333333334,0.135,0.08
9,17,34,1,9,0.19000000000000003,2,3,67,72,65,41,2.5499999999999936,1.290000000000001,0.4100000000000002,0.23000000000000007,5,4,2,1,7,5,4,1,4,0.5,17,7,Hc,0.3642857142857145,0.25800000000000006,0.10250000000000001,0.23000000000000007
9,18,35,1,9,0.23000000000000007,2,3,38,69,63,119,3.3999999999999764,0.5300000000000002,0.09999999999999999,0.16,7,5,1,1,13,5,1,1,4,0,15,7,Hc,0.2615384615384616,0.10600000000000001,0.09999999999999999,0.16
9,18,36,1,7,0.21000000000000005,2,3,86,88,101,107,2.1800000000000015,1.0400000000000007,0.18000000000000002,1.0200000000000007,5,3,1,3,9,7,1,3,3,0,10,7,Hc,0.24222222222222234,0.14857142857142858,0.18000000000000002,0.3400000000000002
9,19,37,1,8,0.37000000000000016,2,6,47,42,55,116,3.7199999999999727,0.3100000000000001,0.49000000000000027,1.420000000000001,8,1,3,4,17,1,4,4,2,0,16,7,Hc,0.2188235294117648,0.3100000000000001,0.12250000000000004,0.3550000000000002
9,19,38,1,4,0.3100000000000001,6,6,103,105,26,93,10.149999999999835,0.01,3.989999999999959,0.02,20,1,9,1,39,1,9,1,2,0,12,7,Hc,0.2602564102564104,0.01,0.4433333333333336,0.02
9,20,39,1,8,1.0100000000000007,3,7,44,69,42,120,4.619999999999967,0.2700000000000001,1.280000000000001,0.01,11,2,3,1,29,3,3,1,2,0,16,7,Hc,0.15931034482758624,0.09000000000000001,0.4266666666666669,0.01
9,20,40,1,5,0.15,2,3,2,52,106,103,4.869999999999944,0.04,0.05,0.08,7,1,1,1,14,1,1,1,6,0,14,7,Hc,0.34785714285714303,0.04,0.05,0.08
9,21,41,1,6,0.5200000000000002,2,3,1,6,9,3,3.6799999999999766,0.9600000000000006,0.20000000000000004,0.04,5,3,2,1,16,3,2,1,4,1,72,7,Hc,0.23000000000000007,0.3200000000000001,0.1,0.04
9,21,42,1,7,0.46000000000000024,2,3,117,87,68,111,2.390000000000002,0.45000000000000023,0.7300000000000004,0.37000000000000016,6,1,2,2,12,1,6,2,3,0,11,7,Hc,0.19916666666666674,0.45000000000000023,0.12166666666666669,0.18500000000000003
10,1,1,0,5,0.6300000000000003,2,11,12,6,100,97,1.9800000000000013,0.3000000000000001,0.13999999999999999,0.3100000000000001,7,3,3,3,36,6,4,6,6,0,16,7,Hc,0.055,0.05,0.035,0.051666666666666666
10,1,2,0,8,0.47000000000000025,8,9,13,31,79,33,5.149999999999945,0.01,0.01,0.01,20,1,1,1,110,1,1,1,2,0,19,7,Hc,0.046818181818181814,0.01,0.01,0.01
10,2,3,0,7,0.6900000000000004,2,18,5,89,93,120,1.9900000000000013,0.17,1.280000000000001,0.4000000000000002,5,2,7,5,44,3,32,12,3,0,14,7,Hc,0.04522727272727273,0.056666666666666664,0.04,0.03333333333333333
10,2,4,0,2,0.7000000000000004,15,17,106,38,102,54,2.2300000000000013,1.280000000000001,0.01,0.04,20,6,1,1,46,29,1,1,3,0,13,7,Hc,0.04847826086956522,0.04413793103448276,0.01,0.04
10,3,5,0,7,0.9300000000000006,2,18,85,108,104,50,2.4700000000000015,0.10999999999999999,0.18000000000000002,0.15,5,2,2,2,52,4,6,2,3,0,11,7,Hc,0.0475,0.0275,0.030000000000000002,0.075
10,3,6,0,9,1.0900000000000007,15,26,82,84,73,71,3.599999999999991,0.04,0.03,0.02,19,2,1,1,84,2,1,1,4,0.5,13,7,Hc,0.04285714285714286,0.02,0.03,0.02
10,4,7,0,1,1.1000000000000008,3,35,32,34,104,36,1.8000000000000012,1.0700000000000007,0.2900000000000001,0.07,5,4,3,1,55,21,6,1,5,0.5,17,7,Hc,0.03272727272727273,0.05095238095238095,0.04833333333333334,0.07
10,4,8,0,6,0.9700000000000006,2,23,10,40,78,9,2.5500000000000016,0.3200000000000001,0.17,0.09,7,3,2,2,50,6,7,6,4,0,20,7,Hc,0.051000000000000004,0.05333333333333333,0.024285714285714285,0.015
10,5,9,0,4,0.6600000000000004,3,8,77,49,25,59,2.540000000000002,0.13999999999999999,0.08,0.5500000000000003,8,2,3,4,52,4,4,9,2,0,16,7,Hc,0.048846153846153845,0.035,0.02,0.06111111111111111
10,5,10,0,9,0.5100000000000002,2,10,67,1,61,39,1.8000000000000012,0.37000000000000016,0.18000000000000002,0.5300000000000002,5,4,2,3,43,9,6,14,4,0,19,7,Hc,0.04186046511627907,0.04111111111111111,0.03,0.03785714285714286
10,6,11,0,4,0.7800000000000005,2,16,29,53,19,54,2.4300000000000015,0.35000000000000014,0.5800000000000003,0.03,9,2,6,1,50,7,10,1,2,0,19,7,Hc,0.048600000000000004,0.05,0.058,0.03
10,6,12,0,2,0.4300000000000002,10,13,76,79,4,38,2.0500000000000016,0.060000000000000005,0.3100000000000001,0.11999999999999998,12,1,2,2,46,1,5,3,3,0,17,7,Hc,0.04456521739130435,0.060000000000000005,0.062,0.04
10,7,13,1,9,0.6900000000000004,3,17,72,64,32,29,1.9000000000000012,0.12999999999999998,0.3000000000000001,0.2900000000000001,5,2,2,4,44,3,5,7,4,0,18,7,Hc,0.04318181818181818,0.043333333333333335,0.06,0.041428571428571426
10,7,14,1,3,0.6100000000000003,10,15,119,120,93,16,3.259999999999988,0.2800000000000001,0.2800000000000001,0.7900000000000005,17,4,4,10,70,6,7,15,5,0,13,7,Hc,0.04657142857142857,0.04666666666666666,0.04,0.05266666666666667
10,8,15,1,2,0.8500000000000005,2,19,84,82,80,39,1.3300000000000007,0.9000000000000006,0.3300000000000001,0.25000000000000006,4,5,2,2,29,19,7,7,3,0.5,14,7,Hc,0.04586206896551724,0.04736842105263158,0.047142857142857146,0.03571428571428571
10,8,16,1,1,0.6000000000000003,2,13,31,52,18,29,1.9900000000000013,0.5900000000000003,0.21000000000000005,0.07,8,3,2,2,47,9,3,2,5,0,20,7,Hc,0.042340425531914895,0.06555555555555556,0.06999999999999999,0.035
10,9,17,1,4,0.8700000000000006,2,20,99,106,86,35,1.4800000000000009,0.8600000000000005,0.35000000000000014,0.11999999999999998,6,3,4,3,30,21,8,6,2,0,12,7,Hc,0.04933333333333333,0.04095238095238095,0.043750000000000004,0.02
10,9,18,1,8,0.7200000000000004,10,14,82,112,67,77,3.0099999999999953,0.18000000000000002,0.5300000000000002,0.15,20,3,5,3,56,4,11,3,2,0,12,7,Hc,0.05375,0.045,0.04818181818181818,0.05
10,10,19,1,1,1.1700000000000008,2,20,35,26,17,19,1.8200000000000012,1.1300000000000008,0.11999999999999998,0.19000000000000003,6,6,2,2,33,27,2,6,5,0,22,7,Hc,0.05515151515151515,0.04185185185185185,0.06,0.03166666666666667
10,10,20,1,8,0.35000000000000014,6,6,91,53,114,95,3.5099999999999767,0.060000000000000005,0.13999999999999999,0.01,20,3,3,1,67,4,4,1,2,0,12,7,Hc,0.05238805970149254,0.015,0.035,0.01
10,11,21,1,7,1.0200000000000007,3,26,93,21,87,29,1.3500000000000008,0.8200000000000005,0.16,0.34000000000000014,5,3,2,3,32,26,3,8,3,0,17,7,Hc,0.0421875,0.03153846153846154,0.05333333333333333,0.0425
10,11,22,1,2,0.37000000000000016,8,9,2,78,81,112,5.769999999999929,0.01,0.01,0.01,20,1,1,1,129,1,1,1,3,0,14,7,Hc,0.044728682170542634,0.01,0.01,0.01
10,12,23,1,3,0.5700000000000003,2,14,89,86,22,47,2.699999999999999,0.10999999999999999,0.09999999999999999,0.07,11,2,3,2,54,4,4,3,5,0,17,7,Hc,0.05,0.0275,0.025,0.02333333333333333
10,12,24,1,8,0.8000000000000005,3,21,109,8,6,32,2.2000000000000015,0.2700000000000001,0.20000000000000004,0.09999999999999999,9,3,2,2,53,5,3,2,2,0,19,7,Hc,0.04150943396226415,0.054,0.06666666666666667,0.05
10,13,25,1,2,1.0300000000000007,17,35,31,57,109,1,3.829999999999985,0.08,0.02,0.04,20,2,1,1,98,2,1,1,3,0,17,7,Hc,0.03908163265306123,0.04,0.02,0.04
10,13,26,1,10,0.45000000000000023,2,20,15,13,67,106,1.710000000000001,1.7000000000000013,0.03,0.02,4,8,2,1,56,40,2,1,6,0,18,7,Hc,0.030535714285714288,0.042499999999999996,0.015,0.02
10,14,27,1,4,1.1100000000000008,17,33,7,6,71,91,2.4800000000000018,0.5800000000000003,0.5200000000000002,0.2700000000000001,20,7,4,3,59,14,8,7,2,0,19,7,Hc,0.04203389830508474,0.041428571428571426,0.065,0.038571428571428576
10,14,28,1,6,0.4000000000000002,3,12,55,119,57,49,2.0300000000000016,0.2800000000000001,0.02,0.08,11,2,1,2,44,9,1,3,4,0.5,14,7,Hc,0.046136363636363635,0.031111111111111114,0.02,0.02666666666666667
10,15,29,1,4,0.35000000000000014,3,5,13,105,58,20,4.469999999999957,0.01,0.02,0.02,19,1,1,1,105,1,1,1,2,0,18,7,Hc,0.04257142857142857,0.01,0.02,0.02
10,15,30,1,2,0.9500000000000006,15,21,79,80,9,46,1.9300000000000013,0.5200000000000002,0.24000000000000007,0.060000000000000005,17,3,2,2,41,13,4,2,3,0,17,7,Hc,0.04707317073170732,0.04,0.06,0.03
10,16,31,1,5,0.9900000000000007,2,24,11,12,3,37,2.2200000000000015,0.7500000000000004,0.8100000000000005,0.19000000000000003,7,4,7,3,47,6,15,3,6,0.5,23,7,Hc,0.04723404255319149,0.125,0.054,0.06333333333333332
10,16,32,1,6,0.38000000000000017,2,8,49,101,57,51,1.3000000000000007,0.5100000000000002,0.3200000000000001,0.12999999999999998,4,2,2,2,24,15,6,4,4,0.5,14,7,Hc,0.05416666666666667,0.034,0.05333333333333333,0.0325
10,17,33,1,5,0.7800000000000005,6,18,101,10,76,5,2.2800000000000016,0.37000000000000016,0.20000000000000004,0.09,13,2,2,3,38,8,3,3,6,0,17,7,Hc,0.06,0.04625,0.06666666666666667,0.030000000000000002
10,17,34,1,10,0.6500000000000004,2,12,17,13,37,19,1.2200000000000006,2.899999999999982,0.02,0.02,4,11,2,2,24,55,2,2,6,0.5,23,7,Hc,0.050833333333333335,0.05272727272727273,0.01,0.01
10,18,35,1,7,0.6500000000000004,2,15,88,86,91,4,1.4100000000000008,0.4400000000000002,0.12999999999999998,0.3000000000000001,4,2,2,2,26,6,2,8,3,0.5,15,7,Hc,0.05423076923076923,0.07333333333333333,0.06499999999999999,0.0375
10,18,36,1,6,0.5200000000000002,4,13,56,49,74,76,1.580000000000001,0.24000000000000007,0.7200000000000004,0.21000000000000005,6,2,6,4,38,5,17,6,4,0,14,7,Hc,0.041578947368421056,0.048,0.042352941176470586,0.035
10,19,37,1,7,0.7000000000000004,2,18,94,53,91,109,1.9200000000000013,0.6200000000000003,0.13999999999999999,0.3900000000000002,6,5,3,4,44,12,5,11,3,0,12,7,Hc,0.04363636363636363,0.051666666666666666,0.028,0.035454545454545454
10,19,38,1,9,0.5100000000000002,2,12,71,69,102,99,1.9800000000000013,0.2900000000000001,0.23000000000000007,0.2800000000000001,8,3,2,3,41,7,7,7,4,0,12,7,Hc,0.04829268292682927,0.041428571428571426,0.032857142857142856,0.04
10,20,39,1,10,0.36000000000000015,2,11,14,13,17,79,1.1900000000000006,0.4200000000000002,0.03,0.8300000000000005,4,2,1,5,27,8,1,18,6,0.5,21,7,Hc,0.04407407407407407,0.0525,0.03,0.04611111111111111
10,20,40,1,4,0.6400000000000003,13,16,108,31,1,4,3.7199999999999784,0.09999999999999999,0.24000000000000007,0.2700000000000001,20,2,4,4,76,2,5,6,2,0,19,7,Hc,0.04894736842105263,0.049999999999999996,0.047999999999999994,0.045
10,21,41,1,5,0.8900000000000006,2,19,5,86,115,57,2.030000000000001,0.8100000000000005,0.13999999999999999,0.05,9,4,1,1,44,17,1,1,6,0,15,7,Hc,0.046136363636363635,0.04764705882352941,0.13999999999999999,0.05
10,21,42,1,1,0.34000000000000014,10,11,16,28,77,26,3.029999999999987,0.01,0.03,0.22000000000000006,20,1,1,3,63,1,2,4,5,0,19,7,Hc,0.048095238095238094,0.01,0.015,0.055
10,22,43,1,4,0.22000000000000006,2,6,1,92,28,67,4.16999999999996,0.04,0.02,0.01,17,1,2,1,103,1,2,1,2,0,18,7,Hc,0.040485436893203886,0.04,0.01,0.01
10,22,44,1,3,0.6900000000000004,13,18,55,109,111,17,2.370000000000002,1.7600000000000013,0.12999999999999998,0.24000000000000007,16,10,3,7,54,30,3,8,5,0,14,7,Hc,0.043888888888888894,0.058666666666666666,0.04333333333333333,0.03
11,1,1,0,1,3.189999999999976,2,125,74,65,75,28,5.809999999999964,2.1799999999999975,0.7400000000000004,0.37000000000000016,10,4,3,2,200,82,29,11,5,0,15,7,Hc,0.02905,0.026585365853658536,0.025517241379310347,0.03363636363636364
11,1,2,0,5,3.239999999999975,20,114,11,46,7,110,5.289999999999975,0.4300000000000002,4.339999999999952,0.16,20,3,9,4,186,12,131,6,6,0,19,7,Hc,0.028440860215053765,0.035833333333333335,0.033129770992366414,0.02666666666666667
11,2,3,0,10,1.500000000000001,5,53,20,24,17,72,3.959999999999993,1.2100000000000009,0.9900000000000007,2.010000000000001,9,3,3,6,133,36,35,70,6,0.5,22,7,Hc,0.029774436090225564,0.03361111111111111,0.028285714285714286,0.028714285714285716
11,2,4,0,8,3.1999999999999758,2,114,109,45,112,43,8.159999999999915,0.11999999999999998,0.05,0.10999999999999999,15,3,2,2,285,4,4,3,2,0,14,7,Hc,0.02863157894736842,0.030000000000000002,0.0125,0.03666666666666667
11,3,5,0,7,0.9300000000000006,19,33,3,31,4,90,12.229999999999805,0.01,0.01,0.01,20,1,1,1,438,1,1,1,3,0,20,7,Hc,0.027922374429223743,0.01,0.01,0.01
11,3,6,0,8,1.0800000000000007,18,41,37,16,17,80,10.849999999999836,2.5099999999999905,0.01,0.04,20,19,1,2,389,85,1,2,2,0,20,7,Hc,0.02789203084832905,0.029529411764705884,0.01,0.02
11,4,7,0,10,2.199999999999997,3,73,13,17,22,94,6.49999999999995,0.4300000000000002,0.38000000000000017,1.6400000000000012,14,4,6,11,219,17,17,51,6,0.5,21,7,Hc,0.029680365296803655,0.025294117647058825,0.02235294117647059,0.03215686274509804
11,4,8,0,3,2.2799999999999954,3,65,40,64,5,11,6.459999999999951,0.9300000000000006,0.20000000000000004,1.380000000000001,10,4,5,8,209,31,12,43,5,0,21,7,Hc,0.03090909090909091,0.03,0.016666666666666666,0.03209302325581395
11,5,9,0,3,1.9000000000000015,2,62,47,40,46,42,6.139999999999955,0.7300000000000004,0.24000000000000007,0.6500000000000004,13,8,3,10,226,27,5,20,5,1,60,7,Hc,0.027168141592920355,0.027037037037037037,0.048,0.0325
11,5,10,0,6,1.7500000000000013,2,69,33,51,75,84,6.079999999999954,1.1700000000000008,0.18000000000000002,0.35000000000000014,8,5,3,4,201,43,6,13,4,0,15,7,Hc,0.030248756218905472,0.027209302325581396,0.03,0.026923076923076925
11,6,11,0,10,0.7500000000000004,15,22,13,97,74,14,5.3899999999999455,0.17,0.5500000000000003,0.04,19,3,2,1,168,5,25,1,6,0,17,7,Hc,0.03208333333333333,0.033999999999999996,0.022000000000000002,0.04
11,6,12,0,5,2.9699999999999807,2,112,7,30,6,2,5.949999999999961,2.199999999999997,0.36000000000000015,0.12999999999999998,14,13,6,2,220,72,14,6,6,0.5,23,7,Hc,0.027045454545454546,0.030555555555555555,0.025714285714285714,0.021666666666666667
11,7,13,1,3,1.5700000000000012,2,62,37,44,20,45,5.019999999999971,0.5100000000000002,2.679999999999987,0.04,11,7,14,2,176,17,94,3,5,0.5,21,7,Hc,0.028522727272727273,0.030000000000000002,0.02851063829787234,0.013333333333333334
11,7,14,1,8,2.629999999999988,20,99,111,118,89,116,6.319999999999953,0.6300000000000003,1.440000000000001,0.6100000000000003,20,5,4,5,231,23,45,18,2,0.5,9,7,Hc,0.02735930735930736,0.02739130434782609,0.032,0.03388888888888889
11,8,15,1,1,2.4099999999999926,2,76,3,33,12,2,5.859999999999963,0.18000000000000002,1.5100000000000011,0.4000000000000002,14,2,7,4,207,10,58,16,5,0.5,23,7,Hc,0.02830917874396135,0.018,0.02603448275862069,0.025
11,8,16,1,10,0.6300000000000003,11,18,14,23,101,103,5.56999999999994,0.04,0.8800000000000006,0.49000000000000027,20,1,10,6,174,1,31,16,6,0,16,7,Hc,0.032011494252873564,0.04,0.028387096774193547,0.030625
11,9,17,1,8,1.9400000000000015,2,64,120,116,79,77,6.559999999999947,0.2700000000000001,0.45000000000000023,0.22000000000000006,17,3,6,3,215,7,11,9,2,0,10,7,Hc,0.030511627906976743,0.038571428571428576,0.04090909090909091,0.024444444444444442
11,9,18,1,9,1.5400000000000011,20,56,61,64,97,71,6.359999999999943,0.7100000000000004,0.3900000000000002,0.2800000000000001,20,5,7,4,220,23,13,9,4,0.5,14,7,Hc,0.02890909090909091,0.030869565217391304,0.03,0.031111111111111114
11,10,19,1,7,2.06,2,77,91,85,88,87,4.389999999999994,1.7400000000000013,0.8000000000000005,0.5000000000000002,11,11,9,4,163,61,21,11,3,1,36,7,Hc,0.026932515337423312,0.028524590163934428,0.0380952380952381,0.045454545454545456
11,10,20,1,3,2.0300000000000007,2,56,39,42,40,4,5.149999999999978,1.2500000000000009,0.7300000000000004,1.300000000000001,7,7,6,9,164,47,20,48,5,0.5,21,7,Hc,0.031402439024390244,0.026595744680851064,0.036500000000000005,0.027083333333333334
11,11,21,1,3,1.9000000000000015,3,55,37,76,46,38,4.229999999999996,3.0599999999999787,0.34000000000000014,0.03,9,9,4,1,135,101,16,1,5,0.5,18,7,Hc,0.03133333333333333,0.030297029702970296,0.02125,0.03
11,11,22,1,1,1.1600000000000008,2,36,26,28,29,2,4.339999999999977,1.290000000000001,0.8900000000000006,0.22000000000000006,11,6,5,4,140,45,40,11,5,0.5,21,7,Hc,0.031,0.028666666666666667,0.02225,0.02
11,12,23,1,7,0.7900000000000005,2,31,86,96,35,92,3.759999999999981,0.37000000000000016,2.239999999999996,0.12999999999999998,4,2,11,2,126,15,76,8,3,0.5,14,7,Hc,0.029841269841269842,0.024666666666666667,0.029473684210526315,0.01625
11,12,24,1,4,2.52999999999999,2,96,99,82,77,106,6.799999999999944,0.6100000000000003,0.5400000000000003,1.0900000000000007,13,7,5,8,235,19,15,41,2,0,10,7,Hc,0.02893617021276596,0.032105263157894734,0.036000000000000004,0.026585365853658536
11,13,25,1,10,2.2699999999999956,3,82,26,13,76,79,6.639999999999947,0.26000000000000006,0.4200000000000002,0.07,17,5,4,2,218,9,13,3,6,0,17,7,Hc,0.030458715596330274,0.028888888888888888,0.03230769230769231,0.023333333333333334
11,13,26,1,9,1.6800000000000013,2,58,64,62,70,116,4.9899999999999745,0.21000000000000005,2.4099999999999926,0.6400000000000003,6,3,15,6,151,6,79,19,4,0.5,14,7,Hc,0.03304635761589404,0.034999999999999996,0.03050632911392405,0.03368421052631579
11,14,27,1,10,2.149999999999998,2,73,67,15,24,69,6.00999999999996,0.6900000000000004,0.34000000000000014,0.9600000000000006,7,5,2,5,199,19,14,27,6,0,20,7,Hc,0.03020100502512563,0.03631578947368421,0.024285714285714285,0.035555555555555556
11,14,28,1,5,1.9600000000000015,3,71,9,83,4,8,5.339999999999973,1.1600000000000008,0.3100000000000001,0.2800000000000001,8,2,4,3,193,41,13,11,6,0.5,21,7,Hc,0.02766839378238342,0.02829268292682927,0.023846153846153847,0.025454545454545455
11,15,29,1,7,1.8300000000000014,2,63,90,88,89,96,4.239999999999994,1.5100000000000011,0.3000000000000001,1.0400000000000007,12,5,3,9,150,55,9,31,3,1,36,7,Hc,0.028266666666666666,0.027454545454545454,0.03333333333333333,0.03354838709677419
11,15,30,1,5,2.06,5,73,10,84,7,3,5.439999999999972,0.5100000000000002,0.5200000000000002,0.17,10,3,5,2,179,16,19,3,6,0.5,21,7,Hc,0.030391061452513968,0.031875,0.02736842105263158,0.05666666666666667
11,16,31,1,5,1.6900000000000013,2,62,5,11,1,9,4.969999999999976,0.13999999999999999,0.6800000000000004,3.0699999999999785,4,3,8,17,178,5,23,104,6,1,72,7,Hc,0.027921348314606742,0.028,0.029565217391304348,0.02951923076923077
11,16,32,1,4,0.2800000000000001,2,11,15,27,82,99,7.799999999999884,0.01,0.04,0.12999999999999998,15,1,2,4,264,1,3,10,2,0,16,7,Hc,0.029545454545454545,0.01,0.013333333333333334,0.013000000000000001
11,17,33,1,3,1.7800000000000014,4,58,47,45,46,73,4.599999999999985,1.0200000000000007,2.2199999999999966,0.02,6,6,10,1,146,28,63,1,5,0.5,18,7,Hc,0.031506849315068496,0.03642857142857143,0.035238095238095235,0.02
11,17,34,1,8,1.7800000000000014,2,71,113,120,115,33,3.5100000000000025,2.259999999999996,0.48000000000000026,0.24000000000000007,6,12,2,3,122,81,15,7,2,0.5,11,7,Hc,0.02877049180327869,0.027901234567901233,0.032,0.03428571428571429
11,18,35,1,2,1.9500000000000015,2,49,35,75,84,30,6.809999999999942,0.16,0.11999999999999998,0.3300000000000001,15,3,3,4,206,7,5,12,3,0,16,7,Hc,0.033058252427184465,0.022857142857142857,0.024,0.0275
11,18,36,1,3,1.7000000000000013,4,71,44,13,37,38,6.069999999999952,0.6600000000000004,0.24000000000000007,0.09999999999999999,9,2,3,3,224,22,7,5,5,0.5,21,7,Hc,0.027098214285714285,0.03,0.03428571428571429,0.02
11,19,37,1,4,2.619999999999988,2,90,103,104,19,17,3.4999999999999885,3.46999999999997,0.45000000000000023,0.5800000000000003,5,7,7,9,120,115,21,29,2,0,16,7,Hc,0.029166666666666667,0.03017391304347826,0.02142857142857143,0.02
11,19,38,1,9,1.7800000000000014,2,51,66,62,72,83,4.509999999999987,0.7500000000000004,1.1400000000000008,0.8600000000000005,11,4,8,5,140,26,39,33,4,0.5,15,7,Hc,0.032214285714285716,0.028846153846153848,0.02923076923076923,0.026060606060606062
11,20,39,1,8,0.2900000000000001,2,9,3,111,44,66,11.669999999999803,0.02,0.02,0.03,20,2,1,2,376,2,1,2,2,0,17,7,Hc,0.03103723404255319,0.01,0.02,0.015
11,20,40,1,6,1.280000000000001,3,40,51,49,60,21,4.31999999999998,1.2200000000000009,0.3100000000000001,0.47000000000000025,10,9,2,2,143,36,12,12,4,0.5,18,7,Hc,0.03020979020979021,0.03388888888888889,0.025833333333333333,0.03916666666666667
11,21,41,1,7,1.5400000000000011,2,49,87,90,96,56,4.279999999999987,0.4300000000000002,1.9200000000000015,0.9100000000000006,5,4,13,7,139,17,64,28,3,0.5,13,7,Hc,0.03079136690647482,0.025294117647058825,0.03,0.0325
11,21,42,1,10,2.149999999999998,7,75,43,17,22,21,5.99999999999996,0.5100000000000002,0.6700000000000004,1.6700000000000013,20,5,2,10,194,21,23,51,6,0.5,23,7,Hc,0.030927835051546393,0.024285714285714285,0.029130434782608697,0.032745098039215687
12,1,1,0,1,1.5200000000000011,2,39,107,76,98,33,3.8799999999999946,0.09999999999999999,0.23000000000000007,0.18000000000000002,8,2,2,4,101,2,4,6,5,0,12,7,Hc,0.038415841584158415,0.049999999999999996,0.0575,0.030000000000000002
12,1,2,0,5,1.5100000000000011,4,44,2,1,63,38,2.2700000000000014,2.9899999999999802,0.01,0.05,6,14,1,2,62,67,1,3,6,0,21,7,Hc,0.03661290322580645,0.04462686567164179,0.01,0.016666666666666666
12,2,3,0,6,0.9700000000000006,4,33,57,52,84,79,2.2500000000000018,0.4100000000000002,0.25000000000000006,0.25000000000000006,8,2,2,2,69,15,8,10,4,0,14,7,Hc,0.03260869565217391,0.027333333333333334,0.03125,0.025
12,2,4,0,3,1.460000000000001,4,42,44,68,62,63,3.819999999999995,0.19000000000000003,0.23000000000000007,0.10999999999999999,14,3,4,1,102,5,9,1,5,0.5,17,7,Hc,0.037450980392156864,0.038,0.025555555555555557,0.10999999999999999
12,3,5,0,10,0.7100000000000004,2,18,15,24,29,19,2.490000000000002,0.08,0.6800000000000004,1.340000000000001,5,2,5,8,67,3,16,39,6,0.5,23,7,Hc,0.03716417910447761,0.02666666666666667,0.042499999999999996,0.03435897435897436
12,3,6,0,8,1.1900000000000008,2,29,116,113,110,2,1.9500000000000013,1.300000000000001,0.24000000000000007,0.45000000000000023,4,6,2,3,49,32,7,12,2,0.5,12,7,Hc,0.03979591836734694,0.040625,0.03428571428571429,0.0375
12,4,7,0,7,0.7100000000000004,2,15,85,88,91,48,2.330000000000002,0.10999999999999999,0.6100000000000003,0.12999999999999998,6,1,3,2,67,1,15,2,3,0.5,14,7,Hc,0.03477611940298508,0.10999999999999999,0.040666666666666663,0.065
12,4,8,0,6,0.6400000000000003,2,12,55,81,58,36,2.0800000000000014,1.1200000000000008,0.11999999999999998,0.13999999999999999,9,4,2,3,42,21,4,6,4,0,16,7,Hc,0.049523809523809526,0.05333333333333333,0.030000000000000002,0.023333333333333334
12,5,9,0,10,0.6300000000000003,2,15,14,13,18,23,1.9800000000000013,0.35000000000000014,0.4300000000000002,0.20000000000000004,4,3,8,2,52,11,15,5,6,1,72,7,Hc,0.03807692307692308,0.03181818181818182,0.028666666666666667,0.04
12,5,10,0,4,1.290000000000001,2,36,99,101,12,35,1.9100000000000013,1.7300000000000013,0.23000000000000007,0.13999999999999999,8,6,5,2,52,58,9,6,2,0,15,7,Hc,0.036730769230769234,0.02982758620689655,0.025555555555555557,0.023333333333333334
12,6,11,0,3,1.1300000000000008,2,32,40,9,46,106,2.410000000000002,2.9699999999999807,0.15,0.3000000000000001,4,15,3,7,72,72,3,8,5,0,18,7,Hc,0.03347222222222222,0.04125,0.049999999999999996,0.0375
12,6,12,0,8,0.8800000000000006,2,23,115,28,117,58,2.5000000000000018,0.9400000000000006,0.11999999999999998,0.2800000000000001,8,8,2,2,52,19,4,7,2,0,13,7,Hc,0.04807692307692308,0.049473684210526316,0.030000000000000002,0.04
12,7,13,1,4,1.1600000000000008,2,33,101,29,97,1,1.570000000000001,1.1500000000000008,0.7600000000000005,0.2700000000000001,4,9,6,3,39,26,24,6,2,0,15,7,Hc,0.040256410256410254,0.04423076923076923,0.03166666666666667,0.045
12,7,14,1,6,0.3900000000000002,13,15,13,110,47,54,3.8499999999999703,0.05,0.060000000000000005,0.02,20,2,2,1,89,2,2,1,4,0,17,7,Hc,0.04325842696629213,0.025,0.030000000000000002,0.02
12,8,15,1,5,0.8100000000000005,2,21,8,25,68,83,1.8100000000000012,2.5899999999999888,0.060000000000000005,0.5700000000000003,4,6,2,7,47,59,2,16,6,0,18,7,Hc,0.03851063829787234,0.043898305084745765,0.030000000000000002,0.035625000000000004
