Subject,Round,Phase,afterbreak,Schema,Schema_RT,Schema_OB,Schema_AS,Cho_1,Cho_2,Cho_3,Cho_4,RT_1,RT_2,RT_3,RT_4,OB_1,OB_2,OB_3,OB_4,AS_1,AS_2,AS_3,AS_4,schema_payoff,AC,performance,breakR,type,dwellmean_1,dwellmean_2,dwellmean_3,dwellmean_4
1,1,1,0,10,2.52999999999999,3,48,19,13,89,86,7.669999999999925,1.7400000000000013,2.289999999999995,0.15,17,12,11,1,144,37,41,1,6,0,18,7,L,0.05326388888888889,0.047027027027027025,0.05585365853658537,0.15
1,1,2,0,8,2.9699999999999807,2,61,109,120,116,118,10.819999999999858,1.1300000000000008,0.05,0.7700000000000005,20,11,1,8,226,32,1,17,2,1,24,7,L,0.047876106194690266,0.035312500000000004,0.05,0.045294117647058825
1,2,3,0,7,2.769999999999985,2,54,86,88,96,93,8.919999999999899,1.5100000000000011,0.4400000000000002,3.189999999999976,20,10,4,16,176,29,4,63,3,1,36,7,L,0.05068181818181818,0.052068965517241377,0.11,0.05063492063492064
1,2,4,0,2,2.479999999999991,3,53,84,74,82,48,10.019999999999875,0.6400000000000003,1.450000000000001,0.45000000000000023,20,6,13,6,195,11,36,11,3,0.5,23,7,L,0.05138461538461538,0.05818181818181818,0.04027777777777778,0.04090909090909091
1,3,5,0,2,3.2099999999999755,2,75,82,76,55,80,10.919999999999856,1.0600000000000007,1.2000000000000008,0.2800000000000001,20,8,10,5,232,22,29,7,3,0.5,22,7,L,0.04706896551724138,0.04818181818181818,0.041379310344827586,0.04
1,3,6,0,7,1.9000000000000015,2,36,87,47,89,94,9.799999999999878,1.0600000000000007,0.09999999999999999,0.13999999999999999,20,8,2,4,190,21,2,5,3,0.5,23,7,L,0.05157894736842105,0.05047619047619047,0.05,0.028
1,4,7,0,4,1.470000000000001,3,30,54,86,101,100,10.469999999999853,0.6300000000000003,0.8400000000000005,0.21000000000000005,20,5,10,4,201,13,16,4,2,0,11,7,L,0.05208955223880597,0.04846153846153846,0.052500000000000005,0.052500000000000005
1,4,8,0,9,0.24000000000000007,2,5,3,80,71,70,18.630000000000074,0.01,0.01,0.25000000000000006,20,1,1,3,342,1,1,5,4,0,17,7,L,0.05447368421052632,0.01,0.01,0.05
1,5,9,0,2,3.9599999999999596,6,93,81,6,4,82,9.959999999999877,2.5099999999999905,0.3300000000000001,0.7000000000000004,20,13,4,7,220,49,6,13,3,0,18,7,L,0.04527272727272727,0.05122448979591837,0.055,0.05384615384615385
1,5,10,0,9,2.289999999999995,3,42,69,61,24,86,7.059999999999938,2.4199999999999924,2.2699999999999956,0.6600000000000004,20,18,14,7,136,53,47,8,4,0,17,7,L,0.05191176470588235,0.045660377358490566,0.048297872340425534,0.0825
1,6,11,0,4,2.06,6,41,102,98,101,68,9.749999999999881,0.2700000000000001,0.6300000000000003,1.1100000000000008,20,3,2,9,200,3,12,23,2,0.5,16,7,L,0.04875,0.09,0.0525,0.04826086956521739
1,6,12,0,8,3.0199999999999796,3,51,120,114,86,113,5.449999999999972,3.2499999999999747,0.7300000000000004,1.6300000000000012,14,14,8,9,104,52,19,31,2,0.5,15,7,L,0.052403846153846155,0.0625,0.038421052631578946,0.052580645161290324
1,7,13,1,13,3.839999999999962,3,102,17,14,43,21,11.289999999999848,4.719999999999944,0.05,0.060000000000000005,20,17,1,3,261,93,1,3,6,0.5,41,7,L,0.043256704980842914,0.05075268817204301,0.05,0.02
1,7,14,1,3,3.4999999999999694,3,75,27,29,76,82,8.329999999999911,3.5899999999999674,0.5300000000000002,0.11999999999999998,14,13,4,2,174,74,10,2,5,0,16,7,L,0.047873563218390806,0.04851351351351351,0.053,0.060000000000000005
1,8,15,1,12,1.400000000000001,2,24,34,29,88,27,8.359999999999896,0.5500000000000003,0.49000000000000027,0.20000000000000004,20,5,5,2,173,15,13,3,3,0.5,33,7,L,0.04832369942196532,0.03666666666666667,0.03769230769230769,0.06666666666666667
1,8,16,1,15,2.9199999999999817,2,51,63,62,41,74,10.809999999999858,1.9300000000000015,2.399999999999993,1.1700000000000008,19,10,16,14,214,43,48,28,4,0,16,7,L,0.05051401869158879,0.04488372093023256,0.05,0.04178571428571429
1,9,17,1,7,1.270000000000001,5,26,5,69,78,80,16.199999999999726,0.02,0.07,0.060000000000000005,20,1,1,2,314,1,1,3,3,0,16,7,L,0.05159235668789809,0.02,0.07,0.02
1,9,18,1,12,2.859999999999983,3,60,88,40,37,85,11.389999999999846,0.7000000000000004,0.09,0.34000000000000014,20,7,3,4,252,15,3,7,3,0,16,7,L,0.045198412698412696,0.04666666666666667,0.03,0.04857142857142857
1,10,19,1,13,3.3999999999999715,9,82,15,58,13,104,9.77999999999988,1.260000000000001,0.7600000000000005,0.5000000000000002,20,9,4,3,210,21,12,15,6,0,18,7,L,0.04657142857142857,0.06,0.06333333333333332,0.03333333333333333
1,10,20,1,11,0.20000000000000004,3,6,2,38,71,47,18.03999999999999,0.01,0.01,0.01,20,1,1,1,370,1,1,1,2,0,20,7,L,0.04875675675675676,0.01,0.01,0.01
1,11,21,1,7,3.319999999999973,6,66,73,6,7,9,9.949999999999877,0.9300000000000006,0.5600000000000003,0.36000000000000015,20,7,5,3,197,23,15,5,3,0.5,39,7,L,0.05050761421319797,0.04043478260869565,0.037333333333333336,0.072
1,11,22,1,4,3.0599999999999787,3,61,105,102,103,57,8.929999999999898,1.280000000000001,1.7800000000000014,0.17,20,10,10,2,167,25,35,3,2,0.5,16,7,L,0.05347305389221557,0.051199999999999996,0.05085714285714286,0.05666666666666667
1,12,23,1,14,3.329999999999973,9,73,37,38,40,44,10.799999999999859,0.8000000000000005,0.08,1.280000000000001,20,7,1,10,224,20,1,25,5,1,60,7,L,0.048214285714285716,0.04,0.08,0.051199999999999996
1,12,24,1,15,2.9799999999999804,6,61,61,102,34,66,8.179999999999914,1.5400000000000011,1.7000000000000013,0.060000000000000005,20,9,7,1,165,33,30,1,4,0,15,7,L,0.04957575757575758,0.04666666666666667,0.056666666666666664,0.060000000000000005
1,13,25,1,15,5.149999999999935,3,98,64,38,47,46,8.149999999999915,2.239999999999996,2.0799999999999996,2.159999999999998,17,14,12,12,155,51,36,49,4,0.5,34,7,L,0.052580645161290324,0.04392156862745098,0.05777777777777778,0.044081632653061226
1,13,26,1,10,1.9600000000000015,2,38,8,7,10,11,8.219999999999912,0.21000000000000005,0.37000000000000016,1.390000000000001,16,2,4,9,159,3,7,36,6,1,72,7,L,0.05169811320754717,0.06999999999999999,0.05285714285714285,0.03861111111111111
1,14,27,1,3,1.6200000000000012,3,29,32,26,30,24,8.589999999999897,0.19000000000000003,0.21000000000000005,7.069999999999894,20,2,3,17,181,6,6,128,5,0.5,36,7,L,0.0474585635359116,0.03166666666666667,0.035,0.055234375
1,14,28,1,7,2.1199999999999988,2,43,78,82,83,84,7.779999999999923,1.7200000000000013,0.49000000000000027,1.280000000000001,20,14,5,10,156,37,9,22,3,1,36,7,L,0.04987179487179487,0.046486486486486484,0.05444444444444445,0.05818181818181819
1,15,29,1,12,0.9400000000000006,2,14,93,89,91,88,5.899999999999939,1.0500000000000007,0.5800000000000003,1.260000000000001,19,7,6,11,97,20,11,23,3,1,36,7,L,0.060824742268041236,0.0525,0.05272727272727273,0.05478260869565217
1,15,30,1,6,2.7799999999999847,2,58,53,52,84,57,7.949999999999919,1.450000000000001,0.5800000000000003,0.7300000000000004,14,7,4,4,163,30,8,18,4,0.5,27,7,L,0.04877300613496933,0.04833333333333333,0.0725,0.04055555555555556
1,16,31,1,15,1.6000000000000012,3,35,66,63,67,75,7.719999999999915,0.19000000000000003,1.1000000000000008,1.8900000000000015,20,3,2,8,154,3,25,45,4,0.5,27,7,L,0.05012987012987013,0.06333333333333334,0.044000000000000004,0.042
1,16,32,1,14,1.8300000000000014,2,39,41,42,38,44,5.839999999999961,3.4499999999999704,1.1800000000000008,0.2900000000000001,18,15,16,5,112,55,25,6,5,1,60,7,L,0.052142857142857144,0.06272727272727273,0.0472,0.04833333333333333
1,17,33,1,13,2.3099999999999947,5,45,17,97,18,22,8.259999999999913,3.2499999999999747,0.20000000000000004,0.3200000000000001,20,16,3,5,152,72,4,8,6,0.5,38,7,L,0.0543421052631579,0.04513888888888889,0.05,0.039999999999999994
1,17,34,1,12,1.460000000000001,2,38,91,93,92,88,6.549999999999937,1.7300000000000013,0.17,2.299999999999995,18,14,4,16,143,41,7,43,3,1,36,7,L,0.045804195804195806,0.042195121951219515,0.024285714285714285,0.053488372093023255
1,18,35,1,7,1.7200000000000013,4,46,82,73,83,26,8.199999999999907,0.37000000000000016,1.7200000000000013,1.260000000000001,20,5,7,13,191,10,45,31,3,0.5,23,7,L,0.04293193717277487,0.037000000000000005,0.03822222222222222,0.040645161290322585
1,18,36,1,6,2.239999999999996,2,54,51,58,54,60,7.91999999999992,1.6500000000000012,0.23000000000000007,0.23000000000000007,19,10,2,3,162,37,6,5,4,1,48,7,L,0.04888888888888889,0.0445945945945946,0.03833333333333334,0.046
1,19,37,1,10,2.8799999999999826,4,65,2,9,1,10,8.909999999999899,0.34000000000000014,1.9400000000000015,0.060000000000000005,20,6,15,2,179,7,32,3,6,1,72,7,L,0.04977653631284916,0.04857142857142857,0.060625,0.02
1,19,38,1,3,1.380000000000001,2,28,30,28,34,18,8.379999999999896,0.6600000000000004,1.9500000000000015,0.8900000000000006,20,12,15,9,178,15,49,22,5,0.5,36,7,L,0.04707865168539326,0.044000000000000004,0.03979591836734694,0.04045454545454545
1,20,39,1,7,2.8899999999999824,3,75,84,15,14,78,10.619999999999862,1.2500000000000009,1.1100000000000008,0.04,20,12,12,1,241,22,33,1,3,0,18,7,L,0.04406639004149378,0.05681818181818182,0.03363636363636364,0.04
1,20,40,1,14,1.6800000000000013,2,33,39,46,44,38,4.029999999999995,3.7299999999999645,0.7600000000000005,1.1600000000000008,18,15,9,10,89,73,17,13,5,1,60,7,L,0.0452808988764045,0.051095890410958904,0.04470588235294118,0.08923076923076924
2,1,1,0,7,0.4000000000000002,2,4,91,89,95,57,4.509999999999957,0.3100000000000001,0.46000000000000024,2.859999999999983,6,1,2,5,32,1,4,18,3,0.5,22,7,L,0.14093750000000002,0.3100000000000001,0.11500000000000002,0.1588888888888889
2,1,2,0,9,0.24000000000000007,2,3,67,66,44,62,1.710000000000001,5.679999999999923,1.7700000000000014,1.0000000000000007,5,7,3,5,10,42,15,5,4,0.5,29,7,L,0.17100000000000004,0.13523809523809527,0.11800000000000002,0.20000000000000007
2,2,3,0,1,0.36000000000000015,2,3,34,25,30,79,3.7199999999999727,0.37000000000000016,3.849999999999962,0.24000000000000007,6,1,8,1,21,1,24,1,5,0.5,33,7,L,0.17714285714285719,0.37000000000000016,0.1604166666666667,0.24000000000000007
2,2,4,0,5,0.3000000000000001,2,4,11,2,6,8,1.2200000000000006,2.949999999999981,0.8600000000000005,5.809999999999921,3,2,2,14,5,16,5,34,6,1,72,7,L,0.24400000000000013,0.18437500000000004,0.17200000000000001,0.1708823529411765
2,3,5,0,9,0.4100000000000002,2,5,69,11,67,48,8.08999999999988,0.6500000000000004,0.060000000000000005,0.7500000000000004,16,3,1,4,44,4,1,6,4,0,19,7,L,0.18386363636363642,0.16250000000000006,0.060000000000000005,0.12500000000000003
2,3,6,0,10,0.26000000000000006,2,3,20,14,13,110,2.7199999999999918,0.6900000000000004,1.1600000000000008,2.8899999999999824,4,2,3,8,15,7,7,18,6,0.5,38,7,L,0.1813333333333334,0.09857142857142859,0.16571428571428576,0.1605555555555556
2,4,7,0,9,0.38000000000000017,2,4,115,5,2,109,5.869999999999927,0.5500000000000003,0.17,0.5900000000000003,7,2,1,2,40,5,1,5,4,0,16,7,L,0.14675000000000002,0.11,0.17,0.11800000000000001
2,4,8,0,2,1.270000000000001,15,18,74,22,24,54,2.3100000000000014,5.35999999999993,2.569999999999989,4.099999999999957,17,6,8,10,21,39,11,19,3,0,19,7,L,0.11000000000000001,0.13743589743589746,0.23363636363636373,0.21578947368421061
2,5,9,0,1,0.2900000000000001,2,3,25,33,23,26,3.3599999999999786,1.350000000000001,0.38000000000000017,0.25000000000000006,5,3,1,2,21,8,1,3,5,0.5,36,7,L,0.16000000000000003,0.16875000000000004,0.38000000000000017,0.08333333333333334
2,5,10,0,7,0.21000000000000005,2,3,57,53,52,92,4.459999999999954,0.8400000000000005,0.6000000000000003,1.9300000000000015,11,3,2,8,28,8,2,10,3,0.5,27,7,L,0.15928571428571434,0.10500000000000001,0.3000000000000001,0.19300000000000006
2,6,11,0,1,0.4200000000000002,2,8,29,8,34,96,3.9199999999999697,1.5200000000000011,0.15,0.3300000000000001,4,5,1,1,33,7,1,1,5,0,19,7,L,0.1187878787878788,0.21714285714285722,0.15,0.3300000000000001
2,6,12,0,3,0.3200000000000001,3,5,48,42,81,37,1.1500000000000006,2.959999999999981,2.479999999999991,1.9800000000000015,5,4,7,5,11,13,15,5,5,0.5,33,7,L,0.10454545454545457,0.22769230769230775,0.16533333333333336,0.39600000000000024
2,7,13,1,7,0.22000000000000006,2,3,76,73,82,70,2.529999999999995,2.399999999999993,0.7600000000000005,2.099999999999999,5,4,2,2,17,15,4,11,3,0.5,22,7,L,0.14882352941176474,0.16000000000000003,0.19000000000000006,0.19090909090909094
2,7,14,1,6,0.4000000000000002,6,11,56,53,39,54,1.8900000000000012,2.6599999999999873,3.559999999999968,0.05,8,2,7,1,21,15,25,2,4,0.5,29,7,L,0.09000000000000002,0.17733333333333337,0.14240000000000003,0.025
2,8,15,1,3,0.11999999999999998,2,4,28,27,34,58,1.2900000000000007,0.3000000000000001,2.809999999999984,0.7500000000000004,5,2,7,2,16,3,18,4,5,0.5,34,7,L,0.080625,0.09999999999999999,0.15611111111111114,0.18750000000000008
2,8,16,1,15,0.5000000000000002,2,5,62,66,69,61,4.069999999999968,1.1200000000000008,0.9200000000000006,2.1199999999999988,9,3,3,7,32,12,4,8,4,1,48,7,L,0.1271875,0.09333333333333335,0.23000000000000007,0.2650000000000001
2,9,17,1,13,0.20000000000000004,2,3,24,23,73,21,2.28,1.470000000000001,2.109999999999999,2.3099999999999947,6,7,7,8,13,11,9,11,6,0.5,39,7,L,0.17538461538461544,0.13363636363636366,0.23444444444444454,0.21000000000000008
2,9,18,1,12,0.37000000000000016,2,5,93,5,68,8,4.1699999999999635,3.0299999999999794,0.9000000000000006,1.5500000000000012,8,7,3,7,32,24,8,8,3,0,19,7,L,0.13031250000000003,0.12625000000000003,0.11250000000000003,0.19375000000000003
2,10,19,1,11,0.5600000000000003,2,5,117,120,118,22,3.5799999999999796,1.0100000000000007,0.2800000000000001,2.6099999999999883,7,5,1,8,21,6,1,8,2,0.5,18,7,L,0.17047619047619053,0.1683333333333334,0.2800000000000001,0.32625000000000015
2,10,20,1,14,0.20000000000000004,2,4,37,42,5,12,0.8700000000000004,2.149999999999998,3.709999999999965,0.6000000000000003,4,3,7,3,7,14,16,4,5,0,22,7,L,0.12428571428571432,0.1535714285714286,0.23187500000000008,0.15000000000000002
2,11,21,1,7,0.34000000000000014,2,6,79,112,76,110,1.7800000000000011,3.039999999999979,1.0700000000000007,0.36000000000000015,5,8,3,1,11,15,6,1,3,0,10,7,L,0.16181818181818186,0.20266666666666672,0.17833333333333337,0.36000000000000015
2,11,22,1,10,0.2800000000000001,2,4,4,2,8,57,1.610000000000001,27.230000000001457,0.01,0.01,6,19,1,1,12,157,1,1,6,0.5,40,7,L,0.13416666666666668,0.17343949044585993,0.01,0.01
2,12,23,1,14,0.26000000000000006,2,2,6,12,92,47,8.209999999999875,0.22000000000000006,0.12999999999999998,0.2900000000000001,12,1,2,2,42,1,2,4,5,0,20,7,L,0.19547619047619053,0.22000000000000006,0.065,0.0725
2,12,24,1,13,0.25000000000000006,2,4,16,13,52,26,1.3800000000000008,12.559999999999777,0.01,0.02,4,15,1,1,8,72,1,1,6,0,21,7,L,0.17250000000000004,0.17444444444444449,0.01,0.02
2,13,25,1,6,0.6200000000000003,2,4,60,57,17,19,6.709999999999915,1.9500000000000015,0.5200000000000002,0.8600000000000005,10,5,3,3,42,15,5,5,4,0,20,7,L,0.1597619047619048,0.13000000000000003,0.104,0.17200000000000004
2,13,26,1,15,0.34000000000000014,3,4,65,25,67,9,2.6699999999999946,0.6500000000000004,0.9300000000000006,3.4899999999999696,5,2,2,5,20,8,5,18,4,0,19,7,L,0.13350000000000004,0.08125,0.18600000000000003,0.19388888888888894
2,14,27,1,12,0.5600000000000003,2,7,31,35,107,85,6.39999999999992,2.679999999999987,0.3900000000000002,0.21000000000000005,13,6,1,2,39,15,1,2,3,0,15,7,L,0.16410256410256413,0.17866666666666672,0.3900000000000002,0.105
2,14,28,1,13,0.4400000000000002,2,4,21,13,22,59,4.9599999999999485,1.0200000000000007,6.959999999999896,0.04,11,4,13,2,24,7,41,2,6,0.5,40,7,L,0.20666666666666675,0.14571428571428574,0.16975609756097565,0.02
2,15,29,1,14,0.5800000000000003,2,5,88,109,47,51,7.259999999999902,0.20000000000000004,0.48000000000000026,1.290000000000001,11,1,2,5,44,2,5,9,5,0,14,7,L,0.16500000000000004,0.10000000000000002,0.09600000000000002,0.14333333333333337
2,15,30,1,4,0.22000000000000006,2,5,108,104,102,9,3.139999999999982,1.450000000000001,0.9100000000000006,0.4200000000000002,7,8,2,1,27,10,6,1,2,0.5,18,7,L,0.11629629629629631,0.14500000000000005,0.1516666666666667,0.4200000000000002
2,16,31,1,7,0.18000000000000002,2,3,63,113,77,80,4.829999999999945,0.8200000000000005,0.34000000000000014,0.5000000000000002,8,2,2,2,20,5,3,2,3,0,12,7,L,0.2415000000000001,0.16400000000000003,0.11333333333333333,0.25000000000000006
2,16,32,1,6,0.21000000000000005,3,3,19,59,101,23,17.839999999999957,0.01,0.02,0.01,20,1,1,1,98,1,1,1,4,0,18,7,L,0.18204081632653066,0.01,0.02,0.01
2,17,33,1,7,0.11999999999999998,1,2,77,84,81,109,3.0599999999999814,0.25000000000000006,0.6100000000000003,2.5999999999999885,4,1,3,6,22,1,3,13,3,0.5,20,7,L,0.13909090909090913,0.25000000000000006,0.20333333333333337,0.20000000000000007
2,17,34,1,4,2.4199999999999924,3,21,104,16,99,106,6.98999999999994,0.4000000000000002,0.9900000000000007,0.24000000000000007,10,4,3,1,44,5,14,2,2,0.5,18,7,L,0.1588636363636364,0.08,0.07071428571428572,0.12000000000000002
2,18,35,1,13,0.4100000000000002,2,4,21,15,13,20,2.440000000000001,0.8500000000000005,0.6000000000000003,0.8800000000000006,6,3,2,2,10,6,7,7,6,1,72,7,L,0.24400000000000008,0.1416666666666667,0.08571428571428573,0.12571428571428572
2,18,36,1,4,0.3100000000000001,2,5,107,108,102,103,3.6599999999999726,0.4200000000000002,0.26000000000000006,2.7299999999999858,6,2,1,9,26,4,1,13,2,1,24,7,L,0.14076923076923079,0.10500000000000002,0.26000000000000006,0.21000000000000005
2,19,37,1,11,0.3100000000000001,2,4,114,120,77,111,1.8400000000000012,0.47000000000000025,3.1699999999999764,0.2800000000000001,4,2,5,2,19,3,18,3,2,0.5,15,7,L,0.09684210526315791,0.15666666666666673,0.17611111111111116,0.09333333333333332
2,19,38,1,13,0.17,2,5,15,17,31,24,1.670000000000001,0.6200000000000003,0.6900000000000004,1.7600000000000013,4,2,1,10,14,3,2,11,6,0.5,41,7,L,0.11928571428571431,0.20666666666666675,0.34500000000000014,0.16000000000000003
2,20,39,1,7,0.45000000000000023,2,7,75,21,18,17,4.599999999999956,0.9400000000000006,0.38000000000000017,0.21000000000000005,8,4,2,1,33,4,2,1,3,0.5,39,7,L,0.13939393939393943,0.23500000000000007,0.19000000000000003,0.21000000000000005
2,20,40,1,12,0.3300000000000001,2,5,94,85,93,86,2.8899999999999895,0.34000000000000014,1.8400000000000014,3.0199999999999796,8,1,9,12,22,1,12,20,3,1,36,7,L,0.1313636363636364,0.34000000000000014,0.15333333333333335,0.15100000000000002
2,21,41,1,3,0.16,2,3,25,35,80,20,2.9499999999999846,0.3300000000000001,0.6700000000000004,0.5400000000000003,5,2,2,3,22,2,2,4,5,0,19,7,L,0.13409090909090912,0.16500000000000004,0.3350000000000002,0.135
2,21,42,1,11,0.2800000000000001,2,3,118,112,48,47,2.5299999999999963,1.8600000000000014,1.9800000000000015,0.7500000000000004,4,5,2,2,18,9,13,5,2,0,14,7,L,0.14055555555555557,0.20666666666666672,0.15230769230769234,0.15000000000000002
3,1,1,0,4,0.3900000000000002,2,5,87,106,85,27,7.989999999999883,1.8500000000000014,0.6100000000000003,1.0200000000000007,16,5,2,3,46,8,3,3,2,0,13,7,L,0.17369565217391308,0.23125000000000007,0.2033333333333334,0.34000000000000014
3,1,2,0,5,0.3100000000000001,2,3,7,2,5,44,7.339999999999895,0.6700000000000004,0.2900000000000001,1.9400000000000015,10,3,2,5,32,6,2,13,6,0.5,41,7,L,0.22937500000000008,0.11166666666666666,0.14500000000000002,0.14923076923076928
3,2,3,0,6,0.4100000000000002,2,6,54,57,55,86,9.289999999999855,1.2100000000000009,0.5200000000000002,0.10999999999999999,13,5,3,1,40,6,5,1,4,0.5,27,7,L,0.2322500000000001,0.20166666666666672,0.10400000000000001,0.10999999999999999
3,2,4,0,1,0.4400000000000002,2,5,27,18,24,112,9.639999999999848,0.6700000000000004,1.0100000000000007,0.7600000000000005,17,2,3,4,56,3,5,5,5,0,19,7,L,0.17214285714285718,0.2233333333333334,0.20200000000000004,0.15200000000000002
3,3,5,0,2,0.34000000000000014,2,4,75,80,31,111,3.2899999999999814,3.7699999999999636,1.5900000000000012,1.0800000000000007,5,6,4,2,21,18,8,2,3,0,13,7,L,0.1566666666666667,0.20944444444444452,0.19875000000000004,0.5400000000000003
3,3,6,0,5,0.16,2,3,1,4,95,88,5.2299999999999365,3.0299999999999794,0.7500000000000004,2.5599999999999894,7,10,3,10,25,14,4,18,6,0,18,7,L,0.20920000000000005,0.2164285714285715,0.18750000000000006,0.14222222222222225
3,4,7,0,9,0.15,2,2,15,114,64,70,25.7500000000012,0.01,0.01,0.01,20,1,1,1,128,1,1,1,4,0,16,7,L,0.20117187500000006,0.01,0.01,0.01
3,4,8,0,3,0.25000000000000006,2,3,41,11,5,84,7.159999999999897,0.5900000000000003,0.6800000000000004,0.6100000000000003,9,2,2,4,40,5,5,7,5,0,20,7,L,0.17900000000000005,0.11800000000000001,0.136,0.08714285714285716
3,5,9,0,5,0.6000000000000003,3,7,1,29,107,31,3.5299999999999816,6.28999999999991,0.26000000000000006,1.430000000000001,7,16,1,7,23,28,1,7,6,0,18,7,L,0.15347826086956523,0.22464285714285723,0.26000000000000006,0.20428571428571435
3,5,10,0,6,0.7400000000000004,4,11,82,50,55,52,5.18999999999995,0.5800000000000003,0.5800000000000003,1.350000000000001,12,2,3,4,29,3,4,5,4,0.5,27,7,L,0.17896551724137935,0.1933333333333334,0.14500000000000005,0.27000000000000013
3,6,11,0,9,0.7500000000000004,2,5,63,105,34,69,7.439999999999902,1.1600000000000008,0.48000000000000026,2.769999999999985,15,4,2,7,38,5,3,8,4,0,15,7,L,0.1957894736842106,0.2320000000000001,0.16000000000000003,0.34625000000000017
3,6,12,0,6,0.35000000000000014,2,3,58,3,53,49,6.859999999999906,2.52999999999999,0.8200000000000005,0.3000000000000001,11,4,4,2,27,7,5,2,4,0.5,30,7,L,0.2540740740740742,0.3614285714285716,0.16400000000000003,0.15
3,7,13,1,15,0.21000000000000005,2,4,14,61,108,69,15.879999999999711,0.03,0.4200000000000002,0.02,20,1,2,1,71,1,2,1,4,0,16,7,L,0.223661971830986,0.03,0.2100000000000001,0.02
3,7,14,1,11,0.2900000000000001,2,5,110,111,116,42,2.8399999999999896,1.490000000000001,0.8000000000000005,4.749999999999943,9,2,4,9,16,7,6,17,2,0.5,17,7,L,0.17750000000000007,0.2128571428571429,0.13333333333333336,0.27941176470588247
3,8,15,1,12,0.46000000000000024,2,7,94,64,92,62,3.3499999999999828,0.9700000000000006,1.9500000000000015,1.470000000000001,5,1,4,4,18,1,7,8,3,0,14,7,L,0.18611111111111117,0.9700000000000006,0.2785714285714287,0.18375000000000002
3,8,16,1,10,0.25000000000000006,2,3,7,6,57,8,6.129999999999919,7.72999999999988,0.02,0.04,11,11,1,1,28,42,1,1,6,0.5,40,7,L,0.2189285714285715,0.1840476190476191,0.02,0.04
3,9,17,1,7,0.2900000000000001,2,3,80,81,63,103,3.2699999999999805,3.1599999999999766,2.809999999999984,1.2500000000000009,7,6,7,3,13,11,15,4,3,0,12,7,L,0.25153846153846166,0.2872727272727274,0.18733333333333338,0.3125000000000001
3,9,18,1,6,0.2900000000000001,2,3,5,56,8,9,3.1699999999999826,4.349999999999952,0.6400000000000003,0.3300000000000001,9,8,4,2,15,16,4,3,4,0.5,40,7,L,0.2113333333333334,0.2718750000000001,0.16000000000000003,0.11
3,10,19,1,11,0.13999999999999999,1,2,116,42,79,109,6.059999999999918,1.350000000000001,1.5900000000000012,0.9500000000000006,6,1,4,3,27,2,8,4,2,0,12,7,L,0.22444444444444453,0.6750000000000004,0.19875000000000004,0.23750000000000007
3,10,20,1,13,0.4100000000000002,2,3,68,22,15,65,6.949999999999905,0.4200000000000002,3.0199999999999796,1.490000000000001,12,2,8,5,39,3,15,15,6,0,20,7,L,0.17820512820512824,0.14,0.2013333333333334,0.09933333333333334
3,11,21,1,10,0.3300000000000001,2,3,10,4,6,7,6.319999999999917,1.6000000000000012,0.5500000000000003,1.290000000000001,10,7,3,5,29,9,5,5,6,1,72,7,L,0.21793103448275872,0.17777777777777784,0.11000000000000001,0.2580000000000001
3,11,22,1,15,1.0300000000000007,7,12,106,101,62,61,5.829999999999943,0.5000000000000002,0.47000000000000025,0.4000000000000002,13,2,1,1,35,3,1,1,4,0,12,7,L,0.16657142857142862,0.16666666666666674,0.47000000000000025,0.4000000000000002
3,12,23,1,3,0.23000000000000007,2,6,100,28,33,98,7.229999999999896,0.4000000000000002,0.47000000000000025,0.5000000000000002,11,2,2,2,34,2,6,3,5,0,14,7,L,0.2126470588235295,0.20000000000000004,0.07833333333333332,0.1666666666666667
3,12,24,1,7,0.6500000000000004,3,7,74,2,9,120,3.7499999999999782,2.249999999999996,0.9600000000000006,0.38000000000000017,8,4,4,1,23,8,8,2,3,0,17,7,L,0.1630434782608696,0.2812500000000001,0.12000000000000002,0.19000000000000006
3,13,25,1,13,0.24000000000000007,3,6,23,14,13,24,2.1800000000000015,2.07,2.859999999999983,5.189999999999934,5,6,7,10,19,13,14,27,6,1,72,7,L,0.11473684210526319,0.15923076923076926,0.20428571428571435,0.1922222222222223
3,13,26,1,12,0.25000000000000006,2,4,87,116,86,4,2.5599999999999947,2.4599999999999915,1.2000000000000008,3.319999999999973,6,8,2,9,12,11,7,19,3,0,14,7,L,0.21333333333333343,0.22363636363636372,0.17142857142857149,0.1747368421052632
3,14,27,1,13,0.17,2,3,15,21,110,117,6.2599999999999145,1.460000000000001,0.6600000000000004,1.370000000000001,13,2,2,5,34,9,3,5,6,0,16,7,L,0.18411764705882358,0.16222222222222227,0.22000000000000008,0.2740000000000001
3,14,28,1,6,0.15,2,3,101,50,99,100,4.709999999999948,0.3000000000000001,1.2500000000000009,0.12999999999999998,12,1,7,1,28,1,8,1,4,0.5,16,7,L,0.16821428571428576,0.3000000000000001,0.15625000000000003,0.12999999999999998
3,15,29,1,14,0.3000000000000001,2,3,42,118,119,37,5.379999999999936,0.4200000000000002,1.0300000000000007,2.1899999999999973,9,1,4,5,24,1,6,10,5,0,14,7,L,0.22416666666666674,0.4200000000000002,0.17166666666666672,0.21900000000000008
3,15,30,1,3,1.9000000000000015,3,13,25,81,84,79,6.659999999999944,1.6600000000000013,1.330000000000001,0.4300000000000002,10,4,4,2,42,5,10,3,5,0.5,23,7,L,0.1585714285714286,0.33200000000000013,0.133,0.14333333333333337
3,16,31,1,3,0.47000000000000025,3,4,77,23,29,20,6.519999999999916,2.479999999999991,0.36000000000000015,0.7200000000000004,15,3,2,2,39,13,2,2,5,0,20,7,L,0.16717948717948722,0.1907692307692308,0.18000000000000002,0.36000000000000015
3,16,32,1,12,0.18000000000000002,2,4,85,90,3,89,2.6599999999999913,0.5300000000000002,0.8600000000000005,0.6500000000000004,6,2,2,2,22,2,5,5,3,0.5,24,7,L,0.12090909090909094,0.26500000000000007,0.17200000000000001,0.13
3,17,33,1,7,0.20000000000000004,1,3,79,58,52,83,5.529999999999931,0.6600000000000004,1.9400000000000015,0.48000000000000026,10,2,4,2,31,4,10,2,3,0,14,7,L,0.1783870967741936,0.16500000000000006,0.19400000000000003,0.24000000000000005
3,17,34,1,14,0.34000000000000014,2,6,40,90,111,21,5.919999999999925,1.5300000000000011,1.6100000000000012,0.7900000000000005,10,4,3,3,44,14,9,4,5,0,16,7,L,0.13454545454545458,0.10928571428571429,0.17888888888888893,0.19750000000000004
3,18,35,1,6,0.7200000000000004,2,9,50,12,37,39,7.379999999999903,0.9800000000000006,0.5700000000000003,0.37000000000000016,13,2,2,2,39,9,4,3,4,0,20,7,L,0.18923076923076929,0.1088888888888889,0.14250000000000002,0.12333333333333335
3,18,36,1,15,0.24000000000000007,2,3,62,118,61,117,3.429999999999976,3.5499999999999683,0.47000000000000025,1.0200000000000007,4,5,3,3,25,18,4,4,4,0,12,7,L,0.13720000000000002,0.19722222222222227,0.11750000000000001,0.25500000000000006
3,19,37,1,11,0.3100000000000001,2,4,110,115,30,119,5.549999999999933,0.2700000000000001,0.9900000000000007,0.24000000000000007,9,1,2,2,37,1,2,2,2,0.5,17,7,L,0.15000000000000002,0.2700000000000001,0.49500000000000033,0.12000000000000002
3,19,38,1,4,0.12999999999999998,2,3,107,70,61,108,3.7199999999999673,1.5100000000000011,1.0600000000000007,0.8800000000000006,8,5,2,3,13,8,8,3,2,0,12,7,L,0.2861538461538463,0.18875000000000003,0.13250000000000003,0.29333333333333345
3,20,39,1,15,0.35000000000000014,3,5,62,61,42,64,1.720000000000001,0.9600000000000006,4.009999999999959,0.8500000000000005,5,2,5,3,12,3,20,6,4,0.5,29,7,L,0.14333333333333337,0.3200000000000001,0.20050000000000007,0.1416666666666667
3,20,40,1,12,0.21000000000000005,2,5,22,17,87,26,7.319999999999893,0.23000000000000007,0.3900000000000002,0.38000000000000017,13,2,2,1,44,3,3,1,3,0,20,7,L,0.1663636363636364,0.07666666666666666,0.13,0.38000000000000017
4,1,1,0,8,0.23000000000000007,2,7,109,110,38,14,1.520000000000001,0.6300000000000003,0.49000000000000027,0.7300000000000004,4,3,4,4,21,7,5,7,2,0,15,7,L,0.07238095238095239,0.09,0.09800000000000002,0.1042857142857143
4,1,2,0,4,0.24000000000000007,2,4,107,52,3,28,1.8200000000000012,0.7100000000000004,0.47000000000000025,0.23000000000000007,6,2,2,1,15,3,3,1,2,0,17,7,L,0.12133333333333335,0.23666666666666675,0.1566666666666667,0.23000000000000007
4,2,3,0,8,0.3100000000000001,2,3,39,118,23,114,1.8000000000000012,0.8100000000000005,0.19000000000000003,0.17,6,4,1,2,11,5,1,2,2,0,15,7,L,0.16363636363636366,0.162,0.19000000000000003,0.08499999999999999
4,2,4,0,9,0.12999999999999998,2,2,2,72,29,102,22.77000000000074,0.01,0.01,0.04,20,1,1,1,133,1,1,1,4,0,17,7,L,0.17120300751879705,0.01,0.01,0.04
4,3,5,0,7,0.18000000000000002,2,3,85,110,92,28,2.200000000000001,0.5600000000000003,0.7200000000000004,0.21000000000000005,7,3,4,2,11,5,6,2,3,0,13,7,L,0.20000000000000007,0.11200000000000002,0.12000000000000001,0.10500000000000001
4,3,6,0,4,0.23000000000000007,2,5,18,105,46,48,2.629999999999993,0.9100000000000006,0.15,0.10999999999999999,8,4,1,2,18,6,1,2,2,0,18,7,L,0.14611111111111114,0.15166666666666673,0.15,0.055
4,4,7,0,2,0.3100000000000001,2,3,78,2,43,8,1.7600000000000011,5.219999999999933,0.08,0.01,5,12,2,1,15,24,2,1,3,0,20,7,L,0.11733333333333335,0.21750000000000008,0.04,0.01
4,4,8,0,10,0.3000000000000001,2,4,22,23,17,32,1.710000000000001,0.3100000000000001,0.2700000000000001,1.330000000000001,5,2,2,3,18,3,2,3,6,0.5,41,7,L,0.09500000000000001,0.10333333333333335,0.13499999999999998,0.4433333333333335
4,5,9,0,3,0.24000000000000007,4,5,117,111,1,82,6.4399999999999125,2.2699999999999956,1.8700000000000014,0.05,18,12,7,1,37,16,13,1,5,0,13,7,L,0.1740540540540541,0.14187500000000003,0.14384615384615387,0.05
4,5,10,0,10,0.17,2,4,22,15,100,23,1.1900000000000006,1.9300000000000015,0.5900000000000003,0.12999999999999998,5,6,4,2,8,11,6,2,6,0.5,38,7,L,0.14875000000000005,0.17545454545454553,0.09833333333333334,0.06499999999999999
4,6,11,0,1,0.22000000000000006,2,3,120,26,115,109,1.4400000000000008,0.8900000000000006,0.7000000000000004,0.4100000000000002,5,3,3,2,8,3,3,2,5,0.5,17,7,L,0.18000000000000008,0.29666666666666675,0.23333333333333342,0.20500000000000004
4,6,12,0,4,0.5000000000000002,2,4,84,71,9,69,2.6599999999999984,0.38000000000000017,0.2800000000000001,0.15,8,2,2,1,21,2,2,1,2,0,17,7,L,0.1266666666666667,0.19000000000000006,0.13999999999999999,0.15
4,7,13,1,10,0.21000000000000005,3,6,10,92,43,8,1.2400000000000007,2.1299999999999986,0.15,0.03,6,5,1,2,14,12,2,3,6,0,20,7,L,0.08857142857142859,0.17750000000000005,0.07500000000000001,0.01
4,7,14,1,7,0.26000000000000006,2,3,28,27,34,75,2.5799999999999947,0.09999999999999999,0.08,0.05,8,2,1,1,19,2,1,1,3,0.5,33,7,L,0.13578947368421054,0.05,0.08,0.05
4,8,15,1,10,0.2800000000000001,2,4,65,114,111,92,3.189999999999982,0.5000000000000002,0.20000000000000004,0.11999999999999998,8,3,2,2,21,5,3,2,6,0,11,7,L,0.15190476190476193,0.09999999999999999,0.06666666666666667,0.060000000000000005
4,8,16,1,14,0.6000000000000003,3,7,44,97,100,107,2.1000000000000014,0.6100000000000003,0.20000000000000004,0.5200000000000002,6,4,1,4,19,5,1,4,5,0.5,17,7,L,0.1105263157894737,0.12200000000000003,0.20000000000000004,0.13
4,9,17,1,14,0.25000000000000006,2,3,111,114,6,46,3.099999999999983,0.16,0.05,0.060000000000000005,6,1,1,1,23,1,1,1,5,0,15,7,L,0.1347826086956522,0.16,0.05,0.060000000000000005
4,9,18,1,13,0.2700000000000001,3,7,24,18,17,13,1.0100000000000005,0.6700000000000004,0.4100000000000002,9.299999999999846,6,3,5,17,11,4,5,57,6,1,72,7,L,0.09181818181818184,0.16750000000000004,0.08200000000000002,0.16315789473684214
4,10,19,1,7,0.35000000000000014,2,4,77,113,66,67,2.0600000000000014,0.5200000000000002,0.46000000000000024,0.15,6,3,3,2,15,6,4,2,3,0,13,7,L,0.13733333333333336,0.08666666666666667,0.11500000000000002,0.075
4,10,20,1,4,0.23000000000000007,2,3,102,99,86,107,0.9500000000000005,1.1200000000000008,0.8500000000000005,0.08,4,4,3,1,6,5,6,1,2,0.5,15,7,L,0.15833333333333338,0.22400000000000006,0.1416666666666667,0.08
4,11,21,1,12,0.11999999999999998,2,2,13,37,45,71,4.879999999999943,0.03,0.07,0.02,15,1,1,1,41,1,1,1,3,0,20,7,L,0.11902439024390246,0.03,0.07,0.02
4,11,22,1,6,0.35000000000000014,2,4,49,108,60,6,3.2299999999999827,1.1400000000000008,0.16,0.5400000000000003,12,4,2,3,19,5,3,3,4,0,16,7,L,0.17000000000000004,0.22800000000000006,0.05333333333333332,0.18000000000000005
4,12,23,1,3,0.13999999999999999,2,3,34,33,108,105,0.5700000000000002,1.6900000000000013,0.07,0.07,4,5,1,1,5,8,1,1,5,0,14,7,L,0.11400000000000005,0.2112500000000001,0.07,0.07
4,12,24,1,11,0.19000000000000003,2,3,60,117,120,2,1.1300000000000006,0.7900000000000005,0.20000000000000004,0.15,4,3,2,1,8,6,4,1,2,0,14,7,L,0.14125000000000004,0.13166666666666668,0.05,0.15
4,13,25,1,10,0.38000000000000017,2,4,10,9,26,6,1.9100000000000013,0.7300000000000004,0.37000000000000016,0.37000000000000016,7,7,2,2,14,8,4,2,6,0.5,41,7,L,0.13642857142857145,0.09125000000000001,0.0925,0.18500000000000008
4,13,26,1,14,0.7600000000000005,4,5,39,100,42,78,2.030000000000001,0.24000000000000007,0.18000000000000002,0.2900000000000001,6,1,1,1,13,1,1,1,5,0,15,7,L,0.1561538461538462,0.24000000000000007,0.18000000000000002,0.2900000000000001
4,14,27,1,6,0.24000000000000007,2,5,60,52,50,16,1.650000000000001,0.5200000000000002,0.20000000000000004,0.8100000000000005,5,3,2,4,12,5,3,7,4,0.5,30,7,L,0.13750000000000004,0.10400000000000001,0.06666666666666667,0.11571428571428571
4,14,28,1,15,0.9300000000000006,2,11,38,105,4,67,2.3200000000000016,0.5200000000000002,0.13999999999999999,0.23000000000000007,4,2,2,2,16,3,2,2,4,0,17,7,L,0.14500000000000005,0.17333333333333337,0.06999999999999999,0.115
4,15,29,1,3,0.7800000000000005,3,6,101,31,29,36,3.3199999999999905,0.3100000000000001,0.5700000000000003,0.07,12,2,2,1,23,2,2,1,5,0.5,32,7,L,0.14434782608695657,0.155,0.2850000000000001,0.07
4,15,30,1,12,0.34000000000000014,3,5,1,44,4,85,2.3900000000000006,0.15,0.2900000000000001,2.0300000000000007,7,1,1,9,14,1,1,18,3,0,20,7,L,0.17071428571428576,0.15,0.2900000000000001,0.1127777777777778
4,16,31,1,13,0.23000000000000007,2,4,22,18,13,14,1.700000000000001,0.2900000000000001,0.8200000000000005,0.20000000000000004,6,1,4,2,17,1,4,2,6,1,72,7,L,0.1,0.2900000000000001,0.20500000000000007,0.09999999999999999
4,16,32,1,3,0.4100000000000002,5,12,26,1,120,36,2.5099999999999993,0.16,0.4100000000000002,0.08,8,2,2,1,23,2,3,1,5,0,18,7,L,0.10913043478260871,0.08,0.1366666666666667,0.08
4,17,33,1,7,0.4400000000000002,2,4,74,78,104,102,1.9600000000000013,0.22000000000000006,0.9500000000000006,0.13999999999999999,5,1,5,1,16,1,5,1,3,0,10,7,L,0.12250000000000001,0.22000000000000006,0.19000000000000003,0.13999999999999999
4,17,34,1,11,0.38000000000000017,2,4,116,37,54,53,1.8300000000000012,2.209999999999997,0.23000000000000007,0.04,4,10,2,1,17,15,2,1,2,0,15,7,L,0.10764705882352942,0.14733333333333337,0.115,0.04
4,18,35,1,12,0.3100000000000001,2,4,93,91,92,98,0.8000000000000004,0.49000000000000027,0.48000000000000026,0.24000000000000007,4,2,3,1,7,5,4,1,3,0.5,20,7,L,0.11428571428571428,0.098,0.12,0.24000000000000007
4,18,36,1,10,1.5600000000000012,7,9,4,82,76,49,2.520000000000002,0.5400000000000003,0.36000000000000015,0.11999999999999998,10,2,2,1,21,4,4,1,6,0,16,7,L,0.12000000000000002,0.135,0.09,0.11999999999999998
4,19,37,1,13,0.24000000000000007,2,4,15,19,60,113,1.2100000000000006,1.2500000000000009,0.7300000000000004,0.05,5,8,2,2,10,11,3,2,6,0,18,7,L,0.12100000000000002,0.11363636363636365,0.24333333333333343,0.025
4,19,38,1,10,0.19000000000000003,2,5,11,43,39,4,0.6000000000000002,0.9400000000000006,0.5100000000000002,0.7500000000000004,4,4,3,3,7,7,3,6,6,0,22,7,L,0.08571428571428573,0.1342857142857143,0.17,0.125
4,20,39,1,3,0.3200000000000001,2,5,35,117,113,30,1.610000000000001,0.45000000000000023,0.22000000000000006,0.12999999999999998,4,3,2,1,12,6,4,1,5,0,14,7,L,0.1341666666666667,0.075,0.055,0.12999999999999998
4,20,40,1,12,0.10999999999999999,2,3,91,86,67,46,0.6300000000000002,1.0900000000000007,0.6100000000000003,0.16,4,2,3,1,5,7,4,1,3,0,15,7,L,0.12600000000000006,0.15571428571428575,0.15250000000000002,0.16
4,21,41,1,15,0.6300000000000003,3,4,113,93,69,40,2.1900000000000013,0.4300000000000002,0.19000000000000003,0.3200000000000001,7,2,2,2,19,3,3,5,4,0,14,7,L,0.11526315789473687,0.14333333333333334,0.06333333333333332,0.064
4,21,42,1,13,0.5000000000000002,2,7,17,18,53,77,2.4700000000000015,3.1599999999999766,0.08,0.15,8,13,1,2,21,27,1,2,6,0,19,7,L,0.11761904761904764,0.11703703703703706,0.08,0.07499999999999998
5,1,1,0,9,0.36000000000000015,2,4,70,64,31,95,1.4800000000000009,1.6300000000000012,0.5500000000000003,0.35000000000000014,6,3,1,1,10,7,1,1,4,0,16,7,L,0.14800000000000002,0.23285714285714296,0.5500000000000003,0.35000000000000014
5,1,2,0,6,0.36000000000000015,2,4,6,117,44,41,5.8599999999999275,0.04,0.05,0.04,11,1,1,1,19,1,1,1,4,0,18,7,L,0.3084210526315791,0.04,0.05,0.04
5,2,3,0,4,0.24000000000000007,2,3,98,88,12,45,2.6199999999999934,0.48000000000000026,0.46000000000000024,0.6900000000000004,7,1,1,3,14,1,1,3,2,0,16,7,L,0.1871428571428572,0.48000000000000026,0.46000000000000024,0.2300000000000001
5,2,4,0,10,0.2700000000000001,2,4,16,51,113,33,9.579999999999846,0.01,0.01,0.01,19,1,1,1,56,1,1,1,6,0,17,7,L,0.17107142857142862,0.01,0.01,0.01
5,3,5,0,9,0.3100000000000001,2,4,70,68,28,34,2.709999999999993,0.19000000000000003,1.0600000000000007,0.21000000000000005,5,1,3,2,13,1,6,4,4,0,18,7,L,0.20846153846153853,0.19000000000000003,0.17666666666666672,0.052500000000000005
5,3,6,0,7,0.24000000000000007,2,3,89,7,91,54,1.2000000000000006,1.330000000000001,0.8200000000000005,1.1800000000000008,5,3,4,5,7,5,5,6,3,0,16,7,L,0.17142857142857149,0.26600000000000007,0.16400000000000003,0.1966666666666667
5,4,7,0,3,0.5100000000000002,2,4,49,15,46,43,4.419999999999961,0.15,0.03,0.21000000000000005,8,2,1,3,18,4,1,3,5,0,20,7,L,0.24555555555555567,0.0375,0.03,0.07
5,4,8,0,1,0.3200000000000001,2,3,28,1,27,34,1.2600000000000007,1.6900000000000013,0.7800000000000005,0.48000000000000026,3,6,3,5,4,11,5,5,5,0.5,36,7,L,0.31500000000000017,0.15363636363636368,0.15600000000000003,0.096
5,5,9,0,1,0.2700000000000001,2,3,98,1,8,32,2.4999999999999964,1.0100000000000007,0.25000000000000006,0.7700000000000005,7,3,1,2,10,4,1,3,5,0,19,7,L,0.2500000000000001,0.2525000000000001,0.25000000000000006,0.25666666666666677
5,5,10,0,2,0.35000000000000014,2,5,15,39,75,43,3.069999999999986,1.0300000000000007,0.22000000000000006,0.9200000000000006,10,2,2,2,16,3,2,2,3,0,19,7,L,0.19187500000000007,0.3433333333333335,0.11,0.4600000000000002
5,6,11,0,10,0.2700000000000001,2,4,13,27,33,34,2.7399999999999913,0.25000000000000006,1.360000000000001,0.12999999999999998,7,1,3,1,16,1,3,1,6,0.5,36,7,L,0.17125000000000004,0.25000000000000006,0.4533333333333336,0.12999999999999998
5,6,12,0,2,0.5400000000000003,2,7,44,38,81,51,3.0199999999999916,0.16,0.4300000000000002,0.12999999999999998,6,1,2,1,16,1,2,1,3,0,17,7,L,0.18875000000000006,0.16,0.21500000000000002,0.12999999999999998
5,7,13,1,12,0.3100000000000001,2,3,98,85,42,94,3.6999999999999718,0.17,1.450000000000001,0.5600000000000003,6,2,4,4,11,2,5,4,3,0,13,7,L,0.33636363636363653,0.08499999999999999,0.2900000000000001,0.14
5,7,14,1,10,0.26000000000000006,2,3,81,8,34,112,2.2700000000000014,0.9000000000000006,1.1800000000000008,1.8100000000000014,8,4,3,3,9,5,5,6,6,0,16,7,L,0.25222222222222235,0.18000000000000005,0.23600000000000007,0.3016666666666668
5,8,15,1,11,0.36000000000000015,2,3,7,77,111,116,2.5999999999999965,0.15,0.26000000000000006,0.34000000000000014,5,2,1,2,10,2,1,2,2,0,13,7,L,0.2600000000000001,0.07499999999999998,0.26000000000000006,0.17
5,8,16,1,12,0.47000000000000025,2,5,85,102,88,98,2.310000000000002,0.3300000000000001,0.3300000000000001,1.0800000000000007,5,1,3,2,11,1,4,2,3,0,10,7,L,0.21000000000000005,0.3300000000000001,0.0825,0.5400000000000004
5,9,17,1,11,0.4000000000000002,2,6,111,38,114,44,3.699999999999974,0.18000000000000002,0.34000000000000014,0.3900000000000002,9,1,2,2,16,1,2,2,2,0,14,7,L,0.2312500000000001,0.18000000000000002,0.17000000000000004,0.19500000000000006
5,9,18,1,12,0.2800000000000001,3,5,93,34,90,9,1.9600000000000013,0.9600000000000006,0.7100000000000004,0.4200000000000002,7,3,3,2,16,6,3,2,3,0,17,7,L,0.12250000000000003,0.16000000000000003,0.23666666666666678,0.21000000000000002
5,10,19,1,15,0.35000000000000014,2,4,2,6,95,10,4.9699999999999465,1.430000000000001,0.01,0.04,12,3,1,1,29,4,1,1,4,0.5,39,7,L,0.17137931034482765,0.35750000000000015,0.01,0.04
5,10,20,1,6,1.9300000000000015,5,10,53,51,41,81,2.560000000000002,0.7700000000000005,0.47000000000000025,0.10999999999999999,8,2,3,2,13,3,4,2,4,0,16,7,L,0.196923076923077,0.25666666666666677,0.11750000000000002,0.05500000000000001
5,11,21,1,11,0.22000000000000006,2,3,81,7,12,116,2.669999999999992,0.4000000000000002,0.19000000000000003,0.11999999999999998,7,2,1,2,14,2,1,3,2,0,17,7,L,0.19071428571428578,0.20000000000000004,0.19000000000000003,0.04
5,11,22,1,12,0.3000000000000001,2,6,86,93,106,99,2.7699999999999916,0.49000000000000027,1.1600000000000008,0.9700000000000006,11,4,2,3,21,4,3,4,3,0,10,7,L,0.13190476190476194,0.1225,0.3866666666666669,0.24250000000000008
5,12,23,1,3,0.13999999999999999,2,4,26,7,57,74,1.4700000000000009,8.489999999999863,1.470000000000001,0.22000000000000006,5,14,2,1,8,26,2,1,5,0,18,7,L,0.18375000000000008,0.32653846153846167,0.7350000000000004,0.22000000000000006
5,12,24,1,15,0.2800000000000001,2,4,94,65,93,90,2.1000000000000014,0.7200000000000004,0.3300000000000001,0.8500000000000005,7,4,1,2,11,5,1,2,4,0.5,22,7,L,0.19090909090909097,0.14400000000000002,0.3300000000000001,0.4250000000000002
5,13,25,1,11,0.20000000000000004,2,5,2,12,120,110,0.9000000000000005,1.0300000000000007,0.18000000000000002,0.19000000000000003,4,4,1,2,8,6,1,2,2,0,16,7,L,0.11250000000000003,0.1716666666666667,0.18000000000000002,0.095
5,13,26,1,3,0.35000000000000014,2,3,32,28,70,31,2.0100000000000016,4.069999999999958,0.23000000000000007,0.5700000000000003,7,10,3,3,12,13,4,3,5,0.5,34,7,L,0.16750000000000004,0.3130769230769232,0.0575,0.19000000000000006
5,14,27,1,10,0.08,2,2,4,10,71,79,0.5900000000000002,1.1800000000000008,1.8200000000000014,0.060000000000000005,3,4,4,1,3,7,4,1,6,0,19,7,L,0.19666666666666674,0.16857142857142862,0.45500000000000024,0.060000000000000005
5,14,28,1,6,0.21000000000000005,2,3,58,30,56,35,1.3700000000000008,1.6700000000000013,0.6200000000000003,0.12999999999999998,5,2,3,2,9,3,3,3,4,0,18,7,L,0.15222222222222226,0.556666666666667,0.20666666666666672,0.043333333333333335
5,15,29,1,14,0.5800000000000003,6,9,43,9,2,63,2.849999999999996,0.10999999999999999,4.389999999999951,0.45000000000000023,10,1,8,2,21,1,12,2,5,0,21,7,L,0.13571428571428573,0.10999999999999999,0.36583333333333357,0.22500000000000003
5,15,30,1,13,0.22000000000000006,2,3,13,15,54,20,4.499999999999953,4.619999999999946,0.01,0.01,8,13,1,1,14,20,1,1,6,0.5,40,7,L,0.32142857142857156,0.2310000000000001,0.01,0.01
5,16,31,1,4,0.11999999999999998,5,5,1,48,39,37,16.979999999999837,0.02,0.01,0.04,20,1,1,2,77,1,1,2,2,0.5,36,7,L,0.22051948051948062,0.02,0.01,0.02
5,16,32,1,11,1.280000000000001,3,5,117,75,120,82,2.6700000000000017,1.6500000000000012,0.9200000000000006,0.2700000000000001,8,6,4,3,13,10,5,3,2,0,10,7,L,0.20538461538461547,0.16500000000000004,0.18400000000000005,0.09000000000000001
5,17,33,1,12,0.26000000000000006,2,3,96,92,22,17,1.0900000000000005,2.1699999999999977,0.3100000000000001,0.8000000000000005,4,6,1,6,5,12,1,7,3,0,18,7,L,0.21800000000000008,0.18083333333333337,0.3100000000000001,0.1142857142857143
5,17,34,1,7,0.09999999999999999,2,3,83,79,76,74,0.5200000000000002,0.5400000000000003,0.9500000000000006,1.370000000000001,4,3,3,6,5,4,3,6,3,1,36,7,L,0.10400000000000004,0.135,0.3166666666666668,0.2283333333333334
5,18,35,1,13,0.18000000000000002,2,2,14,107,46,15,7.019999999999898,0.23000000000000007,0.10999999999999999,0.02,16,3,2,1,27,3,2,1,6,0,19,7,L,0.2600000000000001,0.07666666666666667,0.055,0.02
5,18,36,1,11,0.12999999999999998,2,3,120,113,76,64,0.8300000000000004,0.24000000000000007,0.7600000000000005,0.7400000000000004,5,1,2,2,8,1,3,2,2,0,11,7,L,0.10375000000000002,0.24000000000000007,0.2533333333333334,0.37000000000000016
5,19,37,1,3,1.0400000000000007,3,7,31,4,34,119,2.780000000000002,3.749999999999964,0.01,0.03,7,8,1,1,13,13,1,1,5,0,18,7,L,0.21384615384615394,0.2884615384615386,0.01,0.03
5,19,38,1,15,0.5700000000000003,2,5,63,66,95,38,2.6200000000000006,0.9200000000000006,2.9299999999999815,0.9100000000000006,5,4,8,5,11,6,10,5,4,0,16,7,L,0.23818181818181827,0.15333333333333338,0.29300000000000015,0.1820000000000001
5,20,39,1,14,0.34000000000000014,2,3,111,47,118,45,1.740000000000001,0.5900000000000003,0.12999999999999998,0.4200000000000002,6,2,1,3,14,4,1,4,5,0,14,7,L,0.1242857142857143,0.14750000000000002,0.12999999999999998,0.10500000000000001
5,20,40,1,3,0.21000000000000005,5,5,2,1,26,32,8.87999999999986,0.01,0.01,0.01,20,1,1,1,43,1,1,1,5,0,22,7,L,0.2065116279069768,0.01,0.01,0.01
5,21,41,1,6,0.16,2,3,5,84,73,49,1.0100000000000005,1.8500000000000014,0.36000000000000015,0.26000000000000006,3,3,3,2,4,6,3,2,4,0,16,7,L,0.2525000000000001,0.30833333333333346,0.12000000000000001,0.13
5,21,42,1,13,1.1600000000000008,7,8,66,37,65,90,12.16999999999981,0.01,0.01,0.01,20,1,1,1,48,1,1,1,6,0,16,7,L,0.2535416666666668,0.01,0.01,0.01
6,1,1,0,5,0.2900000000000001,2,5,106,97,99,28,1.9200000000000013,0.8400000000000005,0.10999999999999999,0.18000000000000002,5,3,1,1,13,5,3,1,6,0.5,17,7,L,0.14769230769230773,0.16800000000000004,0.03666666666666667,0.18000000000000002
6,1,2,0,7,0.3100000000000001,2,4,95,41,86,24,1.9400000000000013,0.5300000000000002,0.21000000000000005,0.45000000000000023,5,2,2,3,19,7,2,4,3,0,17,7,L,0.10210526315789474,0.0757142857142857,0.10499999999999998,0.11249999999999999
6,2,3,0,6,0.24000000000000007,2,3,56,50,108,57,1.5000000000000009,0.2700000000000001,0.4200000000000002,0.4400000000000002,6,2,1,3,13,4,1,5,4,0.5,26,7,L,0.11538461538461539,0.06749999999999999,0.4200000000000002,0.08800000000000001
6,2,4,0,9,0.19000000000000003,2,4,68,80,66,20,1.1700000000000006,1.330000000000001,0.25000000000000006,0.21000000000000005,6,4,3,3,12,8,3,3,4,0,17,7,L,0.09750000000000002,0.16625000000000004,0.08333333333333334,0.06999999999999999
6,3,5,0,2,0.4300000000000002,3,7,74,39,84,83,1.4500000000000008,2.5099999999999905,0.01,0.03,6,5,1,1,13,18,1,1,3,0.5,23,7,L,0.11153846153846156,0.13944444444444448,0.01,0.03
6,3,6,0,10,0.3200000000000001,2,6,23,14,21,22,1.690000000000001,0.7400000000000004,0.9700000000000006,0.02,8,2,5,1,17,7,5,1,6,1,72,7,L,0.09941176470588237,0.1057142857142857,0.19400000000000006,0.02
6,4,7,0,10,0.5100000000000002,2,6,18,23,73,20,1.570000000000001,1.8100000000000014,0.09999999999999999,0.8600000000000005,6,11,1,6,16,21,1,6,6,0.5,39,7,L,0.09812500000000002,0.08619047619047619,0.09999999999999999,0.1433333333333334
6,4,8,0,4,0.17,2,5,8,9,51,49,2.22,0.24000000000000007,0.8200000000000005,0.22000000000000006,8,2,4,1,21,3,7,1,2,0,20,7,L,0.10571428571428573,0.08,0.11714285714285715,0.22000000000000006
6,5,9,0,5,0.24000000000000007,2,3,10,5,46,92,2.4399999999999973,7.0799999999998935,0.5400000000000003,0.01,9,16,3,1,16,46,3,1,6,0,20,7,L,0.15250000000000002,0.1539130434782609,0.18000000000000005,0.01
6,5,10,0,2,0.3100000000000001,2,6,79,75,84,80,1.4600000000000009,0.7800000000000005,0.11999999999999998,0.11999999999999998,6,4,2,1,14,7,3,1,3,1,36,7,L,0.1042857142857143,0.11142857142857143,0.04,0.11999999999999998
6,6,11,0,6,0.5700000000000003,2,5,54,60,43,46,1.8500000000000012,0.3900000000000002,0.19000000000000003,0.21000000000000005,7,2,3,2,15,4,3,2,4,0,18,7,L,0.12333333333333335,0.09750000000000002,0.06333333333333334,0.10499999999999998
6,6,12,0,9,0.24000000000000007,2,6,72,68,66,27,1.650000000000001,0.2800000000000001,1.2100000000000009,0.4400000000000002,5,2,7,2,12,5,8,6,4,0.5,29,7,L,0.13750000000000004,0.056,0.15125000000000002,0.07333333333333333
6,7,13,1,11,0.35000000000000014,3,5,115,81,117,83,1.2600000000000007,0.5200000000000002,0.2800000000000001,0.25000000000000006,5,2,2,2,11,7,2,4,2,0,10,7,L,0.11454545454545456,0.07428571428571429,0.14,0.0625
6,7,14,1,12,0.2900000000000001,2,4,96,86,64,93,1.9500000000000013,0.25000000000000006,1.0800000000000007,0.04,6,2,3,1,17,3,3,1,3,0.5,22,7,L,0.11470588235294117,0.08333333333333333,0.36000000000000015,0.04
6,8,15,1,14,0.24000000000000007,2,3,44,40,41,62,0.9800000000000005,0.6000000000000003,0.4000000000000002,0.8200000000000005,4,3,3,3,5,4,3,7,5,0.5,34,7,L,0.19600000000000006,0.15000000000000002,0.13333333333333333,0.11714285714285716
6,8,16,1,7,0.13999999999999999,2,5,57,80,21,77,1.650000000000001,0.2700000000000001,0.7500000000000004,0.04,7,2,3,1,11,3,5,1,3,0,16,7,L,0.15000000000000005,0.09,0.15000000000000002,0.04
6,9,17,1,6,0.19000000000000003,2,2,13,14,25,31,5.039999999999941,0.02,0.01,0.01,11,1,1,1,28,1,1,1,4,0,22,7,L,0.18000000000000005,0.02,0.01,0.01
6,9,18,1,14,0.34000000000000014,2,5,43,44,66,78,1.7700000000000011,0.24000000000000007,1.0400000000000007,0.6500000000000004,5,1,5,3,15,1,8,4,5,0,17,7,L,0.11800000000000001,0.24000000000000007,0.13,0.16250000000000003
6,10,19,1,6,0.2700000000000001,3,5,73,41,110,83,1.4600000000000009,1.5600000000000012,0.3000000000000001,0.01,9,7,1,1,18,14,1,1,4,0,13,7,L,0.08111111111111112,0.11142857142857143,0.3000000000000001,0.01
6,10,20,1,4,0.18000000000000002,2,3,64,103,102,18,1.8400000000000012,0.26000000000000006,0.07,0.20000000000000004,6,2,1,2,14,2,1,2,2,0,14,7,L,0.13142857142857145,0.13,0.07,0.09999999999999999
6,11,21,1,4,0.21000000000000005,2,3,81,108,49,50,2.1200000000000014,0.7300000000000004,0.10999999999999999,0.15,5,4,1,2,21,7,1,2,2,0,13,7,L,0.10095238095238097,0.1042857142857143,0.10999999999999999,0.07500000000000001
6,11,22,1,11,0.3100000000000001,2,4,65,19,64,48,2.330000000000001,0.5900000000000003,0.36000000000000015,0.05,8,3,1,2,14,3,1,3,2,0,19,7,L,0.16642857142857148,0.19666666666666674,0.36000000000000015,0.016666666666666666
6,12,23,1,4,0.21000000000000005,2,3,105,106,104,20,1.680000000000001,0.11999999999999998,0.9300000000000006,0.07,4,1,5,2,13,1,11,2,2,0.5,18,7,L,0.12923076923076926,0.11999999999999998,0.08454545454545456,0.035
6,12,24,1,7,0.4400000000000002,2,4,45,49,59,119,2.4600000000000013,0.3100000000000001,0.26000000000000006,0.12999999999999998,8,2,2,2,22,3,3,4,3,0,15,7,L,0.11181818181818184,0.10333333333333336,0.08666666666666667,0.0325
6,13,25,1,4,0.23000000000000007,2,3,103,75,100,105,1.2700000000000007,0.6100000000000003,0.18000000000000002,0.07,4,2,2,1,7,5,2,1,2,0.5,15,7,L,0.18142857142857147,0.12200000000000001,0.09,0.07
6,13,26,1,13,0.5500000000000003,2,6,14,23,112,15,2.070000000000001,0.15,0.16,0.3300000000000001,4,1,1,3,22,1,1,4,6,0.5,38,7,L,0.09409090909090909,0.15,0.16,0.0825
6,14,27,1,6,0.3200000000000001,2,3,52,116,78,54,1.590000000000001,0.7400000000000004,0.08,0.3300000000000001,4,2,1,2,9,6,1,3,4,0,13,7,L,0.17666666666666672,0.12333333333333336,0.08,0.11
6,14,28,1,3,0.25000000000000006,2,6,99,36,33,100,2.1500000000000017,0.3100000000000001,0.36000000000000015,0.19000000000000003,7,4,2,2,12,4,2,3,5,0,14,7,L,0.17916666666666675,0.0775,0.18000000000000005,0.06333333333333332
6,15,29,1,12,0.36000000000000015,2,5,52,92,54,89,1.9200000000000013,0.23000000000000007,0.13999999999999999,0.07,5,2,2,1,22,3,3,1,3,0,14,7,L,0.08727272727272728,0.07666666666666667,0.04666666666666667,0.07
6,15,30,1,15,0.3300000000000001,3,6,79,71,78,39,2.489999999999998,0.15,0.20000000000000004,0.4000000000000002,7,2,1,3,16,2,1,4,4,0,15,7,L,0.15562500000000004,0.07499999999999998,0.20000000000000004,0.10000000000000002
6,16,31,1,13,1.0000000000000007,3,7,16,15,50,23,1.9900000000000013,3.429999999999971,0.01,0.02,7,9,1,2,17,31,1,2,6,0.5,40,7,L,0.11705882352941178,0.1106451612903226,0.01,0.01
6,16,32,1,4,0.15,2,2,4,8,94,39,6.48999999999991,0.01,0.11999999999999998,0.01,18,1,2,1,57,1,2,1,2,0,20,7,L,0.11385964912280704,0.01,0.05999999999999999,0.01
6,17,33,1,6,0.4300000000000002,3,6,55,16,106,50,0.8600000000000004,1.0900000000000007,0.9300000000000006,0.5900000000000003,5,3,5,5,8,5,8,5,4,0,16,7,L,0.10750000000000003,0.21800000000000008,0.11625000000000002,0.11800000000000001
6,17,34,1,15,0.25000000000000006,2,3,72,66,90,67,0.9900000000000004,0.22000000000000006,0.9700000000000006,0.05,4,1,6,1,7,2,12,1,4,0.5,27,7,L,0.14142857142857143,0.11000000000000001,0.08083333333333335,0.05
6,18,35,1,10,0.22000000000000006,2,3,8,9,70,91,1.0000000000000004,6.899999999999897,0.01,0.23000000000000007,4,13,1,2,7,45,1,3,6,0,19,7,L,0.14285714285714288,0.15333333333333338,0.01,0.07666666666666667
6,18,36,1,6,0.09999999999999999,2,3,60,58,50,29,0.5800000000000003,0.23000000000000007,0.09999999999999999,0.3000000000000001,4,2,1,1,8,3,1,2,4,0.5,29,7,L,0.07250000000000001,0.07666666666666667,0.09999999999999999,0.15000000000000002
6,19,37,1,10,0.3900000000000002,3,6,5,2,120,11,1.3300000000000007,11.529999999999799,0.22000000000000006,0.01,7,19,3,1,19,79,3,1,6,0.5,38,7,L,0.07,0.14594936708860762,0.07333333333333333,0.01
6,19,38,1,14,0.4300000000000002,2,7,40,53,48,88,1.7700000000000011,0.49000000000000027,0.21000000000000005,0.17,5,3,3,1,16,6,4,1,5,0,17,7,L,0.11062500000000001,0.08166666666666667,0.0525,0.17
6,20,39,1,15,0.22000000000000006,2,6,65,70,63,79,1.0400000000000005,0.13999999999999999,0.49000000000000027,0.22000000000000006,4,2,2,2,16,2,4,3,4,0.5,27,7,L,0.065,0.06999999999999999,0.12250000000000003,0.07333333333333333
6,20,40,1,4,0.6400000000000003,2,8,100,105,87,58,1.8500000000000012,0.8700000000000006,0.11999999999999998,0.03,5,4,2,1,15,8,3,1,2,0,11,7,L,0.12333333333333335,0.10875,0.04,0.03
6,21,41,1,12,0.4100000000000002,2,7,96,65,4,93,2.2000000000000015,0.3000000000000001,0.6000000000000003,0.2900000000000001,6,2,4,4,20,2,10,7,3,0,16,7,L,0.11000000000000001,0.15000000000000002,0.060000000000000005,0.041428571428571426
6,21,42,1,6,0.07,1,2,60,36,35,80,1.8100000000000014,0.47000000000000025,0.4100000000000002,0.04,6,3,3,1,13,5,4,1,4,0,17,7,L,0.13923076923076927,0.09400000000000001,0.10250000000000002,0.04
6,22,43,1,10,0.13999999999999999,2,2,2,4,26,31,1.1700000000000006,0.8200000000000005,0.9100000000000006,0.04,4,4,4,1,7,6,4,1,6,0,22,7,L,0.16714285714285718,0.13666666666666671,0.22750000000000006,0.04
6,22,44,1,11,0.10999999999999999,2,3,111,96,120,94,0.9600000000000005,0.8800000000000006,0.6300000000000003,0.05,4,4,6,1,8,5,8,1,2,0,10,7,L,0.12000000000000002,0.17600000000000005,0.07875000000000001,0.05
7,1,1,0,2,0.3100000000000001,2,3,27,84,12,74,2.459999999999998,0.5300000000000002,1.280000000000001,0.17,6,4,4,2,10,9,8,2,3,0,17,7,L,0.2460000000000001,0.058888888888888886,0.16000000000000006,0.08499999999999999
7,1,2,0,10,0.45000000000000023,4,7,16,15,107,14,1.2900000000000007,0.9200000000000006,1.0700000000000007,2.3599999999999937,6,2,2,5,9,6,6,9,6,0.5,38,7,L,0.14333333333333337,0.15333333333333335,0.17833333333333337,0.26222222222222236
7,2,3,0,8,0.5300000000000002,2,9,43,42,41,114,3.2499999999999862,0.7100000000000004,0.18000000000000002,0.8700000000000006,9,3,2,6,20,4,3,7,2,0.5,32,7,L,0.16250000000000003,0.17750000000000005,0.06,0.12428571428571432
7,2,4,0,6,0.24000000000000007,2,3,30,107,23,87,3.529999999999974,0.5400000000000003,0.45000000000000023,0.18000000000000002,9,3,2,1,29,3,4,1,4,0,16,7,L,0.1217241379310345,0.18000000000000008,0.1125,0.18000000000000002
7,3,5,0,6,0.36000000000000015,2,6,55,52,21,19,1.8800000000000012,1.2300000000000009,1.0700000000000007,0.26000000000000006,5,3,5,2,18,3,5,3,4,0,20,7,L,0.10444444444444445,0.4100000000000002,0.21400000000000005,0.08666666666666667
7,3,6,0,3,0.21000000000000005,2,3,85,45,92,96,2.1900000000000017,0.6800000000000004,1.2100000000000009,0.13999999999999999,5,3,4,2,8,3,7,2,5,0.5,23,7,L,0.2737500000000001,0.2266666666666667,0.1728571428571429,0.06999999999999999
7,4,7,0,3,0.25000000000000006,2,4,40,42,97,77,3.2699999999999796,0.4100000000000002,0.10999999999999999,0.3900000000000002,12,3,1,2,25,3,1,2,5,0,15,7,L,0.13080000000000003,0.1366666666666667,0.10999999999999999,0.19500000000000003
7,4,8,0,8,0.2800000000000001,2,3,88,86,114,57,2.3200000000000007,0.8500000000000005,0.8300000000000005,0.19000000000000003,7,2,4,2,9,4,4,2,2,0,12,7,L,0.2577777777777779,0.21250000000000008,0.20750000000000007,0.09499999999999999
7,5,9,0,5,0.2800000000000001,2,4,49,11,117,88,1.8700000000000012,2.679999999999987,0.36000000000000015,0.09999999999999999,6,6,2,1,9,16,2,1,6,0,15,7,L,0.20777777777777787,0.16750000000000004,0.18000000000000005,0.09999999999999999
7,5,10,0,2,0.2900000000000001,2,3,97,106,75,42,1.2400000000000007,0.46000000000000024,1.280000000000001,0.5500000000000003,5,1,3,3,8,1,4,5,3,0,12,7,L,0.15500000000000005,0.46000000000000024,0.3200000000000001,0.10999999999999999
7,6,11,0,8,0.34000000000000014,2,6,23,24,21,44,2.8099999999999916,0.9600000000000006,0.6900000000000004,0.12999999999999998,9,3,3,1,15,3,3,1,2,0.5,41,7,L,0.1873333333333334,0.3200000000000001,0.2300000000000001,0.12999999999999998
7,6,12,0,4,0.2800000000000001,2,3,98,74,80,79,1.1600000000000006,0.8700000000000006,0.6100000000000003,0.7300000000000004,4,1,2,2,7,1,2,3,2,0.5,20,7,L,0.16571428571428579,0.8700000000000006,0.3050000000000001,0.2433333333333334
7,7,13,1,4,0.3300000000000001,2,4,108,54,57,104,1.3800000000000008,2.259999999999996,0.37000000000000016,0.7600000000000005,4,5,1,5,10,12,1,6,2,0,12,7,L,0.13800000000000004,0.18833333333333338,0.37000000000000016,0.12666666666666668
7,7,14,1,7,0.47000000000000025,2,4,37,6,81,70,4.959999999999949,0.18000000000000002,0.02,0.26000000000000006,11,1,1,2,29,1,1,2,3,0,18,7,L,0.17103448275862074,0.18000000000000002,0.02,0.13000000000000003
7,8,15,1,14,0.5700000000000003,2,5,40,63,44,76,4.259999999999966,0.2700000000000001,0.9700000000000006,0.060000000000000005,9,1,2,2,18,1,2,2,5,0,17,7,L,0.23666666666666675,0.2700000000000001,0.4850000000000003,0.030000000000000002
7,8,16,1,3,0.23000000000000007,2,3,98,108,33,55,2.5999999999999934,0.34000000000000014,0.15,0.37000000000000016,6,2,1,2,17,2,1,3,5,0,13,7,L,0.15294117647058827,0.17000000000000004,0.15,0.12333333333333334
7,9,17,1,3,0.4100000000000002,2,4,64,74,35,27,2.1900000000000017,1.330000000000001,0.08,0.08,6,5,1,1,12,6,1,1,5,0,17,7,L,0.18250000000000005,0.22166666666666673,0.08,0.08
7,9,18,1,14,0.26000000000000006,3,4,39,6,46,89,1.8200000000000012,1.0400000000000007,0.2900000000000001,1.1800000000000008,6,3,2,3,9,3,2,7,5,0,19,7,L,0.20222222222222228,0.3466666666666668,0.14500000000000002,0.16857142857142862
7,10,19,1,15,0.9400000000000006,6,9,105,70,61,42,3.4799999999999907,0.26000000000000006,1.5800000000000012,0.38000000000000017,12,1,6,3,23,2,8,4,4,0,15,7,L,0.15130434782608698,0.13,0.19750000000000006,0.09500000000000001
7,10,20,1,6,0.5700000000000003,2,3,31,58,59,84,5.579999999999938,0.08,0.5700000000000003,0.3200000000000001,16,1,4,1,31,1,4,1,4,0,16,7,L,0.18000000000000005,0.08,0.14250000000000002,0.3200000000000001
7,11,21,1,14,0.22000000000000006,2,3,46,43,75,77,1.1700000000000006,0.38000000000000017,2.7799999999999847,0.23000000000000007,4,1,9,2,7,1,16,2,5,0,16,7,L,0.16714285714285718,0.38000000000000017,0.17375000000000004,0.115
7,11,22,1,4,0.2900000000000001,2,5,98,106,33,26,2.0100000000000016,0.17,0.49000000000000027,1.450000000000001,8,1,2,4,16,1,3,4,2,0,14,7,L,0.12562500000000001,0.17,0.16333333333333336,0.3625000000000002
7,12,23,1,3,0.13999999999999999,2,2,14,96,19,27,8.31999999999987,0.01,0.01,0.01,18,1,1,1,44,1,1,1,5,0,20,7,L,0.18909090909090914,0.01,0.01,0.01
7,12,24,1,6,1.5600000000000012,5,8,77,108,51,44,3.1800000000000024,0.3100000000000001,0.3200000000000001,1.1800000000000008,7,2,2,3,12,3,2,4,4,0,14,7,L,0.2650000000000001,0.10333333333333333,0.16000000000000003,0.29500000000000015
7,13,25,1,15,0.3000000000000001,2,7,63,72,29,32,1.3800000000000008,1.9200000000000015,1.1300000000000008,0.16,5,4,5,1,13,12,7,1,4,0,18,7,L,0.10615384615384617,0.16000000000000003,0.16142857142857148,0.16
7,13,26,1,10,0.6100000000000003,6,8,39,40,53,12,2.0400000000000014,0.3900000000000002,1.7100000000000013,0.07,9,2,4,2,16,3,9,2,6,0,20,7,L,0.12750000000000003,0.13,0.19000000000000009,0.035
7,14,27,1,10,0.3100000000000001,2,5,5,50,6,91,1.2600000000000007,1.0100000000000007,2.4999999999999907,1.450000000000001,5,2,6,5,9,4,12,6,6,0,19,7,L,0.14000000000000004,0.2525000000000001,0.2083333333333334,0.24166666666666675
7,14,28,1,15,0.2700000000000001,2,3,23,22,64,79,2.9199999999999875,1.2500000000000009,0.3900000000000002,0.12999999999999998,7,3,3,1,20,3,3,1,4,0,19,7,L,0.14600000000000002,0.41666666666666685,0.13000000000000003,0.12999999999999998
7,15,29,1,12,0.45000000000000023,2,6,85,55,94,23,1.530000000000001,1.390000000000001,1.2000000000000008,1.300000000000001,5,3,5,3,10,6,6,5,3,0,16,7,L,0.15300000000000005,0.23166666666666677,0.20000000000000007,0.2600000000000001
7,15,30,1,3,0.13999999999999999,2,3,30,10,35,27,1.2400000000000007,0.8800000000000006,1.480000000000001,1.280000000000001,5,3,3,6,13,5,3,7,5,0.5,36,7,L,0.09538461538461539,0.17600000000000005,0.4933333333333336,0.1828571428571429
7,16,31,1,14,0.34000000000000014,2,4,43,40,87,93,1.8900000000000012,0.8800000000000006,0.35000000000000014,1.440000000000001,6,4,1,6,10,4,2,8,5,0,16,7,L,0.18900000000000006,0.22000000000000006,0.17500000000000004,0.18000000000000005
7,16,32,1,6,0.34000000000000014,2,3,52,28,57,35,1.3600000000000008,0.8300000000000005,0.8900000000000006,1.1600000000000008,5,2,3,4,7,3,7,5,4,0,18,7,L,0.19428571428571434,0.2766666666666668,0.12714285714285714,0.2320000000000001
7,17,33,1,13,0.6400000000000003,4,5,14,20,52,93,1.750000000000001,0.34000000000000014,1.8200000000000014,0.17,7,2,8,2,9,3,12,3,6,0,19,7,L,0.1944444444444445,0.11333333333333336,0.1516666666666667,0.056666666666666664
7,17,34,1,7,0.18000000000000002,3,5,76,81,78,110,0.7900000000000004,0.6900000000000004,3.4499999999999704,0.3300000000000001,5,2,8,1,7,3,18,1,3,0.5,20,7,L,0.11285714285714289,0.23000000000000007,0.19166666666666674,0.3300000000000001
7,18,35,1,4,0.4300000000000002,2,5,42,39,37,108,1.2000000000000006,0.9100000000000006,0.3000000000000001,1.320000000000001,4,5,2,5,9,6,2,5,2,0.5,32,7,L,0.13333333333333336,0.1516666666666667,0.15,0.26400000000000007
7,18,36,1,11,0.4000000000000002,2,3,27,94,31,32,2.330000000000002,0.5000000000000002,0.3000000000000001,0.7600000000000005,5,2,2,3,12,3,3,3,2,0.5,33,7,L,0.1941666666666667,0.1666666666666667,0.09999999999999999,0.2533333333333334
7,19,37,1,10,0.3100000000000001,2,3,59,48,7,55,3.1999999999999824,0.15,0.5100000000000002,0.9700000000000006,10,2,3,3,23,2,5,7,6,0,19,7,L,0.13913043478260873,0.07499999999999998,0.10200000000000002,0.1385714285714286
7,19,38,1,4,0.21000000000000005,2,3,99,98,103,28,0.8700000000000004,0.49000000000000027,0.5900000000000003,0.5000000000000002,5,2,3,3,8,2,6,5,2,0.5,17,7,L,0.10875000000000001,0.2450000000000001,0.09833333333333333,0.10000000000000002
7,20,39,1,11,0.34000000000000014,2,7,119,116,19,16,2.599999999999996,0.15,0.7300000000000004,0.38000000000000017,7,1,3,2,19,1,5,4,2,0,16,7,L,0.13684210526315793,0.15,0.14600000000000005,0.095
7,20,40,1,10,0.2800000000000001,2,4,5,1,38,44,4.099999999999962,0.6700000000000004,0.2900000000000001,0.2900000000000001,11,4,2,4,20,4,2,4,6,0,22,7,L,0.20500000000000007,0.16750000000000004,0.14500000000000002,0.07250000000000001
7,21,41,1,15,0.2800000000000001,2,3,72,63,29,66,2.5699999999999954,0.8900000000000006,0.5700000000000003,0.35000000000000014,9,3,3,2,14,5,3,2,4,0.5,29,7,L,0.1835714285714286,0.17800000000000005,0.19000000000000003,0.17500000000000004
7,21,42,1,7,0.2900000000000001,2,3,79,84,75,108,1.650000000000001,0.7700000000000005,0.5000000000000002,0.10999999999999999,5,3,2,1,9,5,2,1,3,0.5,20,7,L,0.18333333333333338,0.15400000000000003,0.25000000000000006,0.10999999999999999
8,1,1,0,6,0.20000000000000004,2,3,14,88,56,19,7.92999999999988,0.05,0.01,0.01,15,1,1,1,26,1,1,1,4,0,19,7,L,0.30500000000000016,0.05,0.01,0.01
8,1,2,0,4,0.34000000000000014,2,4,108,70,46,103,2.4000000000000004,2.4699999999999913,0.09999999999999999,0.03,7,5,1,1,11,6,1,1,2,0,13,7,L,0.21818181818181825,0.4116666666666669,0.09999999999999999,0.03
8,2,3,0,4,0.2900000000000001,3,5,97,105,40,55,1.0500000000000005,1.410000000000001,0.6000000000000003,0.5400000000000003,5,3,5,1,7,6,5,2,2,0,13,7,L,0.15000000000000005,0.2350000000000001,0.12000000000000002,0.2700000000000001
8,2,4,0,1,0.23000000000000007,2,3,26,34,33,19,1.700000000000001,0.9800000000000006,0.20000000000000004,0.6800000000000004,5,3,2,3,11,5,2,3,5,0.5,36,7,L,0.15454545454545457,0.1960000000000001,0.09999999999999999,0.2266666666666667
8,3,5,0,1,0.6600000000000004,3,4,27,104,33,19,2.0600000000000014,0.49000000000000027,1.0100000000000007,0.7200000000000004,8,2,3,3,12,2,5,5,5,0,18,7,L,0.17166666666666672,0.24500000000000005,0.20200000000000007,0.14400000000000004
8,3,6,0,3,0.24000000000000007,2,3,38,53,45,114,2.1800000000000015,0.46000000000000024,1.350000000000001,0.3900000000000002,7,2,6,3,12,2,6,4,5,0,16,7,L,0.1816666666666667,0.23000000000000004,0.2250000000000001,0.09750000000000002
8,4,7,0,7,0.17,2,3,95,109,114,94,1.9000000000000012,2.1199999999999988,0.47000000000000025,0.36000000000000015,7,5,4,4,11,7,4,4,3,0,10,7,L,0.17272727272727278,0.302857142857143,0.11750000000000002,0.09
8,4,8,0,10,0.36000000000000015,3,4,13,16,105,15,1.9600000000000013,0.26000000000000006,0.48000000000000026,1.0200000000000007,6,1,2,3,12,1,3,3,6,0.5,38,7,L,0.16333333333333336,0.26000000000000006,0.16000000000000003,0.3400000000000002
8,5,9,0,1,0.24000000000000007,2,3,34,27,87,53,1.8900000000000012,4.039999999999958,0.060000000000000005,0.03,5,8,1,1,9,12,1,1,5,0,17,7,L,0.21000000000000005,0.33666666666666684,0.060000000000000005,0.03
8,5,10,0,2,0.22000000000000006,2,4,73,76,116,119,1.3700000000000008,1.0200000000000007,0.9300000000000006,0.4400000000000002,5,3,4,4,12,5,7,4,3,0,10,7,L,0.11416666666666668,0.20400000000000004,0.13285714285714287,0.10999999999999999
8,6,11,0,2,0.22000000000000006,2,3,1,113,79,114,59.789999999996716,0.02,0.01,0.01,20,1,1,1,215,1,1,1,3,0,13,7,L,0.27809302325581403,0.02,0.01,0.01
8,6,12,0,1,0.24000000000000007,2,5,30,63,93,61,1.3700000000000008,2.010000000000001,1.0000000000000007,0.17,5,8,4,2,11,14,4,2,5,0,16,7,L,0.12454545454545457,0.1435714285714286,0.2500000000000001,0.08499999999999999
8,7,13,1,11,0.26000000000000006,2,4,110,48,84,118,1.2700000000000007,1.6000000000000012,0.22000000000000006,0.7100000000000004,4,4,1,3,8,5,1,3,2,0,12,7,L,0.15875000000000003,0.3200000000000002,0.22000000000000006,0.23666666666666675
8,7,14,1,15,0.49000000000000027,2,6,72,86,85,17,1.2400000000000007,1.380000000000001,1.2400000000000009,1.300000000000001,4,2,5,4,8,3,11,4,4,0,16,7,L,0.15500000000000003,0.46000000000000024,0.11272727272727275,0.3250000000000001
8,8,15,1,14,0.5100000000000002,2,3,77,74,40,82,1.3600000000000008,1.270000000000001,1.0700000000000007,0.08,4,5,3,2,5,8,3,2,5,0.5,23,7,L,0.2720000000000001,0.15875000000000003,0.3566666666666668,0.04
8,8,16,1,11,0.17,2,3,26,117,28,109,2.359999999999997,0.7600000000000005,0.8000000000000005,0.15,7,4,5,3,15,5,6,4,2,0,14,7,L,0.15733333333333338,0.15200000000000002,0.13333333333333336,0.0375
8,9,17,1,3,0.4300000000000002,2,5,32,35,83,59,1.2100000000000006,1.2100000000000009,0.6500000000000004,0.16,4,2,2,1,7,5,2,1,5,0,17,7,L,0.1728571428571429,0.2420000000000001,0.3250000000000001,0.16
8,9,18,1,12,0.25000000000000006,2,4,86,16,18,70,1.0600000000000005,0.9000000000000006,1.6400000000000012,0.5900000000000003,5,1,6,1,7,1,7,1,3,0,19,7,L,0.15142857142857147,0.9000000000000006,0.23428571428571437,0.5900000000000003
8,10,19,1,6,0.34000000000000014,2,6,54,82,38,8,1.4400000000000008,1.2500000000000009,1.2100000000000009,0.26000000000000006,4,5,5,2,9,5,5,3,4,0,18,7,L,0.16000000000000006,0.2500000000000001,0.24200000000000008,0.08666666666666667
8,10,20,1,11,0.3200000000000001,2,3,61,94,109,15,3.1099999999999848,0.5700000000000003,0.19000000000000003,0.12999999999999998,10,4,1,1,19,5,1,1,2,0,15,7,L,0.16368421052631585,0.114,0.19000000000000003,0.12999999999999998
8,11,21,1,13,0.35000000000000014,2,3,18,92,17,20,4.149999999999963,0.2700000000000001,0.9300000000000006,0.07,10,1,3,2,16,1,3,2,6,0.5,39,7,L,0.2593750000000001,0.2700000000000001,0.31000000000000016,0.035
8,11,22,1,6,0.8000000000000005,2,5,53,83,79,109,3.81999999999998,0.5100000000000002,1.420000000000001,0.060000000000000005,8,3,6,2,19,4,9,2,4,0,12,7,L,0.20105263157894743,0.12750000000000003,0.1577777777777778,0.03
8,12,23,1,15,0.48000000000000026,2,5,61,62,10,32,2.0900000000000016,0.7100000000000004,0.2900000000000001,0.8800000000000006,4,1,1,1,9,1,1,1,4,0,19,7,L,0.23222222222222233,0.7100000000000004,0.2900000000000001,0.8800000000000006
8,12,24,1,12,0.5400000000000003,2,4,85,18,95,39,1.2700000000000007,0.8900000000000006,0.2700000000000001,1.350000000000001,4,2,2,5,8,2,2,5,3,0,17,7,L,0.15875000000000003,0.44500000000000023,0.13500000000000004,0.2700000000000001
8,13,25,1,10,0.8200000000000005,4,6,7,1,64,10,1.4400000000000008,3.4399999999999706,0.02,0.03,7,6,1,1,10,18,1,1,6,0.5,40,7,L,0.14400000000000007,0.19111111111111118,0.02,0.03
8,13,26,1,3,1.7200000000000013,8,9,83,100,102,30,8.159999999999908,1.9300000000000015,0.05,0.13999999999999999,20,5,3,2,33,5,3,2,5,0,12,7,L,0.2472727272727274,0.38600000000000023,0.016666666666666666,0.06999999999999999
8,14,27,1,12,0.16,2,3,93,95,96,62,2.359999999999997,0.2700000000000001,0.48000000000000026,0.26000000000000006,7,2,5,1,10,2,5,2,3,0.5,22,7,L,0.2360000000000001,0.13499999999999998,0.096,0.13
8,14,28,1,3,0.5800000000000003,3,4,8,54,1,59,1.8600000000000012,1.360000000000001,0.2900000000000001,0.2800000000000001,6,4,1,2,11,7,1,3,5,0,20,7,L,0.16909090909090913,0.19428571428571434,0.2900000000000001,0.09333333333333335
8,15,29,1,15,0.46000000000000024,4,6,72,103,61,98,1.4300000000000008,1.1400000000000008,0.19000000000000003,0.07,6,4,1,1,8,7,1,1,4,0,12,7,L,0.17875000000000005,0.1628571428571429,0.19000000000000003,0.07
8,15,30,1,11,0.5600000000000003,3,4,111,53,116,2,3.3099999999999854,0.8500000000000005,0.04,0.09,10,4,1,1,16,4,1,1,2,0,14,7,L,0.20687500000000006,0.21250000000000008,0.04,0.09
8,16,31,1,13,0.35000000000000014,2,4,22,65,13,89,1.710000000000001,0.7400000000000004,1.6200000000000012,1.380000000000001,5,2,6,4,12,6,7,8,6,0,19,7,L,0.14250000000000002,0.12333333333333334,0.2314285714285715,0.17250000000000007
8,16,32,1,10,0.12999999999999998,2,3,6,1,58,49,1.2300000000000006,9.779999999999836,0.01,0.12999999999999998,4,18,1,1,7,45,1,1,6,0,20,7,L,0.17571428571428577,0.2173333333333334,0.01,0.12999999999999998
8,17,33,1,10,0.4300000000000002,3,6,95,12,50,110,1.640000000000001,0.3200000000000001,1.6400000000000012,0.09,6,1,2,1,9,1,6,1,6,0,15,7,L,0.18222222222222229,0.3200000000000001,0.2733333333333335,0.09
8,17,34,1,4,2.3799999999999932,5,15,106,27,107,34,2.8199999999999936,0.8600000000000005,0.3300000000000001,1.9800000000000015,8,3,2,6,19,6,3,7,2,0,14,7,L,0.14842105263157898,0.14333333333333337,0.11000000000000001,0.282857142857143
8,18,35,1,10,4.989999999999938,13,32,103,65,6,69,5.849999999999938,1.0400000000000007,0.6000000000000003,0.04,15,2,2,2,34,3,2,2,6,0,16,7,L,0.17205882352941185,0.3466666666666668,0.3000000000000001,0.02
8,18,36,1,3,0.47000000000000025,2,4,49,56,116,114,2.719999999999996,0.4300000000000002,0.15,0.09,7,1,1,1,14,1,1,1,5,0,12,7,L,0.19428571428571434,0.4300000000000002,0.15,0.09
8,19,37,1,13,0.17,3,4,87,88,52,59,2.4899999999999944,0.23000000000000007,0.16,0.6200000000000003,10,2,1,3,15,2,1,5,6,0,14,7,L,0.16600000000000004,0.115,0.16,0.12400000000000001
8,19,38,1,14,0.15,2,3,39,48,99,72,1.3000000000000007,0.2900000000000001,0.08,0.6200000000000003,4,1,1,3,6,1,1,5,5,0,16,7,L,0.21666666666666676,0.2900000000000001,0.08,0.12400000000000001
8,20,39,1,11,0.6300000000000003,3,4,94,92,115,47,1.4400000000000008,1.0000000000000007,0.48000000000000026,0.6000000000000003,5,3,2,3,8,5,3,3,2,0,13,7,L,0.18000000000000005,0.2000000000000001,0.16000000000000003,0.20000000000000007
8,20,40,1,3,0.18000000000000002,2,3,105,29,101,32,0.8600000000000004,0.5100000000000002,1.9200000000000015,0.08,5,2,7,2,7,3,9,2,5,0,14,7,L,0.12285714285714289,0.17000000000000004,0.21333333333333343,0.04
8,21,41,1,13,0.3000000000000001,3,4,15,14,31,79,1.0300000000000005,5.2499999999999325,0.01,0.01,5,8,1,1,6,15,1,1,6,0,20,7,L,0.17166666666666672,0.3500000000000002,0.01,0.01
8,21,42,1,10,0.3900000000000002,4,6,4,1,6,42,1.4600000000000009,1.2400000000000009,4.099999999999957,0.04,6,3,11,1,11,5,13,1,6,0.5,41,7,L,0.13272727272727275,0.24800000000000008,0.31538461538461554,0.04
9,1,1,0,7,3.9199999999999604,8,19,53,110,119,15,4.659999999999961,0.49000000000000027,3.569999999999968,0.11999999999999998,11,1,6,1,22,1,9,1,3,0,14,7,L,0.21181818181818188,0.49000000000000027,0.39666666666666683,0.11999999999999998
9,1,2,0,9,3.0699999999999785,4,10,68,102,4,69,3.1399999999999784,1.350000000000001,2.8399999999999834,0.2800000000000001,6,2,5,2,12,3,7,2,4,0,16,7,L,0.26166666666666677,0.45000000000000023,0.4057142857142859,0.14
9,2,3,0,1,3.9699999999999593,4,14,120,92,33,111,4.37999999999996,0.47000000000000025,0.21000000000000005,0.26000000000000006,6,1,1,1,16,1,1,1,5,0,12,7,L,0.2737500000000001,0.47000000000000025,0.21000000000000005,0.26000000000000006
9,2,4,0,9,2.5899999999999888,11,13,43,8,78,84,5.689999999999967,4.8299999999999415,12.40999999999978,4.269999999999953,17,6,12,5,20,9,22,5,4,0,17,7,L,0.28450000000000014,0.536666666666667,0.5640909090909088,0.8540000000000005
9,3,5,0,6,6.359999999999909,6,14,59,57,58,104,6.469999999999909,0.13999999999999999,3.099999999999978,0.3100000000000001,8,2,5,1,16,2,5,1,4,0.5,26,7,L,0.40437499999999854,0.06999999999999999,0.6200000000000003,0.3100000000000001
9,3,6,0,2,8.509999999999863,9,23,77,113,76,37,8.639999999999864,0.7200000000000004,2.3699999999999934,1.8000000000000014,11,2,3,3,25,2,3,3,3,0,13,7,L,0.3455999999999997,0.36000000000000015,0.7900000000000006,0.6000000000000004
9,4,7,0,9,5.799999999999921,8,17,65,3,83,76,5.9399999999999205,0.19000000000000003,0.09999999999999999,2.52999999999999,10,1,1,4,19,1,1,4,4,0,16,7,L,0.3126315789473686,0.19000000000000003,0.09999999999999999,0.6325000000000004
9,4,8,0,7,4.789999999999942,8,16,29,95,105,22,5.299999999999942,1.7800000000000014,0.7900000000000005,2.2199999999999966,10,3,2,3,19,4,2,4,3,0,16,7,L,0.2789473684210528,0.44500000000000023,0.3950000000000002,0.5550000000000003
9,5,9,0,10,3.799999999999963,3,7,108,104,78,84,4.139999999999963,0.3000000000000001,0.3900000000000002,0.20000000000000004,4,1,1,1,8,1,1,1,6,0,10,7,L,0.5174999999999996,0.3000000000000001,0.3900000000000002,0.20000000000000004
9,5,10,0,7,8.289999999999868,9,22,115,92,52,2,8.389999999999867,0.09,1.320000000000001,0.4100000000000002,10,1,5,2,23,1,5,3,3,0,15,7,L,0.3647826086956524,0.09,0.2640000000000001,0.13666666666666666
9,6,11,0,1,5.739999999999922,7,17,13,33,110,57,43.61000000000096,0.01,0.01,0.01,20,1,1,1,82,1,1,1,5,0,17,7,L,0.5318292682926828,0.01,0.01,0.01
9,6,12,0,2,14.78999999999973,17,40,104,75,11,8,14.819999999999729,0.07,0.4300000000000002,7.119999999999893,18,1,3,12,41,1,3,17,3,0,17,7,L,0.36146341463414616,0.07,0.14333333333333334,0.41882352941176493
9,7,13,1,11,8.349999999999866,12,29,118,114,92,68,8.399999999999867,0.4000000000000002,1.1200000000000008,0.15,13,2,2,1,30,3,3,1,2,0,11,7,L,0.28000000000000014,0.13333333333333336,0.37333333333333346,0.15
9,7,14,1,3,6.949999999999896,10,22,26,49,31,27,6.989999999999896,0.3000000000000001,0.05,3.989999999999959,11,1,1,5,23,1,1,5,5,0.5,34,7,L,0.30391304347826104,0.3000000000000001,0.05,0.7980000000000005
9,8,15,1,14,10.48999999999982,9,24,93,48,117,69,10.50999999999982,0.20000000000000004,0.3300000000000001,0.34000000000000014,10,1,3,1,25,1,3,1,5,0,14,7,L,0.42039999999999994,0.20000000000000004,0.11000000000000001,0.34000000000000014
9,8,16,1,13,3.2599999999999745,4,10,14,20,84,15,3.2699999999999743,0.3100000000000001,0.7200000000000004,0.17,5,2,1,1,11,3,1,1,6,0.5,39,7,L,0.2972727272727274,0.10333333333333333,0.7200000000000004,0.17
9,9,17,1,7,3.649999999999966,7,18,73,74,67,76,3.709999999999966,0.11999999999999998,6.529999999999905,2.1399999999999983,8,1,6,4,19,1,12,5,3,0.5,22,7,L,0.19526315789473692,0.11999999999999998,0.544166666666667,0.42800000000000027
9,9,18,1,12,3.8799999999999613,9,17,109,118,120,113,5.559999999999962,0.23000000000000007,3.1999999999999758,1.390000000000001,12,1,6,3,20,1,6,5,3,1,24,7,L,0.27800000000000014,0.23000000000000007,0.5333333333333337,0.27800000000000014
9,10,19,1,6,5.219999999999933,4,17,12,45,8,88,5.6199999999999335,0.6000000000000003,0.19000000000000003,0.5300000000000002,5,1,1,1,18,1,1,1,4,0,20,7,L,0.3122222222222224,0.6000000000000003,0.19000000000000003,0.5300000000000002
9,10,20,1,13,4.229999999999954,6,11,13,66,84,74,13.929999999999792,0.02,0.02,0.01,20,1,1,1,31,1,1,1,6,0,16,7,L,0.4493548387096777,0.02,0.02,0.01
9,11,21,1,3,5.329999999999931,8,21,58,49,1,29,6.179999999999931,0.5200000000000002,1.8500000000000014,0.9900000000000007,9,2,3,3,22,2,4,4,5,0,19,7,L,0.28090909090909105,0.2600000000000001,0.46250000000000024,0.2475000000000001
9,11,22,1,13,6.6599999999999024,11,24,78,17,23,110,7.309999999999903,0.9500000000000006,1.9400000000000015,2.020000000000001,13,3,3,4,26,3,3,6,6,0,17,7,L,0.28115384615384625,0.31666666666666676,0.6466666666666672,0.33666666666666684
9,12,23,1,14,8.499999999999863,8,23,38,43,104,23,8.589999999999863,0.3000000000000001,1.9900000000000015,1.9100000000000015,9,1,3,4,24,1,3,4,5,0,18,7,L,0.3579166666666669,0.3000000000000001,0.6633333333333338,0.47750000000000026
9,12,24,1,11,12.259999999999783,13,34,32,70,27,9,12.889999999999784,0.7000000000000004,0.45000000000000023,0.04,14,2,1,1,35,2,1,1,2,0,20,7,L,0.3682857142857145,0.3500000000000002,0.45000000000000023,0.04
9,13,25,1,10,3.619999999999967,7,13,4,6,11,28,3.6299999999999666,0.01,0.15,1.320000000000001,8,1,1,3,14,1,1,3,6,0.5,41,7,L,0.2592857142857144,0.01,0.15,0.4400000000000002
9,13,26,1,14,8.929999999999854,10,22,24,100,97,84,8.959999999999853,0.5400000000000003,0.20000000000000004,0.21000000000000005,11,2,2,1,23,2,2,1,5,0,13,7,L,0.38956521739130456,0.2700000000000001,0.1,0.21000000000000005
9,14,27,1,10,9.439999999999843,7,17,7,4,60,3,9.519999999999843,0.03,3.45999999999997,3.189999999999976,9,1,5,5,19,1,6,6,6,0.5,40,7,L,0.5010526315789471,0.03,0.576666666666667,0.531666666666667
9,14,28,1,12,4.3599999999999515,5,11,86,88,87,97,4.6099999999999515,2.289999999999995,14.169999999999742,0.03,7,5,13,1,13,5,32,1,3,0.5,20,7,L,0.35461538461538483,0.45800000000000024,0.4428125000000002,0.03
9,15,29,1,13,5.729999999999922,6,18,15,18,30,22,5.949999999999922,13.80999999999975,0.01,1.8600000000000014,7,14,1,3,19,28,1,4,6,0.5,41,7,L,0.31315789473684225,0.4932142857142858,0.01,0.46500000000000025
9,15,30,1,10,5.689999999999923,8,22,5,109,110,85,5.729999999999923,2.3099999999999947,2.5599999999999894,8.64999999999986,10,3,2,8,24,3,2,13,6,0,13,7,L,0.2387500000000001,0.7700000000000005,1.2799999999999998,0.6653846153846144
9,16,31,1,15,5.609999999999925,8,20,61,3,5,68,5.669999999999924,2.1799999999999975,1.350000000000001,0.3900000000000002,9,2,4,2,21,2,6,2,4,0,20,7,L,0.27000000000000013,1.0900000000000007,0.22500000000000012,0.19500000000000006
9,16,32,1,14,5.479999999999928,6,12,41,47,115,117,6.599999999999929,2.4999999999999907,1.7700000000000014,1.9300000000000015,8,7,7,4,14,7,8,4,5,0,14,7,L,0.4714285714285709,0.3571428571428573,0.22125000000000006,0.48250000000000026
9,17,33,1,15,5.869999999999919,8,26,118,11,117,31,6.65999999999992,1.8300000000000014,0.36000000000000015,1.0100000000000007,12,4,2,2,30,6,2,2,4,0,15,7,L,0.2220000000000001,0.3050000000000001,0.18000000000000002,0.5050000000000002
9,17,34,1,6,3.92999999999996,7,15,53,42,37,46,8.309999999999912,2.199999999999997,1.1700000000000008,2.569999999999989,10,5,3,1,18,6,4,1,4,0.5,34,7,L,0.4616666666666652,0.36666666666666686,0.29250000000000015,2.569999999999989
9,18,35,1,6,10.119999999999829,9,23,59,58,115,88,10.99999999999983,0.02,1.5400000000000011,1.0700000000000007,11,1,2,2,25,1,2,2,4,0,13,7,L,0.4400000000000003,0.02,0.7700000000000005,0.5350000000000004
9,18,36,1,14,6.549999999999905,11,28,42,6,79,99,6.6899999999999045,0.19000000000000003,0.07,0.45000000000000023,13,1,1,3,30,1,1,3,5,0,16,7,L,0.2230000000000001,0.19000000000000003,0.07,0.15000000000000002
9,19,37,1,13,7.459999999999885,9,21,112,21,47,111,7.689999999999886,0.07,0.26000000000000006,3.749999999999964,10,1,1,4,22,1,1,4,6,0,15,7,L,0.34954545454545394,0.07,0.26000000000000006,0.9374999999999978
9,19,38,1,10,10.829999999999814,10,26,105,75,6,1,11.019999999999813,0.3100000000000001,1.5200000000000011,2.3199999999999945,12,2,5,4,28,2,5,4,6,0,17,7,L,0.3935714285714286,0.15500000000000003,0.3040000000000001,0.5800000000000003
9,20,39,1,3,5.7199999999999225,12,17,4,34,32,2,5.909999999999923,0.05,2.07,0.35000000000000014,13,1,4,1,18,1,5,1,5,0,22,7,L,0.3283333333333335,0.05,0.4140000000000002,0.35000000000000014
9,20,40,1,11,3.46999999999997,6,14,119,46,44,16,3.62999999999997,0.3900000000000002,0.45000000000000023,0.23000000000000007,8,1,2,1,17,1,3,1,2,0,18,7,L,0.213529411764706,0.3900000000000002,0.15000000000000008,0.23000000000000007
10,1,1,0,1,0.47000000000000025,2,3,1,32,6,105,1.710000000000001,0.09999999999999999,0.6400000000000003,0.5700000000000003,5,1,3,3,6,1,3,5,5,0,19,7,L,0.2850000000000001,0.09999999999999999,0.21333333333333337,0.11400000000000002
10,1,2,0,6,0.6000000000000003,2,4,58,15,86,52,0.9500000000000004,0.9700000000000006,0.12999999999999998,0.11999999999999998,4,2,1,1,6,2,1,1,4,0,17,7,L,0.15833333333333335,0.4850000000000002,0.12999999999999998,0.11999999999999998
10,2,3,0,9,0.46000000000000024,2,6,63,71,45,104,0.6700000000000003,0.18000000000000002,0.5900000000000003,0.2700000000000001,3,1,1,1,7,1,1,1,4,0,15,7,L,0.09571428571428572,0.18000000000000002,0.5900000000000003,0.2700000000000001
10,2,4,0,10,0.6800000000000004,2,4,116,16,13,115,2.6300000000000017,0.05,4.7799999999999425,0.01,5,1,7,1,9,1,8,1,6,0,16,7,L,0.2922222222222223,0.05,0.5975000000000004,0.01
10,3,5,0,9,0.48000000000000026,3,4,48,64,45,9,1.690000000000001,0.20000000000000004,0.3900000000000002,0.13999999999999999,5,2,2,1,6,2,2,1,4,0,20,7,L,0.2816666666666668,0.09999999999999999,0.19500000000000006,0.13999999999999999
10,3,6,0,1,0.3900000000000002,2,3,36,24,34,26,1.520000000000001,0.18000000000000002,0.05,0.6500000000000004,5,1,1,2,6,2,1,2,5,0.5,36,7,L,0.25333333333333347,0.09,0.05,0.3250000000000002
10,4,7,0,3,0.5900000000000003,4,5,44,63,48,62,0.8400000000000003,0.9100000000000006,1.8200000000000014,1.380000000000001,5,3,7,4,6,3,8,4,5,0,18,7,L,0.14,0.30333333333333345,0.2275000000000001,0.34500000000000014
10,4,8,0,1,0.35000000000000014,2,4,112,119,91,90,0.8300000000000004,0.37000000000000016,0.9400000000000006,0.35000000000000014,3,1,3,1,5,1,3,1,5,0,10,7,L,0.16600000000000006,0.37000000000000016,0.31333333333333346,0.35000000000000014
10,5,9,0,7,0.5500000000000003,2,3,24,14,88,87,0.9800000000000004,0.34000000000000014,0.8000000000000005,0.18000000000000002,3,1,2,1,4,1,2,1,3,0,18,7,L,0.2450000000000001,0.34000000000000014,0.40000000000000024,0.18000000000000002
10,5,10,0,2,0.3200000000000001,2,3,69,67,74,11,3.1699999999999835,0.02,0.02,0.07,6,1,1,1,9,1,1,1,3,0,17,7,L,0.35222222222222244,0.02,0.02,0.07
10,6,11,0,9,0.49000000000000027,2,6,80,69,72,73,1.8500000000000012,0.09,0.05,0.9900000000000007,5,1,1,2,12,1,1,2,4,0,14,7,L,0.1541666666666667,0.09,0.05,0.49500000000000033
10,6,12,0,6,0.5000000000000002,2,3,117,119,56,88,0.9600000000000004,0.5000000000000002,0.08,0.24000000000000007,4,2,1,1,6,2,1,1,4,0,11,7,L,0.16000000000000003,0.25000000000000006,0.08,0.24000000000000007
10,7,13,1,15,0.22000000000000006,2,3,4,109,70,7,12.139999999999791,0.01,0.01,0.01,16,1,1,1,31,1,1,1,4,0,18,7,L,0.39161290322580666,0.01,0.01,0.01
10,7,14,1,4,0.4000000000000002,3,5,80,51,42,16,1.2500000000000007,0.36000000000000015,0.25000000000000006,0.6100000000000003,7,1,1,2,10,1,1,2,2,0,18,7,L,0.12500000000000003,0.36000000000000015,0.25000000000000006,0.3050000000000001
10,8,15,1,15,0.45000000000000023,2,5,65,67,79,73,1.510000000000001,1.0100000000000007,0.02,0.04,5,3,1,2,8,3,1,2,4,0,14,7,L,0.18875000000000006,0.33666666666666684,0.02,0.02
10,8,16,1,14,0.3200000000000001,1,2,1,59,6,49,1.4500000000000008,0.17,0.4400000000000002,0.08,4,1,4,1,5,1,5,1,5,0,20,7,L,0.2900000000000001,0.17,0.088,0.08
10,9,17,1,3,0.47000000000000025,2,4,6,32,60,55,0.7300000000000003,0.2700000000000001,0.2900000000000001,2.209999999999997,3,1,1,3,5,1,1,3,5,0,19,7,L,0.14600000000000002,0.2700000000000001,0.2900000000000001,0.7366666666666666
10,9,18,1,4,0.15,2,2,15,99,101,79,6.9399999999999,0.01,0.01,0.01,11,1,1,1,13,1,1,1,2,0,13,7,L,0.5338461538461542,0.01,0.01,0.01
10,10,19,1,6,0.38000000000000017,2,4,60,11,8,88,0.6100000000000002,0.7300000000000004,0.6600000000000004,0.3200000000000001,4,3,3,1,6,3,4,1,4,0,19,7,L,0.10166666666666667,0.24333333333333343,0.16500000000000004,0.3200000000000001
10,10,20,1,11,0.45000000000000023,4,5,25,75,64,68,0.9300000000000005,0.5900000000000003,0.3000000000000001,0.18000000000000002,5,1,1,1,6,1,1,1,2,0,16,7,L,0.15500000000000005,0.5900000000000003,0.3000000000000001,0.18000000000000002
10,11,21,1,4,0.7200000000000004,3,4,21,87,85,41,1.0300000000000005,0.7100000000000004,0.22000000000000006,0.9200000000000006,4,4,1,1,5,4,1,1,2,0,17,7,L,0.20600000000000007,0.17750000000000005,0.22000000000000006,0.9200000000000006
10,11,22,1,10,1.8600000000000014,6,7,28,36,4,25,2.8500000000000023,0.4300000000000002,0.16,2.399999999999993,9,2,1,6,10,2,1,8,6,0.5,36,7,L,0.28500000000000014,0.21500000000000002,0.16,0.30000000000000016
10,12,23,1,14,0.37000000000000016,5,5,108,66,89,15,2.2100000000000017,0.12999999999999998,0.08,0.09999999999999999,10,1,1,1,12,1,1,1,5,0,15,7,L,0.18416666666666673,0.12999999999999998,0.08,0.09999999999999999
10,12,24,1,11,0.6000000000000003,2,6,112,10,75,9,1.2600000000000007,0.48000000000000026,0.3000000000000001,0.3100000000000001,4,1,1,2,8,1,1,2,2,0,17,7,L,0.15750000000000003,0.48000000000000026,0.3000000000000001,0.15500000000000003
10,13,25,1,4,0.7400000000000004,4,4,2,12,91,95,1.1800000000000006,0.2700000000000001,0.12999999999999998,0.7600000000000005,6,1,1,2,7,1,1,2,2,0,18,7,L,0.16857142857142862,0.2700000000000001,0.12999999999999998,0.3800000000000002
10,13,26,1,6,0.6300000000000003,3,5,84,115,34,112,1.1600000000000006,0.48000000000000026,0.3300000000000001,0.26000000000000006,6,2,1,3,8,3,1,3,4,0,12,7,L,0.14500000000000002,0.16000000000000003,0.3300000000000001,0.08666666666666667
10,14,27,1,3,1.0000000000000007,3,4,31,84,100,2,1.1700000000000006,0.24000000000000007,0.3300000000000001,0.36000000000000015,5,2,1,1,6,3,1,1,5,0,16,7,L,0.1950000000000001,0.08,0.3300000000000001,0.36000000000000015
10,14,28,1,11,0.6400000000000003,5,6,119,16,91,41,0.6800000000000004,0.6600000000000004,0.19000000000000003,0.2800000000000001,6,3,1,1,7,3,1,2,2,0,16,7,L,0.09714285714285714,0.22000000000000008,0.19000000000000003,0.14
10,15,29,1,12,0.36000000000000015,2,3,91,87,23,41,1.600000000000001,0.08,0.05,0.6200000000000003,7,1,1,1,8,1,1,1,3,0,17,7,L,0.20000000000000007,0.08,0.05,0.6200000000000003
10,15,30,1,6,0.26000000000000006,2,3,52,81,9,12,0.5900000000000002,1.320000000000001,4.809999999999942,0.12999999999999998,5,4,4,2,7,6,5,2,4,0,19,7,L,0.08428571428571428,0.22000000000000008,0.9620000000000006,0.065
10,16,31,1,3,0.26000000000000006,2,4,29,95,54,35,1.8700000000000012,2.07,0.02,0.01,5,4,1,1,7,6,1,1,5,0,17,7,L,0.2671428571428573,0.3450000000000002,0.02,0.01
10,16,32,1,14,0.49000000000000027,2,4,40,45,41,111,0.9300000000000005,0.4300000000000002,0.2800000000000001,0.34000000000000014,4,1,1,1,6,1,1,2,5,0.5,32,7,L,0.15500000000000003,0.4300000000000002,0.2800000000000001,0.17000000000000004
10,17,33,1,4,0.7100000000000004,6,8,78,44,74,47,3.1499999999999924,0.5100000000000002,0.09999999999999999,0.02,9,3,2,1,12,3,2,1,2,0,16,7,L,0.2625000000000001,0.17000000000000004,0.05,0.02
10,17,34,1,12,0.3200000000000001,2,3,92,96,88,3,0.4300000000000001,0.8300000000000005,0.10999999999999999,0.7000000000000004,4,2,1,2,5,2,1,4,3,0.5,24,7,L,0.08600000000000001,0.41500000000000026,0.10999999999999999,0.17500000000000004
10,18,35,1,3,0.5700000000000003,2,3,28,14,102,101,0.6300000000000003,0.12999999999999998,0.25000000000000006,0.2800000000000001,4,1,1,1,5,1,1,1,5,0,15,7,L,0.12600000000000003,0.12999999999999998,0.25000000000000006,0.2800000000000001
10,18,36,1,14,0.5300000000000002,3,4,40,9,7,95,2.739999999999997,2.7399999999999856,5.969999999999917,1.1000000000000008,6,7,8,2,7,7,12,2,5,0,20,7,L,0.3914285714285717,0.3914285714285716,0.4975000000000003,0.5500000000000003
10,19,37,1,3,0.46000000000000024,2,3,20,26,28,108,0.6400000000000002,0.10999999999999999,0.11999999999999998,0.9700000000000006,4,1,1,2,6,1,1,2,5,0,18,7,L,0.1066666666666667,0.10999999999999999,0.11999999999999998,0.48500000000000026
10,19,38,1,11,0.3000000000000001,2,3,80,116,78,112,0.7100000000000003,0.4100000000000002,0.4200000000000002,0.13999999999999999,3,2,2,2,4,2,2,2,2,0,10,7,L,0.17750000000000005,0.20500000000000002,0.21000000000000002,0.06999999999999999
10,20,39,1,12,0.47000000000000025,2,3,88,90,1,28,0.7200000000000003,0.09999999999999999,1.490000000000001,0.01,4,1,2,1,6,1,4,1,3,0,17,7,L,0.12000000000000001,0.09999999999999999,0.3725000000000002,0.01
10,20,40,1,11,1.0300000000000007,4,5,76,15,57,53,1.4000000000000008,0.9400000000000006,0.18000000000000002,0.21000000000000005,6,4,1,1,7,4,1,1,2,0,17,7,L,0.20000000000000007,0.23500000000000007,0.18000000000000002,0.21000000000000005
10,21,41,1,14,0.49000000000000027,3,5,42,91,38,18,0.5700000000000003,2.579999999999989,0.03,0.11999999999999998,5,4,1,1,7,5,1,1,5,0,19,7,L,0.08142857142857143,0.515999999999999,0.03,0.11999999999999998
10,21,42,1,10,0.11999999999999998,2,2,6,10,119,73,0.34,0.15,0.5700000000000003,0.13999999999999999,3,1,2,1,3,1,2,1,6,0,17,7,L,0.11333333333333336,0.15,0.28500000000000014,0.13999999999999999
10,22,43,1,6,0.6500000000000004,2,3,77,82,99,108,1.8400000000000012,0.19000000000000003,0.6100000000000003,0.3300000000000001,5,2,2,2,6,2,2,2,4,0,10,7,L,0.30666666666666675,0.095,0.3050000000000001,0.16500000000000004
10,22,44,1,11,0.38000000000000017,2,4,114,94,112,88,3.5499999999999767,0.02,0.01,0.5900000000000003,7,1,1,2,9,1,1,2,2,0,10,7,L,0.39444444444444465,0.02,0.01,0.2950000000000001
11,1,1,0,9,0.6200000000000003,2,5,68,88,42,46,5.129999999999948,1.0100000000000007,0.2900000000000001,0.3900000000000002,8,3,2,3,29,13,3,6,4,0,17,7,L,0.17689655172413798,0.0776923076923077,0.09666666666666668,0.065
11,1,2,0,6,0.8800000000000006,2,8,57,52,53,60,3.839999999999981,1.500000000000001,0.35000000000000014,0.3300000000000001,7,6,2,2,24,13,2,3,4,1,48,7,L,0.16000000000000003,0.11538461538461539,0.17500000000000004,0.11000000000000001
11,2,3,0,5,0.6400000000000003,2,4,1,9,40,44,5.139999999999949,0.25000000000000006,2.299999999999995,0.7500000000000004,7,2,11,4,31,3,15,6,6,0,22,7,L,0.16580645161290328,0.08333333333333333,0.15333333333333338,0.12500000000000003
11,2,4,0,9,1.0300000000000007,2,8,88,85,67,69,5.249999999999956,1.310000000000001,0.21000000000000005,0.16,10,4,1,2,39,6,1,2,4,0,14,7,L,0.13461538461538464,0.21833333333333338,0.21000000000000005,0.07999999999999999
11,3,5,0,8,0.38000000000000017,2,4,113,117,57,39,3.2899999999999823,4.399999999999951,1.1100000000000008,0.04,10,13,8,1,23,29,12,1,2,0,13,7,L,0.1430434782608696,0.1517241379310345,0.09250000000000001,0.04
11,3,6,0,5,0.6300000000000003,8,10,2,88,92,32,3.449999999999984,0.7900000000000005,0.8700000000000006,0.6800000000000004,12,2,5,2,31,6,11,2,6,0,17,7,L,0.11129032258064518,0.1316666666666667,0.0790909090909091,0.34000000000000014
11,4,7,0,2,0.47000000000000025,2,4,75,116,114,10,4.189999999999965,2.2299999999999964,1.2100000000000009,0.08,10,5,5,1,26,13,12,1,3,0,13,7,L,0.1611538461538462,0.17153846153846156,0.10083333333333333,0.08
11,4,8,0,9,0.9500000000000006,3,7,34,13,69,94,7.149999999999913,0.34000000000000014,0.6600000000000004,0.09,13,1,6,1,44,1,6,1,4,0,18,7,L,0.16250000000000003,0.34000000000000014,0.11,0.09
11,5,9,0,9,0.7600000000000005,2,8,65,31,91,71,5.20999999999995,0.6900000000000004,0.17,0.6800000000000004,10,3,1,4,39,4,1,5,4,0,16,7,L,0.13358974358974363,0.17250000000000004,0.17,0.13600000000000004
11,5,10,0,3,0.4400000000000002,4,5,46,112,3,38,3.0199999999999894,1.7400000000000013,0.34000000000000014,0.12999999999999998,9,2,4,2,15,10,6,2,5,0,18,7,L,0.2013333333333334,0.17400000000000004,0.05666666666666667,0.06499999999999999
11,6,11,0,7,1.2000000000000008,4,11,90,86,40,87,5.14999999999996,0.9100000000000006,0.16,0.9200000000000006,10,3,2,5,30,8,3,6,3,0.5,23,7,L,0.17166666666666672,0.11375,0.05333333333333333,0.15333333333333335
11,6,12,0,1,0.4300000000000002,2,3,32,33,69,28,4.049999999999967,0.21000000000000005,2.679999999999987,0.7200000000000004,11,1,9,3,33,1,13,5,5,0.5,34,7,L,0.12272727272727275,0.21000000000000005,0.20615384615384622,0.14400000000000004
11,7,13,1,4,0.37000000000000016,2,3,102,55,37,43,5.75999999999993,0.5600000000000003,0.3300000000000001,0.35000000000000014,12,2,2,2,34,3,2,4,2,0,16,7,L,0.1694117647058824,0.1866666666666667,0.16500000000000004,0.08750000000000001
11,7,14,1,11,0.6100000000000003,2,5,113,70,116,109,4.3799999999999635,2.809999999999984,0.7900000000000005,0.07,7,4,3,2,31,19,3,2,2,0.5,16,7,L,0.1412903225806452,0.1478947368421053,0.2633333333333334,0.035
11,8,15,1,7,0.7500000000000004,2,9,28,82,77,78,4.619999999999962,0.19000000000000003,0.6600000000000004,0.48000000000000026,7,1,3,3,33,1,5,3,3,0.5,23,7,L,0.14,0.19000000000000003,0.132,0.16000000000000003
11,8,16,1,12,0.48000000000000026,2,5,85,104,41,48,5.209999999999944,0.8200000000000005,1.0200000000000007,0.3200000000000001,11,3,3,2,37,4,13,2,3,0,15,7,L,0.14081081081081084,0.20500000000000007,0.07846153846153846,0.16
11,9,17,1,13,0.5600000000000003,2,7,13,18,22,79,4.899999999999952,0.12999999999999998,4.3599999999999515,0.04,7,1,10,1,34,1,28,1,6,0.5,39,7,L,0.14411764705882357,0.12999999999999998,0.15571428571428575,0.04
11,9,18,1,12,0.5000000000000002,2,4,88,39,42,38,4.739999999999954,0.5800000000000003,0.5900000000000003,0.25000000000000006,11,3,5,2,37,7,9,2,3,0.5,33,7,L,0.12810810810810813,0.08285714285714287,0.06555555555555556,0.12499999999999999
11,10,19,1,4,1.1000000000000008,3,8,101,107,55,57,5.56999999999995,0.34000000000000014,0.9200000000000006,0.08,9,2,3,1,41,6,11,1,2,0,12,7,L,0.1358536585365854,0.056666666666666664,0.08363636363636363,0.08
11,10,20,1,13,0.6900000000000004,2,8,14,24,13,17,4.269999999999968,0.8600000000000005,4.769999999999943,0.02,9,4,14,2,29,4,29,2,6,1,72,7,L,0.14724137931034487,0.21500000000000008,0.1644827586206897,0.01
11,11,21,1,10,0.5900000000000003,2,5,4,61,74,109,5.179999999999946,7.24999999999989,0.03,0.4300000000000002,8,16,1,5,33,39,1,5,6,0,15,7,L,0.156969696969697,0.18589743589743596,0.03,0.08600000000000001
11,11,22,1,13,0.4200000000000002,2,5,15,88,89,60,11.189999999999815,0.3900000000000002,0.02,0.04,17,3,1,2,67,3,1,2,6,0,16,7,L,0.16701492537313437,0.13000000000000003,0.02,0.02
11,12,23,1,3,1.8100000000000014,13,20,31,35,17,70,3.2000000000000024,2.579999999999989,0.5500000000000003,0.6400000000000003,15,7,1,3,30,25,1,5,5,0,20,7,L,0.10666666666666669,0.10320000000000001,0.5500000000000003,0.128
11,12,24,1,6,0.8200000000000005,2,6,48,58,106,107,5.029999999999955,0.49000000000000027,0.4000000000000002,0.6900000000000004,7,2,2,3,45,2,2,9,4,0,13,7,L,0.1117777777777778,0.24500000000000005,0.2,0.07666666666666666
11,13,25,1,12,0.7800000000000005,2,8,85,42,91,88,3.429999999999988,1.1700000000000008,1.1000000000000008,0.3000000000000001,8,4,2,3,25,6,9,6,3,0.5,23,7,L,0.13720000000000004,0.19500000000000006,0.12222222222222222,0.049999999999999996
11,13,26,1,13,1.7200000000000013,13,20,23,80,24,20,4.119999999999994,0.9700000000000006,1.1600000000000008,2.0799999999999996,19,2,2,8,33,5,12,15,6,0.5,39,7,L,0.12484848484848488,0.19400000000000006,0.09666666666666668,0.13866666666666672
11,14,27,1,12,0.3000000000000001,2,5,85,88,91,68,3.4199999999999777,2.4499999999999917,0.10999999999999999,1.7100000000000013,10,11,1,7,23,21,1,16,3,0.5,22,7,L,0.1486956521739131,0.11666666666666668,0.10999999999999999,0.10687500000000001
11,14,28,1,7,1.0400000000000007,18,22,84,78,49,1,3.639999999999989,0.35000000000000014,1.5800000000000012,3.979999999999959,20,2,5,8,39,3,9,28,3,0,16,7,L,0.09333333333333335,0.11666666666666667,0.1755555555555556,0.14214285714285718
11,15,29,1,6,0.35000000000000014,3,4,25,34,31,113,5.029999999999945,0.34000000000000014,0.4300000000000002,0.8900000000000006,13,2,3,5,32,4,3,9,4,0.5,32,7,L,0.15718750000000004,0.085,0.14333333333333334,0.09888888888888889
11,15,30,1,15,0.6800000000000004,2,7,69,67,96,37,4.839999999999956,0.8700000000000006,0.2700000000000001,0.47000000000000025,10,3,2,1,33,6,3,1,4,0,16,7,L,0.1466666666666667,0.14500000000000002,0.09,0.47000000000000025
11,16,31,1,13,0.6700000000000004,2,9,16,30,23,20,3.2899999999999885,2.439999999999992,2.4499999999999917,5.129999999999935,5,7,9,12,22,12,19,26,6,0.5,41,7,L,0.1495454545454546,0.2033333333333334,0.12894736842105267,0.19730769230769238
11,16,32,1,11,0.9700000000000006,4,8,112,117,88,111,4.7499999999999645,0.48000000000000026,0.9800000000000006,0.38000000000000017,9,3,6,3,36,4,10,4,2,0.5,15,7,L,0.13194444444444448,0.12000000000000001,0.098,0.09499999999999999
11,17,33,1,12,0.5700000000000003,2,9,11,96,99,12,4.349999999999964,0.34000000000000014,0.4400000000000002,0.9900000000000007,7,1,2,2,24,1,2,10,3,0,17,7,L,0.18125000000000005,0.34000000000000014,0.22000000000000006,0.099
11,17,34,1,15,0.26000000000000006,2,4,71,43,63,47,2.8799999999999883,3.93999999999996,0.07,0.09,4,11,2,3,26,21,2,3,4,0,18,7,L,0.11076923076923079,0.18761904761904769,0.035,0.030000000000000002
11,18,35,1,7,0.6400000000000003,2,6,79,78,31,84,3.8599999999999755,1.8600000000000014,1.290000000000001,0.34000000000000014,10,11,8,2,24,19,13,2,3,0.5,23,7,L,0.16083333333333338,0.09789473684210527,0.09923076923076925,0.17000000000000004
11,18,36,1,12,0.5300000000000002,2,4,48,96,37,38,3.739999999999976,1.490000000000001,1.0200000000000007,1.7700000000000014,5,7,4,7,22,9,5,14,3,0.5,33,7,L,0.17000000000000004,0.1655555555555556,0.20400000000000007,0.12642857142857145
11,19,37,1,11,0.5000000000000002,3,6,112,119,1,28,4.189999999999966,3.279999999999974,2.1299999999999986,0.02,7,5,7,1,28,27,11,1,2,0,15,7,L,0.1496428571428572,0.12148148148148151,0.1936363636363637,0.02
11,19,38,1,13,0.5900000000000003,3,9,75,44,38,19,4.9399999999999515,0.4000000000000002,0.9200000000000006,2.869999999999983,12,2,6,9,34,3,8,22,6,0,19,7,L,0.14529411764705885,0.13333333333333336,0.11500000000000003,0.1304545454545455
11,20,39,1,6,1.8200000000000014,15,23,92,85,51,23,5.519999999999967,0.5800000000000003,0.8500000000000005,1.7600000000000013,18,2,2,4,47,3,8,14,4,0,16,7,L,0.11744680851063832,0.19333333333333336,0.10625000000000001,0.12571428571428575
11,20,40,1,15,2.249999999999996,11,25,72,74,63,34,2.7999999999999963,3.0599999999999787,0.4100000000000002,0.8300000000000005,14,3,3,2,31,19,3,4,4,0,16,7,L,0.0903225806451613,0.1610526315789474,0.1366666666666667,0.20750000000000005
11,21,41,1,14,0.36000000000000015,2,6,38,37,120,61,3.889999999999969,0.8100000000000005,1.2100000000000009,0.26000000000000006,10,2,3,3,23,7,8,5,5,0,16,7,L,0.16913043478260875,0.11571428571428571,0.15125000000000002,0.052
11,21,42,1,3,0.35000000000000014,5,7,33,28,25,95,3.109999999999985,0.25000000000000006,2.4599999999999915,1.6200000000000012,12,1,9,9,31,2,12,11,5,0.5,33,7,L,0.10032258064516131,0.12499999999999997,0.20500000000000007,0.1472727272727273
12,1,1,0,10,0.3900000000000002,2,6,18,13,95,23,2.499999999999999,0.5200000000000002,0.6800000000000004,0.17,4,2,3,2,37,7,9,4,6,0.5,39,7,L,0.06756756756756757,0.07428571428571429,0.07555555555555556,0.0425
12,1,2,0,5,0.8600000000000005,2,16,6,39,104,1,2.700000000000002,1.6600000000000013,0.09,0.11999999999999998,6,8,1,2,34,22,1,2,6,0,19,7,L,0.07941176470588235,0.07545454545454545,0.09,0.060000000000000005
12,2,3,0,5,0.45000000000000023,2,6,1,52,114,4,3.089999999999988,3.099999999999978,0.02,0.060000000000000005,11,13,1,3,41,39,1,3,6,0,18,7,L,0.0753658536585366,0.0794871794871795,0.02,0.02
12,2,4,0,7,0.4300000000000002,2,7,95,87,24,104,2.869999999999992,0.11999999999999998,0.8500000000000005,0.18000000000000002,8,1,2,2,47,1,14,2,3,0,14,7,L,0.06106382978723404,0.11999999999999998,0.060714285714285714,0.09
12,3,5,0,9,0.7100000000000004,5,10,62,65,40,104,2.6700000000000017,0.5200000000000002,0.6500000000000004,0.060000000000000005,8,3,2,1,36,10,10,1,4,0,15,7,L,0.07416666666666667,0.052000000000000005,0.06499999999999999,0.060000000000000005
12,3,6,0,1,0.5800000000000003,2,9,33,116,111,34,2.6000000000000014,0.7700000000000005,0.47000000000000025,0.09,5,3,3,2,45,10,5,3,5,0,14,7,L,0.057777777777777775,0.077,0.094,0.03
12,4,7,0,6,0.5400000000000003,2,12,57,54,44,38,2.5600000000000014,0.49000000000000027,0.9600000000000006,0.23000000000000007,9,2,6,3,40,5,14,4,4,0,18,7,L,0.064,0.098,0.06857142857142859,0.0575
12,4,8,0,1,0.6300000000000003,2,10,32,29,33,97,2.540000000000002,0.6500000000000004,0.36000000000000015,0.25000000000000006,4,2,2,3,45,13,7,4,5,0.5,32,7,L,0.05644444444444444,0.05,0.051428571428571435,0.0625
