Subject,Round,Phase,afterbreak,Schema,Schema_RT,Schema_OB,Schema_AS,Cho_1,Cho_2,Cho_3,Cho_4,RT_1,RT_2,RT_3,RT_4,OB_1,OB_2,OB_3,OB_4,AS_1,AS_2,AS_3,AS_4,schema_payoff,AC,performance,breakR,type,dwellmean_1,dwellmean_2,dwellmean_3,dwellmean_4
1,1,1,0,8,0.13999999999999999,2,3,109,48,116,54,0.16999999999999998,0.11999999999999998,0.03,0.09999999999999999,4,1,1,2,5,1,1,2,2,0,13,7,L,0.034,0.11999999999999998,0.03,0.05
1,1,2,0,5,0.09999999999999999,2,2,5,12,27,101,0.16,0.02,0.11999999999999998,0.09,3,1,1,2,3,1,1,2,6,0,19,7,L,0.05333333333333334,0.02,0.11999999999999998,0.045
1,2,3,0,7,0.17,2,3,94,6,95,2,0.27,0.05,0.04,0.07,3,1,1,2,4,1,1,2,3,0,18,7,L,0.0675,0.05,0.04,0.035
1,2,4,0,10,0.12999999999999998,2,3,21,57,35,98,0.13999999999999999,0.13999999999999999,2.349999999999994,0.7300000000000004,3,1,4,2,4,1,5,2,6,0,17,7,L,0.035,0.13999999999999999,0.4700000000000003,0.3650000000000002
1,3,5,0,7,0.19000000000000003,2,3,85,87,40,72,0.24000000000000005,0.09,0.05,0.13999999999999999,4,1,1,1,5,1,1,1,3,0,15,7,L,0.048,0.09,0.05,0.13999999999999999
1,3,6,0,6,0.23000000000000007,5,6,60,55,78,84,0.32000000000000006,0.060000000000000005,0.13999999999999999,0.060000000000000005,6,1,2,1,7,1,2,1,4,0,14,7,L,0.045714285714285714,0.060000000000000005,0.06999999999999999,0.060000000000000005
1,4,7,0,6,0.15,2,4,110,79,14,41,0.37000000000000005,0.20000000000000004,0.03,0.01,3,1,1,1,5,1,1,1,4,0,16,7,L,0.07400000000000001,0.20000000000000004,0.03,0.01
1,4,8,0,5,0.17,2,3,98,71,62,6,0.3,0.45000000000000023,1.0000000000000007,0.07,3,2,2,2,4,2,2,2,6,0,16,7,L,0.075,0.22500000000000012,0.5000000000000003,0.035
1,5,9,0,7,0.20000000000000004,2,3,47,107,100,86,0.32,0.05,0.02,0.03,3,1,1,2,4,1,1,2,3,0,12,7,L,0.08,0.05,0.02,0.015
1,5,10,0,1,0.08,1,2,115,119,35,25,0.19999999999999998,0.060000000000000005,0.02,0.02,2,1,1,1,3,1,1,1,5,0,14,7,L,0.06666666666666667,0.060000000000000005,0.02,0.02
1,6,11,0,8,0.16,2,3,58,119,14,13,0.27,0.04,0.18000000000000002,0.01,3,1,2,1,4,1,2,1,2,0,18,7,L,0.0675,0.04,0.09000000000000001,0.01
1,6,12,0,9,0.16,2,3,76,74,4,67,0.26,0.02,0.11999999999999998,0.02,3,1,1,1,4,1,1,1,4,0,16,7,L,0.065,0.02,0.11999999999999998,0.02
1,7,13,1,7,0.17,2,4,81,54,74,80,0.21000000000000002,0.10999999999999999,0.03,0.02,4,1,1,1,6,1,1,1,3,0.5,22,7,L,0.034999999999999996,0.10999999999999999,0.03,0.02
1,7,14,1,15,0.13999999999999999,2,3,43,3,89,90,0.31,2.579999999999989,0.01,0.11999999999999998,3,2,1,2,4,2,1,2,4,0,17,7,L,0.0775,1.2899999999999945,0.01,0.05999999999999999
1,8,15,1,7,0.08,2,2,15,67,119,72,3.6299999999999684,0.01,0.01,0.20000000000000004,6,1,1,1,6,1,1,1,3,0,16,7,L,0.604999999999997,0.01,0.01,0.20000000000000004
1,8,16,1,10,0.2700000000000001,1,2,54,85,56,2,0.5600000000000002,1.6800000000000013,2.489999999999991,0.01,2,3,3,1,3,3,3,1,6,0,17,7,L,0.18666666666666673,0.5600000000000004,0.8300000000000006,0.01
1,9,17,1,13,0.19000000000000003,2,3,21,40,20,93,0.21000000000000002,0.10999999999999999,0.05,0.12999999999999998,3,1,1,1,4,2,1,1,6,0,20,7,L,0.052500000000000005,0.05500000000000001,0.05,0.12999999999999998
1,9,18,1,4,0.13999999999999999,2,4,9,60,106,102,0.22999999999999998,0.15,0.03,0.15,3,1,1,2,5,1,1,2,2,0,14,7,L,0.046,0.15,0.03,0.075
1,10,19,1,15,0.13999999999999999,1,2,93,85,107,6,0.24,0.07,0.04,0.04,2,1,1,1,3,1,1,1,4,0,14,7,L,0.08,0.07,0.04,0.04
1,10,20,1,11,0.22000000000000006,2,3,114,56,79,51,0.31000000000000005,0.09999999999999999,0.17,0.01,3,1,1,1,4,1,1,1,2,0,13,7,L,0.0775,0.09999999999999999,0.17,0.01
1,11,21,1,11,0.24000000000000007,5,5,118,113,60,116,0.31000000000000005,0.11999999999999998,0.03,0.08,6,1,2,1,6,1,2,1,2,0.5,16,7,L,0.051666666666666666,0.11999999999999998,0.015,0.08
1,11,22,1,7,0.18000000000000002,5,5,104,78,37,63,0.34,1.5400000000000011,0.3200000000000001,0.46000000000000024,6,2,2,2,6,3,2,2,3,0,14,7,L,0.05666666666666667,0.5133333333333336,0.16000000000000003,0.23000000000000012
1,12,23,1,12,0.07,2,2,107,95,94,1,5.279999999999934,0.05,4.069999999999958,1.8800000000000014,8,1,6,5,10,1,6,6,3,0,14,7,L,0.5280000000000004,0.05,0.6783333333333338,0.31333333333333346
1,12,24,1,3,0.13999999999999999,2,3,18,120,66,70,0.43000000000000005,0.04,0.11999999999999998,0.01,3,1,1,1,4,1,1,1,5,0,16,7,L,0.10750000000000003,0.04,0.11999999999999998,0.01
1,13,25,1,13,0.21000000000000005,2,3,89,20,114,115,0.34,0.05,0.6300000000000003,0.07,3,1,2,1,4,1,2,1,6,0,13,7,L,0.08499999999999999,0.05,0.3150000000000001,0.07
1,13,26,1,15,0.11999999999999998,2,3,66,64,105,70,0.16999999999999998,0.01,0.12999999999999998,0.02,3,1,1,1,4,1,1,1,4,0.5,26,7,L,0.0425,0.01,0.12999999999999998,0.02
1,14,27,1,7,0.12999999999999998,2,3,77,81,54,49,0.20999999999999996,0.02,0.07,0.05,3,1,1,1,4,1,1,1,3,0,14,7,L,0.052500000000000005,0.02,0.07,0.05
1,14,28,1,15,0.15,2,3,67,94,12,66,1.9900000000000013,0.01,0.6500000000000004,0.01,6,1,4,1,7,1,4,1,4,0,17,7,L,0.2842857142857145,0.01,0.16250000000000006,0.01
1,15,29,1,6,0.07,2,2,110,114,81,5,0.8900000000000006,0.01,0.07,0.45000000000000023,5,1,1,2,5,1,1,2,4,0,13,7,L,0.17800000000000007,0.01,0.07,0.22500000000000012
1,15,30,1,13,0.09,2,2,13,16,92,35,0.14,0.02,2.899999999999982,3.4899999999999696,3,1,4,5,3,1,4,8,6,0,20,7,L,0.04666666666666667,0.02,0.7250000000000005,0.43625000000000025
1,16,31,1,3,0.4100000000000002,2,3,29,35,54,8,0.4600000000000002,0.09,1.2200000000000009,0.9800000000000006,3,1,2,4,4,1,2,4,5,0,20,7,L,0.11500000000000003,0.09,0.6100000000000004,0.2450000000000001
1,16,32,1,14,0.20000000000000004,8,9,38,48,78,24,0.24000000000000005,0.09999999999999999,1.5400000000000011,0.01,9,2,2,1,10,2,2,1,5,0,19,7,L,0.024,0.05,0.7700000000000006,0.01
1,17,33,1,11,0.26000000000000006,7,8,117,111,68,94,0.36000000000000004,0.01,0.9000000000000006,0.01,8,1,3,1,9,1,3,1,2,0,11,7,L,0.04,0.01,0.3000000000000002,0.01
1,17,34,1,4,0.17,2,4,107,58,20,84,0.19,0.13999999999999999,0.6400000000000003,0.01,3,1,3,1,5,1,3,1,2,0,15,7,L,0.038,0.13999999999999999,0.21333333333333343,0.01
1,18,35,1,15,0.11999999999999998,2,3,69,63,104,102,0.18,0.01,0.08,0.060000000000000005,3,1,1,1,4,1,1,1,4,0,12,7,L,0.045,0.01,0.08,0.060000000000000005
1,18,36,1,11,0.24000000000000007,3,4,109,27,30,119,0.33000000000000007,0.060000000000000005,0.04,0.02,5,1,1,1,6,1,1,1,2,0,14,7,L,0.05500000000000001,0.060000000000000005,0.04,0.02
1,19,37,1,6,0.15,3,3,79,75,59,118,0.35000000000000003,0.5400000000000003,0.9300000000000006,1.0400000000000007,4,4,3,2,4,5,3,2,4,0,12,7,L,0.08750000000000001,0.10800000000000003,0.31000000000000016,0.5200000000000004
1,19,38,1,12,0.08,2,4,93,62,68,92,0.3700000000000001,3.3999999999999715,0.01,0.01,4,4,1,1,6,4,1,1,3,0,14,7,L,0.061666666666666675,0.8499999999999983,0.01,0.01
1,20,39,1,6,0.19000000000000003,2,3,57,95,6,55,0.33,0.08,0.08,0.03,4,1,2,1,5,1,2,1,4,0,17,7,L,0.06599999999999999,0.08,0.04,0.03
1,20,40,1,11,0.19000000000000003,2,3,117,74,20,16,0.28,0.05,0.23000000000000007,0.04,4,1,2,1,5,1,2,1,2,0,17,7,L,0.056,0.05,0.115,0.04
1,21,41,1,6,0.11999999999999998,2,3,58,12,9,2,1.2800000000000007,0.3300000000000001,0.5300000000000002,0.01,4,2,2,1,5,2,2,1,4,0.5,40,7,L,0.25600000000000017,0.16500000000000004,0.2650000000000001,0.01
1,21,42,1,11,0.17,6,7,114,110,85,15,0.22000000000000003,0.02,0.07,0.05,7,1,1,1,8,1,1,1,2,0,13,7,L,0.0275,0.02,0.07,0.05
1,22,43,1,14,0.13999999999999999,1,2,79,48,43,68,0.29,0.03,0.060000000000000005,0.05,2,1,1,1,3,1,1,1,5,0,17,7,L,0.09666666666666666,0.03,0.060000000000000005,0.05
1,22,44,1,11,0.21000000000000005,2,3,57,88,7,6,0.32000000000000006,0.05,0.05,0.09,3,1,1,2,4,1,1,3,2,0,19,7,L,0.07999999999999999,0.05,0.05,0.03
2,1,1,0,4,0.11999999999999998,2,3,87,44,21,13,0.4500000000000001,0.11999999999999998,0.13999999999999999,0.04,3,1,2,1,4,1,3,1,2,0,20,7,L,0.11250000000000003,0.11999999999999998,0.04666666666666666,0.04
2,1,2,0,6,0.13999999999999999,2,3,52,79,60,80,0.6000000000000002,0.09999999999999999,0.04,0.060000000000000005,4,1,1,1,9,1,1,1,4,0,14,7,L,0.06666666666666667,0.09999999999999999,0.04,0.060000000000000005
2,2,3,0,7,0.15,2,3,7,98,52,104,0.5100000000000001,0.11999999999999998,0.060000000000000005,0.07,3,1,1,1,4,1,1,1,3,0,14,7,L,0.12750000000000003,0.11999999999999998,0.060000000000000005,0.07
2,2,4,0,2,0.10999999999999999,2,3,120,29,32,75,0.6900000000000003,0.04,0.04,0.01,4,1,1,1,5,1,1,1,3,0,15,7,L,0.13800000000000004,0.04,0.04,0.01
2,3,5,0,6,0.060000000000000005,2,2,50,60,31,95,0.31000000000000005,0.12999999999999998,0.12999999999999998,0.03,3,1,2,1,3,1,2,1,4,0,16,7,L,0.10333333333333335,0.12999999999999998,0.065,0.03
2,3,6,0,3,0.12999999999999998,2,4,109,40,4,10,0.7000000000000003,0.02,0.03,0.07,5,1,1,2,10,1,1,2,5,0,19,7,L,0.07,0.02,0.03,0.035
2,4,7,0,4,0.16,2,3,73,104,100,10,0.6500000000000002,0.03,0.10999999999999999,0.05,5,1,2,2,8,1,2,2,2,0,13,7,L,0.08125,0.03,0.055,0.025
2,4,8,0,8,0.12999999999999998,2,4,60,112,119,52,0.4700000000000001,0.08,0.07,0.07,3,1,2,1,5,1,2,1,2,0,12,7,L,0.09400000000000003,0.08,0.035,0.07
2,5,9,0,6,0.11999999999999998,2,2,13,60,87,31,7.129999999999895,0.01,0.01,0.01,16,1,1,1,17,1,1,1,4,0,18,7,L,0.41941176470588054,0.01,0.01,0.01
2,5,10,0,8,0.08,2,3,119,114,10,82,0.43000000000000016,0.08,0.3100000000000001,0.03,4,1,2,1,5,1,2,1,2,0,13,7,L,0.08600000000000001,0.08,0.15500000000000005,0.03
2,6,11,0,9,0.09999999999999999,2,3,89,90,31,36,0.4400000000000001,0.15,0.08,0.03,3,1,1,1,4,1,1,1,4,0,16,7,L,0.11000000000000003,0.15,0.08,0.03
2,6,12,0,3,0.09999999999999999,2,2,43,45,103,8,0.47000000000000014,0.09,0.07,0.03,4,1,1,1,6,1,1,1,5,0,18,7,L,0.07833333333333335,0.09,0.07,0.03
2,7,13,1,7,0.13999999999999999,2,3,82,30,119,7,0.45000000000000007,0.16,0.34000000000000014,2.669999999999987,4,2,2,2,5,2,2,2,3,0,16,7,L,0.09,0.08,0.17000000000000007,1.3349999999999935
2,7,14,1,13,0.17,3,4,23,40,20,97,0.44000000000000006,0.17,0.060000000000000005,0.6600000000000004,5,1,1,3,7,1,1,3,6,0,19,7,L,0.06285714285714286,0.17,0.060000000000000005,0.22000000000000008
2,8,15,1,6,0.13999999999999999,2,3,44,97,107,41,0.4900000000000001,0.12999999999999998,0.060000000000000005,0.05,3,1,1,1,4,1,1,1,4,0,14,7,L,0.12250000000000004,0.12999999999999998,0.060000000000000005,0.05
2,8,16,1,7,0.17,2,3,19,78,115,15,0.5400000000000001,0.04,0.12999999999999998,0.04,5,1,1,1,6,1,1,1,3,0,17,7,L,0.09000000000000001,0.04,0.12999999999999998,0.04
2,9,17,1,10,0.10999999999999999,2,3,1,28,85,26,0.4300000000000001,0.21000000000000005,0.05,0.13999999999999999,4,3,1,1,5,3,1,1,6,0,19,7,L,0.08600000000000001,0.06999999999999999,0.05,0.13999999999999999
2,9,18,1,11,0.12999999999999998,2,3,68,113,45,111,0.5500000000000002,0.05,0.060000000000000005,0.08,4,1,1,2,6,1,1,2,2,0,13,7,L,0.09166666666666667,0.05,0.060000000000000005,0.04
2,10,19,1,4,0.11999999999999998,2,3,45,98,77,108,0.47000000000000014,0.09,0.18000000000000002,0.01,3,1,2,1,4,1,3,1,2,0,12,7,L,0.11750000000000003,0.09,0.06,0.01
2,10,20,1,6,0.09999999999999999,2,3,58,5,27,55,0.5800000000000003,0.07,0.03,0.03,4,1,1,1,5,1,1,1,4,0,19,7,L,0.11600000000000003,0.07,0.03,0.03
2,11,21,1,14,0.10999999999999999,2,3,40,43,110,73,0.4300000000000001,0.08,0.09999999999999999,0.060000000000000005,3,1,1,1,4,1,1,1,5,0,15,7,L,0.10750000000000003,0.08,0.09999999999999999,0.060000000000000005
2,11,22,1,12,0.11999999999999998,2,3,10,61,100,29,0.5900000000000002,0.060000000000000005,0.09999999999999999,0.09999999999999999,4,1,1,1,5,1,1,1,3,0,17,7,L,0.11800000000000004,0.060000000000000005,0.09999999999999999,0.09999999999999999
2,12,23,1,3,0.09,2,2,25,16,19,120,0.3600000000000001,0.4000000000000002,0.05,0.01,3,2,1,1,3,2,1,1,5,0,19,7,L,0.12000000000000002,0.20000000000000007,0.05,0.01
2,12,24,1,6,0.12999999999999998,2,3,57,7,55,43,0.5100000000000001,0.15,0.03,0.17,4,2,1,1,7,2,1,2,4,0,19,7,L,0.07285714285714287,0.07499999999999998,0.03,0.08499999999999999
2,13,25,1,6,0.08,2,3,58,57,90,87,0.3900000000000001,0.09,0.11999999999999998,0.09,4,1,1,2,5,1,1,2,4,0,14,7,L,0.07800000000000001,0.09,0.11999999999999998,0.045000000000000005
2,13,26,1,11,0.2700000000000001,3,4,72,34,3,70,0.7700000000000002,0.07,0.060000000000000005,0.05,7,1,1,1,8,1,1,1,2,0,19,7,L,0.09625000000000002,0.07,0.060000000000000005,0.05
2,14,27,1,6,0.11999999999999998,2,3,49,53,99,18,0.5700000000000002,0.02,0.16,0.03,4,1,2,1,6,1,2,1,4,0,16,7,L,0.09500000000000001,0.02,0.08,0.03
2,14,28,1,12,0.08,2,2,87,115,92,120,0.3400000000000001,0.18000000000000002,0.05,0.05,3,2,1,1,3,3,1,1,3,0,10,7,L,0.11333333333333336,0.06,0.05,0.05
2,15,29,1,6,0.12999999999999998,2,2,113,59,9,94,0.5500000000000002,0.07,0.03,0.08,4,1,1,1,4,1,1,1,4,0,15,7,L,0.1375,0.07,0.03,0.08
2,15,30,1,7,0.11999999999999998,2,4,97,68,29,26,0.5200000000000001,0.09,0.10999999999999999,0.03,3,1,1,1,5,1,1,1,3,0,16,7,L,0.10400000000000004,0.09,0.10999999999999999,0.03
2,16,31,1,6,0.09999999999999999,2,2,60,48,21,74,0.39000000000000007,0.2700000000000001,0.08,0.04,3,2,1,1,3,3,1,1,4,0,18,7,L,0.13000000000000003,0.09,0.08,0.04
2,16,32,1,4,0.13999999999999999,2,3,99,108,1,69,0.4900000000000001,0.060000000000000005,0.3200000000000001,0.01,3,1,3,1,4,1,3,1,2,0,14,7,L,0.12250000000000004,0.060000000000000005,0.10666666666666669,0.01
2,17,33,1,6,0.17,2,3,10,111,113,11,0.6100000000000002,0.05,0.07,0.05,3,1,1,1,4,1,1,1,4,0,16,7,L,0.15250000000000005,0.05,0.07,0.05
2,17,34,1,7,0.13999999999999999,2,3,74,63,13,44,0.5200000000000001,0.07,0.060000000000000005,0.060000000000000005,4,1,1,1,5,1,1,1,3,0,18,7,L,0.10400000000000002,0.07,0.060000000000000005,0.060000000000000005
2,18,35,1,14,0.09999999999999999,2,2,46,106,37,10,0.4100000000000001,0.12999999999999998,0.09,0.04,3,1,1,1,3,1,1,1,5,0,18,7,L,0.13666666666666671,0.12999999999999998,0.09,0.04
2,18,36,1,6,0.10999999999999999,2,3,53,23,82,60,0.4000000000000001,0.25000000000000006,0.17,0.01,4,2,2,1,5,3,2,1,4,0,17,7,L,0.08000000000000002,0.08333333333333336,0.08499999999999999,0.01
2,19,37,1,15,0.08,2,3,63,45,120,83,0.31000000000000005,0.13999999999999999,0.4100000000000002,0.01,4,1,1,1,5,1,1,1,4,0,14,7,L,0.062000000000000006,0.13999999999999999,0.4100000000000002,0.01
2,19,38,1,6,0.11999999999999998,2,2,51,93,55,101,0.46000000000000013,0.23000000000000007,0.04,0.02,4,2,1,1,5,2,1,1,4,0,13,7,L,0.092,0.11499999999999999,0.04,0.02
2,20,39,1,6,0.11999999999999998,2,3,93,60,54,115,0.7000000000000003,0.5500000000000003,0.02,0.01,3,3,1,1,4,3,1,1,4,0,13,7,L,0.17500000000000007,0.18333333333333343,0.02,0.01
2,20,40,1,4,0.09,2,2,106,98,4,65,0.4700000000000002,0.05,0.4000000000000002,0.02,4,1,2,1,4,1,2,1,2,0,14,7,L,0.11750000000000002,0.05,0.2000000000000001,0.02
2,21,41,1,6,0.19000000000000003,2,4,56,34,33,57,0.5300000000000001,0.12999999999999998,0.09,0.04,4,1,1,1,8,1,1,1,4,0,18,7,L,0.06625,0.12999999999999998,0.09,0.04
2,21,42,1,7,0.09999999999999999,1,2,84,66,46,70,0.4100000000000001,0.11999999999999998,0.10999999999999999,0.03,2,1,2,1,3,1,2,1,3,0,16,7,L,0.13666666666666671,0.11999999999999998,0.055,0.03
2,22,43,1,10,0.17,2,3,62,8,31,7,0.4700000000000001,0.04,0.12999999999999998,0.6700000000000004,3,1,2,3,4,1,2,3,6,0,21,7,L,0.11750000000000002,0.04,0.065,0.22333333333333344
2,22,44,1,12,0.10999999999999999,2,3,88,59,85,53,0.4000000000000001,0.18000000000000002,0.03,0.060000000000000005,3,2,1,1,4,2,1,1,3,0,14,7,L,0.10000000000000002,0.09,0.03,0.060000000000000005
3,1,1,0,1,0.12999999999999998,2,3,3,26,83,2,0.42000000000000004,0.060000000000000005,0.11999999999999998,0.03,3,1,1,1,4,1,1,1,5,0,20,7,L,0.10500000000000002,0.060000000000000005,0.11999999999999998,0.03
3,1,2,0,8,0.10999999999999999,2,3,112,110,24,88,0.33000000000000007,0.08,0.11999999999999998,0.04,3,1,1,1,4,1,1,1,2,0,13,7,L,0.08250000000000002,0.08,0.11999999999999998,0.04
3,2,3,0,7,0.11999999999999998,2,3,109,93,111,46,0.4500000000000001,0.05,0.10999999999999999,0.02,3,1,2,1,4,1,2,1,3,0,12,7,L,0.11250000000000003,0.05,0.05500000000000001,0.02
3,2,4,0,9,0.12999999999999998,2,3,99,65,107,68,0.39,0.05,0.08,0.03,3,1,1,1,4,1,1,1,4,0,12,7,L,0.09750000000000002,0.05,0.08,0.03
3,3,5,0,6,0.11999999999999998,2,3,92,60,24,115,0.38000000000000006,0.05,0.09999999999999999,0.07,3,1,1,1,4,1,1,1,4,0,15,7,L,0.09500000000000001,0.05,0.09999999999999999,0.07
3,3,6,0,1,0.12999999999999998,2,3,31,6,71,70,0.37000000000000005,0.16,0.10999999999999999,0.060000000000000005,4,1,1,1,5,1,1,1,5,0,19,7,L,0.074,0.16,0.10999999999999999,0.060000000000000005
3,4,7,0,9,0.12999999999999998,2,4,66,97,100,95,0.37000000000000005,0.10999999999999999,0.060000000000000005,0.060000000000000005,4,1,1,1,6,1,1,1,4,0,11,7,L,0.06166666666666667,0.10999999999999999,0.060000000000000005,0.060000000000000005
3,4,8,0,6,0.16,2,3,54,117,53,120,0.44000000000000006,0.09,0.07,0.04,3,1,1,1,4,1,1,1,4,0,12,7,L,0.11000000000000001,0.09,0.07,0.04
3,5,9,0,9,0.09999999999999999,1,2,117,65,75,3,0.37000000000000005,0.07,0.09999999999999999,0.05,2,1,1,1,3,1,1,1,4,0,15,7,L,0.12333333333333336,0.07,0.09999999999999999,0.05
3,5,10,0,6,0.10999999999999999,2,2,16,95,43,51,23.320000000000828,0.01,0.01,0.01,19,1,1,1,44,1,1,1,4,0,18,7,L,0.5300000000000004,0.01,0.01,0.01
3,6,11,0,2,0.13999999999999999,2,3,103,74,104,82,0.39,0.060000000000000005,0.12999999999999998,0.04,3,1,1,1,4,1,1,1,3,0,10,7,L,0.09750000000000002,0.060000000000000005,0.12999999999999998,0.04
3,6,12,0,8,0.12999999999999998,2,3,113,109,95,15,0.41000000000000003,0.04,0.13999999999999999,0.04,3,1,1,1,4,1,1,1,2,0,13,7,L,0.10250000000000002,0.04,0.13999999999999999,0.04
3,7,13,1,6,0.10999999999999999,1,2,74,55,82,73,0.38000000000000006,0.05,0.05,0.05,2,1,1,1,3,1,1,1,4,0.5,22,7,L,0.1266666666666667,0.05,0.05,0.05
3,7,14,1,3,0.12999999999999998,2,3,25,7,31,30,0.37000000000000005,0.11999999999999998,0.04,0.04,4,1,1,1,5,1,1,1,5,0.5,36,7,L,0.074,0.11999999999999998,0.04,0.04
3,8,15,1,7,0.11999999999999998,2,2,20,25,36,103,8.22999999999987,0.01,0.01,0.01,10,1,1,1,15,1,1,1,3,0,18,7,L,0.548666666666667,0.01,0.01,0.01
3,8,16,1,14,0.10999999999999999,1,2,8,48,11,96,0.4000000000000001,0.060000000000000005,0.07,0.060000000000000005,2,1,1,1,3,1,1,1,5,0,20,7,L,0.13333333333333336,0.060000000000000005,0.07,0.060000000000000005
3,9,17,1,11,0.2700000000000001,6,6,116,72,83,75,0.42000000000000004,1.1300000000000008,0.03,0.01,7,3,1,1,7,4,1,1,2,0,12,7,L,0.060000000000000005,0.28250000000000014,0.03,0.01
3,9,18,1,4,0.11999999999999998,2,4,106,104,15,47,0.34,0.060000000000000005,0.13999999999999999,0.05,3,1,1,1,5,1,1,1,2,0,15,7,L,0.06800000000000002,0.060000000000000005,0.13999999999999999,0.05
3,10,19,1,6,0.11999999999999998,2,3,76,53,78,37,0.33,0.09,0.09999999999999999,1.7100000000000013,3,1,2,2,4,1,2,2,4,0,15,7,L,0.08250000000000002,0.09,0.05,0.8550000000000006
3,10,20,1,3,0.15,2,3,26,10,66,85,0.38000000000000006,0.12999999999999998,0.09999999999999999,0.03,4,1,1,1,5,1,1,1,5,0,18,7,L,0.076,0.12999999999999998,0.09999999999999999,0.03
3,11,21,1,4,0.12999999999999998,2,3,60,50,5,39,0.7600000000000003,0.01,0.060000000000000005,0.01,3,1,2,1,4,1,2,1,2,0,19,7,L,0.19000000000000009,0.01,0.030000000000000002,0.01
3,11,22,1,11,0.10999999999999999,2,2,16,23,25,120,6.159999999999916,0.01,0.02,0.01,6,1,1,1,7,1,1,1,2,0,19,7,L,0.8799999999999936,0.01,0.02,0.01
3,12,23,1,3,0.13999999999999999,2,3,25,17,18,85,0.8400000000000004,0.02,0.01,0.01,4,2,1,1,5,2,1,1,5,0,20,7,L,0.16800000000000007,0.01,0.01,0.01
3,12,24,1,15,0.13999999999999999,2,3,68,75,63,1,0.36000000000000004,0.09,0.060000000000000005,0.09,4,1,1,1,5,1,1,1,4,0,17,7,L,0.072,0.09,0.060000000000000005,0.09
3,13,25,1,4,0.10999999999999999,2,3,76,22,99,73,0.5800000000000003,0.02,0.02,0.02,4,1,1,1,5,1,1,1,2,0,14,7,L,0.11600000000000005,0.02,0.02,0.02
3,13,26,1,11,0.11999999999999998,2,2,2,69,26,111,8.509999999999865,0.01,0.05,0.01,14,1,1,1,19,1,1,1,2,0,17,7,L,0.4478947368421055,0.01,0.05,0.01
3,14,27,1,4,0.2900000000000001,3,4,51,102,47,74,0.6700000000000003,0.05,0.03,0.03,4,1,1,1,5,1,1,1,2,0,14,7,L,0.13400000000000004,0.05,0.03,0.03
3,14,28,1,11,0.09999999999999999,2,3,12,114,32,70,0.35000000000000003,0.05,0.18000000000000002,0.08,3,1,1,2,4,1,1,3,2,0,17,7,L,0.08750000000000001,0.05,0.18000000000000002,0.026666666666666665
3,15,29,1,11,0.2700000000000001,3,4,27,25,3,55,0.4900000000000001,1.6200000000000012,0.01,0.09,4,3,1,1,5,4,1,1,2,0,20,7,L,0.09800000000000002,0.40500000000000025,0.01,0.09
3,15,30,1,13,0.17,2,3,101,17,104,103,0.4100000000000001,0.20000000000000004,2.619999999999988,2.679999999999987,3,2,4,5,4,3,4,5,6,0.5,18,7,L,0.10250000000000002,0.06666666666666667,0.6550000000000005,0.5360000000000004
3,16,31,1,3,0.18000000000000002,4,4,32,34,110,82,0.33,0.060000000000000005,1.9100000000000015,0.07,5,1,3,1,5,1,3,1,5,0,15,7,L,0.066,0.060000000000000005,0.636666666666667,0.07
3,16,32,1,12,0.16,2,3,86,87,52,101,0.38000000000000006,0.08,0.060000000000000005,0.23000000000000007,3,1,1,1,4,1,1,2,3,0,12,7,L,0.09500000000000001,0.08,0.060000000000000005,0.11499999999999999
3,17,33,1,15,0.3000000000000001,10,10,72,97,67,24,0.5200000000000001,0.05,0.05,0.07,11,1,1,1,11,1,1,1,4,0,16,7,L,0.04727272727272728,0.05,0.05,0.07
3,17,34,1,3,0.17,2,3,30,28,57,115,0.37000000000000005,0.18000000000000002,0.060000000000000005,0.10999999999999999,3,1,1,2,4,1,1,2,5,0,16,7,L,0.09250000000000001,0.18000000000000002,0.060000000000000005,0.055
3,18,35,1,4,0.3000000000000001,2,3,68,97,63,34,0.5600000000000002,0.060000000000000005,0.060000000000000005,0.09999999999999999,3,1,1,1,4,1,1,1,2,0,15,7,L,0.14000000000000004,0.060000000000000005,0.060000000000000005,0.09999999999999999
3,18,36,1,11,0.20000000000000004,2,3,114,48,85,14,0.4000000000000001,0.18000000000000002,0.07,0.03,4,2,1,1,5,2,1,1,2,0,16,7,L,0.07999999999999999,0.09,0.07,0.03
3,19,37,1,15,0.17,2,3,44,100,17,66,0.4800000000000001,0.09999999999999999,0.02,0.05,3,2,1,1,4,2,1,1,4,0,17,7,L,0.12000000000000002,0.05,0.02,0.05
3,19,38,1,6,0.48000000000000026,4,4,4,56,25,52,5.529999999999937,0.01,0.01,0.01,13,1,1,1,15,1,1,1,4,0,19,7,L,0.36866666666666686,0.01,0.01,0.01
3,20,39,1,14,0.15,2,3,65,40,106,9,0.44000000000000006,0.08,0.03,0.11999999999999998,3,1,1,2,4,1,1,2,5,0,17,7,L,0.11000000000000003,0.08,0.03,0.06
3,20,40,1,6,0.19000000000000003,3,4,50,20,91,58,0.5100000000000001,0.01,0.13999999999999999,1.6000000000000012,5,1,1,2,6,1,1,2,4,0,17,7,L,0.085,0.01,0.13999999999999999,0.8000000000000006
3,21,41,1,7,2.1799999999999975,7,7,119,30,27,111,2.499999999999998,0.060000000000000005,0.09,0.01,8,1,2,1,10,1,2,1,3,0,14,7,L,0.24999999999999994,0.060000000000000005,0.045,0.01
3,21,42,1,14,0.35000000000000014,2,4,66,38,63,93,0.6300000000000002,0.05,0.09,0.07,3,1,1,1,5,1,1,1,5,0,16,7,L,0.12600000000000003,0.05,0.09,0.07
3,22,43,1,11,0.10999999999999999,2,3,120,110,70,118,0.33000000000000007,0.07,0.07,0.05,3,1,1,1,4,1,1,1,2,0.5,16,7,L,0.08250000000000002,0.07,0.07,0.05
3,22,44,1,13,0.26000000000000006,2,3,15,14,94,107,0.41000000000000003,0.22000000000000006,0.04,0.03,3,2,1,1,4,3,1,1,6,0,17,7,L,0.10250000000000001,0.07333333333333333,0.04,0.03
4,1,1,0,7,0.18000000000000002,2,2,4,101,107,10,51.02999999999845,0.01,0.01,0.01,20,1,1,1,72,1,1,1,3,0,16,7,L,0.7087499999999995,0.01,0.01,0.01
4,1,2,0,2,0.3100000000000001,2,3,77,43,39,76,0.7900000000000004,0.16,0.12999999999999998,0.060000000000000005,4,1,1,1,5,1,1,1,3,0,16,7,L,0.15800000000000003,0.16,0.12999999999999998,0.060000000000000005
4,2,3,0,7,0.5000000000000002,2,4,92,40,101,97,0.6900000000000003,0.5300000000000002,0.10999999999999999,0.05,3,3,1,1,5,3,1,1,3,0,12,7,L,0.138,0.17666666666666672,0.10999999999999999,0.05
4,2,4,0,9,0.3000000000000001,3,4,2,67,10,111,1.510000000000001,0.01,0.03,0.060000000000000005,6,1,1,1,7,1,1,1,4,0,18,7,L,0.2157142857142858,0.01,0.03,0.060000000000000005
4,3,5,0,3,0.12999999999999998,2,2,16,40,19,66,13.759999999999755,0.01,0.01,0.01,15,1,1,1,19,1,1,1,5,0,21,7,L,0.7242105263157881,0.01,0.01,0.01
4,3,6,0,1,0.23000000000000007,4,4,53,114,96,115,1.8400000000000012,0.060000000000000005,0.12999999999999998,0.8100000000000005,8,1,2,2,8,1,2,3,5,0,11,7,L,0.2300000000000001,0.060000000000000005,0.06499999999999999,0.27000000000000013
4,4,7,0,3,0.3100000000000001,2,3,37,100,106,58,0.5600000000000002,0.45000000000000023,0.11999999999999998,0.13999999999999999,4,2,1,2,5,2,1,2,5,0,13,7,L,0.11200000000000002,0.22500000000000003,0.11999999999999998,0.06999999999999999
4,4,8,0,9,0.2800000000000001,1,2,71,72,109,29,0.6600000000000003,0.19000000000000003,0.5000000000000002,0.08,2,1,2,1,3,1,2,1,4,0,15,7,L,0.22000000000000008,0.19000000000000003,0.2500000000000001,0.08
4,5,9,0,2,0.37000000000000016,2,4,75,81,6,5,0.5200000000000001,0.15,0.5400000000000003,0.4300000000000002,4,1,2,1,6,1,2,1,3,0,18,7,L,0.08666666666666666,0.15,0.27000000000000013,0.4300000000000002
4,5,10,0,3,0.4300000000000002,3,5,42,39,99,51,0.7000000000000003,0.21000000000000005,0.15,0.12999999999999998,5,1,1,1,7,1,1,1,5,0,16,7,L,0.1,0.21000000000000005,0.15,0.12999999999999998
4,6,11,0,4,0.4000000000000002,2,3,32,66,31,79,0.9600000000000004,0.3300000000000001,0.11999999999999998,0.10999999999999999,3,1,1,1,4,1,1,1,2,0,17,7,L,0.24000000000000007,0.3300000000000001,0.11999999999999998,0.10999999999999999
4,6,12,0,7,0.45000000000000023,2,4,55,54,38,53,0.9800000000000004,0.09999999999999999,0.11999999999999998,0.2900000000000001,4,1,1,2,6,1,1,2,3,0.5,29,7,L,0.16333333333333339,0.09999999999999999,0.11999999999999998,0.14500000000000002
4,7,13,1,11,0.35000000000000014,2,3,118,34,33,90,0.7400000000000003,0.4000000000000002,0.12999999999999998,0.08,3,1,1,1,4,1,1,1,2,0,15,7,L,0.18500000000000005,0.4000000000000002,0.12999999999999998,0.08
4,7,14,1,7,0.23000000000000007,2,3,46,14,17,106,0.7000000000000003,0.3300000000000001,0.16,0.5600000000000003,3,1,1,2,4,1,1,2,3,0,19,7,L,0.17500000000000004,0.3300000000000001,0.16,0.2800000000000001
4,8,15,1,11,0.36000000000000015,2,3,72,93,9,92,1.8000000000000012,0.01,0.02,0.08,5,1,1,2,6,1,1,2,2,0,16,7,L,0.30000000000000016,0.01,0.02,0.04
4,8,16,1,13,0.34000000000000014,2,3,15,20,18,52,0.5900000000000002,0.16,14.339999999999739,0.01,3,1,15,1,4,1,25,1,6,0.5,40,7,L,0.14750000000000002,0.16,0.5735999999999996,0.01
4,9,17,1,14,0.36000000000000015,2,3,8,65,61,43,1.0600000000000005,0.20000000000000004,0.09999999999999999,0.04,3,2,1,1,4,3,1,1,5,0,19,7,L,0.2650000000000001,0.06666666666666667,0.09999999999999999,0.04
4,9,18,1,3,0.6100000000000003,2,3,111,86,25,113,2.1000000000000014,0.01,0.01,0.02,4,1,1,1,5,1,1,1,5,0,12,7,L,0.42000000000000026,0.01,0.01,0.02
4,10,19,1,7,1.0100000000000007,11,15,75,115,81,59,1.2600000000000007,0.3100000000000001,0.07,0.10999999999999999,13,1,2,1,17,1,2,1,3,0,12,7,L,0.07411764705882354,0.3100000000000001,0.035,0.10999999999999999
4,10,20,1,4,0.3200000000000001,2,3,66,9,12,44,1.0500000000000005,0.19000000000000003,0.17,0.04,4,1,1,1,5,1,1,1,2,0,21,7,L,0.21000000000000008,0.19000000000000003,0.17,0.04
4,11,21,1,14,0.35000000000000014,2,3,60,57,10,120,0.7200000000000003,0.25000000000000006,0.36000000000000015,0.05,3,1,2,1,4,1,2,1,5,0,16,7,L,0.18000000000000005,0.25000000000000006,0.18000000000000005,0.05
4,11,22,1,4,0.3900000000000002,2,3,93,96,106,87,1.0600000000000005,0.12999999999999998,0.060000000000000005,0.6800000000000004,4,1,1,3,6,1,1,3,2,0.5,20,7,L,0.17666666666666672,0.12999999999999998,0.060000000000000005,0.22666666666666677
4,12,23,1,3,0.46000000000000024,3,4,109,57,52,33,0.8600000000000004,0.5700000000000003,0.07,0.07,4,2,1,1,5,2,1,1,5,0,15,7,L,0.17200000000000007,0.28500000000000014,0.07,0.07
4,12,24,1,15,0.2800000000000001,3,5,72,61,39,3,0.4800000000000001,0.21000000000000005,0.26000000000000006,0.15,5,1,1,2,7,1,1,2,4,0,19,7,L,0.06857142857142857,0.21000000000000005,0.26000000000000006,0.07500000000000001
4,13,25,1,11,0.35000000000000014,2,3,3,33,1,95,0.6800000000000003,0.3300000000000001,0.09999999999999999,0.6400000000000003,3,2,1,2,4,2,1,2,2,0,20,7,L,0.17000000000000004,0.16500000000000004,0.09999999999999999,0.3200000000000001
4,13,26,1,13,0.3000000000000001,2,3,41,42,15,48,0.8000000000000003,0.15,0.060000000000000005,0.7500000000000004,3,1,2,2,4,1,2,2,6,0.5,36,7,L,0.20000000000000007,0.15,0.03,0.37500000000000017
4,14,27,1,14,0.3300000000000001,2,3,98,38,21,51,0.9500000000000004,0.12999999999999998,0.12999999999999998,0.07,3,1,1,1,4,1,1,1,5,0,17,7,L,0.2375000000000001,0.12999999999999998,0.12999999999999998,0.07
4,14,28,1,7,1.470000000000001,3,4,83,75,12,73,1.730000000000001,0.7100000000000004,0.03,1.0800000000000007,5,2,1,2,6,2,1,2,3,0.5,24,7,L,0.2883333333333335,0.3550000000000002,0.03,0.5400000000000004
4,15,29,1,7,0.2800000000000001,2,3,81,74,20,24,0.5800000000000002,0.3300000000000001,0.17,0.07,3,2,1,1,4,2,1,1,3,0,18,7,L,0.14500000000000002,0.16500000000000004,0.17,0.07
4,15,30,1,12,0.4000000000000002,2,3,87,72,10,2,0.7400000000000003,0.26000000000000006,0.09,0.10999999999999999,3,1,1,1,4,1,1,1,3,0,19,7,L,0.18500000000000005,0.26000000000000006,0.09,0.10999999999999999
4,16,31,1,14,0.12999999999999998,2,2,18,74,22,78,2.939999999999984,0.01,0.01,0.05,8,1,1,1,8,1,1,1,5,0,18,7,L,0.3675000000000002,0.01,0.01,0.05
4,16,32,1,4,0.48000000000000026,2,3,10,87,51,32,0.7700000000000004,0.3200000000000001,0.3000000000000001,0.10999999999999999,3,1,1,1,4,1,1,1,2,0,18,7,L,0.19250000000000006,0.3200000000000001,0.3000000000000001,0.10999999999999999
4,17,33,1,15,0.2800000000000001,2,3,62,72,38,111,0.6600000000000003,0.16,0.23000000000000007,0.04,3,1,1,1,4,1,1,1,4,0,15,7,L,0.16500000000000004,0.16,0.23000000000000007,0.04
4,17,34,1,4,0.2900000000000001,2,3,97,100,77,2,0.5300000000000001,0.12999999999999998,0.2900000000000001,0.07,3,1,2,1,4,1,2,1,2,0,13,7,L,0.13250000000000003,0.12999999999999998,0.14500000000000002,0.07
4,18,35,1,11,0.8700000000000006,5,8,14,13,72,77,2.660000000000002,11.879999999999791,0.01,0.01,7,13,1,1,10,20,1,1,2,0,19,7,L,0.2660000000000001,0.5940000000000002,0.01,0.01
4,18,36,1,14,0.4000000000000002,2,4,60,54,37,4,0.9800000000000004,0.15,7.649999999999881,0.02,3,1,5,1,5,1,6,1,5,0,19,7,L,0.19600000000000006,0.15,1.274999999999993,0.02
4,19,37,1,3,0.26000000000000006,2,3,118,7,79,35,1.4400000000000008,0.01,0.04,0.03,4,1,1,1,5,1,1,1,5,0,16,7,L,0.28800000000000014,0.01,0.04,0.03
4,19,38,1,14,0.3900000000000002,2,3,53,59,22,50,1.3300000000000007,0.12999999999999998,0.17,0.38000000000000017,4,2,1,3,5,2,1,3,5,0.5,30,7,L,0.2660000000000001,0.065,0.17,0.1266666666666667
4,20,39,1,15,0.4000000000000002,2,4,34,96,7,120,1.0500000000000005,0.35000000000000014,0.6100000000000003,0.3200000000000001,6,1,3,2,8,1,3,3,4,0,16,7,L,0.13125,0.35000000000000014,0.20333333333333342,0.1066666666666667
4,20,40,1,7,0.2700000000000001,2,3,74,44,76,102,0.9100000000000004,0.07,0.08,0.5500000000000003,4,1,1,1,5,1,1,1,3,0,13,7,L,0.18200000000000005,0.07,0.08,0.5500000000000003
4,21,41,1,15,0.2800000000000001,3,4,76,66,78,107,0.7900000000000003,0.22000000000000006,0.11999999999999998,0.20000000000000004,4,2,1,1,5,2,1,1,4,0,12,7,L,0.15800000000000006,0.10999999999999999,0.11999999999999998,0.20000000000000004
4,21,42,1,3,0.6800000000000004,2,3,15,33,56,13,1.3200000000000007,0.2700000000000001,0.4000000000000002,0.02,4,2,2,1,5,2,2,1,5,0,21,7,L,0.26400000000000007,0.135,0.20000000000000007,0.02
4,22,43,1,4,0.4200000000000002,2,4,100,99,87,39,0.8000000000000004,0.09999999999999999,0.26000000000000006,0.12999999999999998,3,1,1,1,5,1,1,1,2,0,12,7,L,0.16000000000000003,0.09999999999999999,0.26000000000000006,0.12999999999999998
4,22,44,1,15,0.38000000000000017,2,3,61,20,84,116,0.6600000000000003,0.3200000000000001,0.11999999999999998,0.04,4,1,1,1,5,1,1,1,4,0,15,7,L,0.132,0.3200000000000001,0.11999999999999998,0.04
5,1,1,0,4,0.23000000000000007,2,3,98,105,38,57,0.4500000000000001,0.23000000000000007,0.03,0.05,4,2,1,1,5,2,1,1,2,0,13,7,L,0.09000000000000001,0.11499999999999999,0.03,0.05
5,1,2,0,2,0.16,2,3,23,82,29,16,0.5500000000000002,0.03,0.3100000000000001,0.04,3,1,2,2,4,1,2,2,3,0,20,7,L,0.13750000000000004,0.03,0.15500000000000005,0.02
5,2,3,0,9,0.15,2,3,73,62,14,24,0.4800000000000001,0.04,0.09999999999999999,0.060000000000000005,3,1,1,1,4,1,1,1,4,0,19,7,L,0.12000000000000004,0.04,0.09999999999999999,0.060000000000000005
5,2,4,0,8,0.17,2,3,112,9,6,120,0.4700000000000001,0.11999999999999998,0.07,1.5800000000000012,4,1,1,4,5,1,1,5,2,0,16,7,L,0.09400000000000001,0.11999999999999998,0.07,0.31600000000000017
5,3,5,0,10,0.18000000000000002,2,3,21,19,49,34,0.43000000000000005,1.490000000000001,0.02,0.01,4,4,1,1,5,4,1,1,6,0,21,7,L,0.086,0.3725000000000002,0.02,0.01
5,3,6,0,3,0.21000000000000005,2,3,75,41,116,68,0.5900000000000002,0.02,0.07,0.07,3,1,1,1,4,1,1,1,5,0,14,7,L,0.14750000000000005,0.02,0.07,0.07
5,4,7,0,9,0.21000000000000005,2,3,68,65,31,120,0.4500000000000001,0.13999999999999999,0.09999999999999999,0.08,4,1,2,2,5,1,2,2,4,0,15,7,L,0.09,0.13999999999999999,0.05,0.04
5,4,8,0,6,0.18000000000000002,2,3,52,50,38,102,0.4100000000000001,0.18000000000000002,0.11999999999999998,0.10999999999999999,4,1,2,1,5,1,2,1,4,0,15,7,L,0.08199999999999999,0.18000000000000002,0.060000000000000005,0.10999999999999999
5,5,9,0,3,0.19000000000000003,2,4,73,109,14,49,0.5100000000000001,0.12999999999999998,0.07,0.03,3,1,1,1,5,1,1,1,5,0,15,7,L,0.10200000000000002,0.12999999999999998,0.07,0.03
5,5,10,0,1,0.17,1,2,1,89,90,97,0.6900000000000003,0.07,0.02,0.04,4,1,1,1,5,1,1,1,5,0,14,7,L,0.13800000000000004,0.07,0.02,0.04
5,6,11,0,4,0.17,2,3,20,100,29,90,0.4900000000000001,0.060000000000000005,0.09,0.09999999999999999,3,1,1,1,4,1,1,1,2,0,16,7,L,0.12250000000000003,0.060000000000000005,0.09,0.09999999999999999
5,6,12,0,2,0.18000000000000002,2,3,75,4,77,83,0.45000000000000007,0.5200000000000002,0.03,0.6900000000000004,4,2,1,2,5,4,1,2,3,0.5,24,7,L,0.09,0.13000000000000003,0.03,0.3450000000000002
5,7,13,1,14,0.23000000000000007,2,4,118,44,83,75,0.6000000000000002,0.04,0.09,0.22000000000000006,4,1,1,2,7,1,1,2,5,0,13,7,L,0.08571428571428573,0.04,0.09,0.11000000000000001
5,7,14,1,3,0.20000000000000004,3,5,33,100,106,10,0.5400000000000001,0.07,0.09999999999999999,0.02,5,1,1,1,7,1,1,1,5,0,15,7,L,0.07714285714285715,0.07,0.09999999999999999,0.02
5,8,15,1,14,0.09999999999999999,2,2,14,99,102,22,1.2200000000000009,0.01,0.01,0.02,5,1,1,2,8,1,1,2,5,0,16,7,L,0.15250000000000008,0.01,0.01,0.01
5,8,16,1,15,0.19000000000000003,2,5,61,115,80,25,0.4800000000000001,0.10999999999999999,0.07,0.07,4,1,1,2,7,1,1,2,4,0,14,7,L,0.06857142857142857,0.10999999999999999,0.07,0.035
5,9,17,1,15,0.19000000000000003,2,3,73,39,84,62,0.5400000000000001,0.07,0.05,0.04,3,1,1,1,4,1,1,1,4,0,15,7,L,0.13500000000000004,0.07,0.05,0.04
5,9,18,1,4,0.20000000000000004,2,3,106,1,107,28,0.5200000000000001,0.07,0.08,0.060000000000000005,4,1,1,1,5,1,1,1,2,0,15,7,L,0.10400000000000001,0.07,0.08,0.060000000000000005
5,10,19,1,4,0.08,2,2,14,97,60,51,13.43999999999976,0.01,0.01,0.09999999999999999,19,1,1,1,36,1,1,1,2,0,16,7,L,0.3733333333333335,0.01,0.01,0.09999999999999999
5,10,20,1,15,0.17,2,3,71,5,115,111,0.36000000000000004,0.3100000000000001,0.2700000000000001,0.7900000000000005,3,1,2,2,4,1,2,2,4,0,14,7,L,0.09000000000000001,0.3100000000000001,0.13500000000000004,0.39500000000000024
5,11,21,1,15,0.07,2,2,13,116,86,25,5.269999999999934,0.01,0.02,0.01,10,1,1,1,13,1,1,1,4,0,16,7,L,0.4053846153846156,0.01,0.02,0.01
5,11,22,1,10,0.22000000000000006,3,4,10,79,47,77,0.5100000000000001,0.15,0.05,0.060000000000000005,5,1,1,1,6,1,1,1,6,0,17,7,L,0.085,0.15,0.05,0.060000000000000005
5,12,23,1,12,0.20000000000000004,2,4,70,96,85,11,0.5900000000000002,0.04,0.060000000000000005,0.03,3,1,1,1,5,1,1,1,3,0,16,7,L,0.11800000000000004,0.04,0.060000000000000005,0.03
5,12,24,1,13,0.19000000000000003,2,3,20,36,15,114,0.5500000000000002,0.11999999999999998,0.03,0.12999999999999998,4,1,1,1,5,1,1,1,6,0,19,7,L,0.11000000000000001,0.11999999999999998,0.03,0.12999999999999998
5,13,25,1,15,0.17,2,3,63,28,74,103,0.4900000000000001,0.15,0.03,0.03,4,1,1,1,5,1,1,1,4,0,14,7,L,0.09800000000000002,0.15,0.03,0.03
5,13,26,1,14,0.22000000000000006,6,7,43,41,19,51,0.5900000000000002,0.04,0.10999999999999999,0.02,8,1,1,1,10,1,1,1,5,0,20,7,L,0.059000000000000004,0.04,0.10999999999999999,0.02
5,14,27,1,4,0.11999999999999998,3,3,52,105,103,59,3.11999999999998,0.18000000000000002,0.01,0.01,13,2,1,1,15,2,1,1,2,0,12,7,L,0.2080000000000001,0.09,0.01,0.01
5,14,28,1,14,0.21000000000000005,2,4,117,13,71,40,0.7500000000000003,0.01,0.19000000000000003,0.01,4,1,2,1,6,1,2,1,5,0,17,7,L,0.12500000000000003,0.01,0.095,0.01
5,15,29,1,4,10.389999999999823,13,35,93,26,101,18,10.399999999999823,1.390000000000001,1.1600000000000008,3.369999999999972,14,2,2,9,36,2,2,13,2,0,16,7,L,0.28888888888888903,0.6950000000000005,0.5800000000000003,0.2592307692307693
5,15,30,1,7,0.18000000000000002,2,3,116,46,43,120,0.5200000000000001,0.12999999999999998,2.239999999999996,0.09999999999999999,3,2,5,1,4,2,6,1,3,0,14,7,L,0.13000000000000003,0.06499999999999999,0.3733333333333335,0.09999999999999999
5,16,31,1,10,0.23000000000000007,3,5,103,7,105,104,0.4800000000000001,0.07,0.6000000000000003,0.15,4,1,3,1,6,1,3,1,6,0.5,18,7,L,0.08,0.07,0.20000000000000004,0.15
5,16,32,1,13,0.15,2,3,17,16,85,25,0.44000000000000006,0.05,0.22000000000000006,0.22000000000000006,3,1,1,2,4,1,1,2,6,0,20,7,L,0.11000000000000003,0.05,0.22000000000000006,0.10999999999999999
5,17,33,1,3,0.09999999999999999,2,3,1,5,91,88,18.020000000000003,0.01,0.02,0.4300000000000002,20,1,1,2,47,1,1,2,5,0,18,7,L,0.3834042553191491,0.01,0.02,0.2150000000000001
5,17,34,1,13,0.25000000000000006,2,4,54,23,53,78,0.5700000000000002,0.4300000000000002,0.03,0.2800000000000001,3,2,1,1,5,2,1,1,6,0,17,7,L,0.11400000000000002,0.2150000000000001,0.03,0.2800000000000001
5,18,35,1,12,0.3000000000000001,5,7,40,3,42,49,0.7200000000000003,0.08,0.01,0.7100000000000004,7,1,1,2,9,1,1,2,3,0,20,7,L,0.08000000000000002,0.08,0.01,0.3550000000000002
5,18,36,1,3,0.18000000000000002,2,4,26,36,99,76,0.44000000000000006,0.05,0.17,0.04,4,1,2,1,8,1,2,1,5,0,15,7,L,0.055,0.05,0.08499999999999999,0.04
5,19,37,1,6,0.15,2,3,54,83,56,79,0.38000000000000006,0.16,0.05,0.10999999999999999,4,1,1,1,5,1,1,1,4,0,14,7,L,0.076,0.16,0.05,0.10999999999999999
5,19,38,1,15,0.18000000000000002,2,4,67,92,115,110,0.5000000000000001,0.13999999999999999,0.18000000000000002,0.04,3,1,1,1,5,1,1,1,4,0,11,7,L,0.10000000000000002,0.13999999999999999,0.18000000000000002,0.04
5,20,39,1,13,0.26000000000000006,2,3,25,117,111,82,0.6200000000000002,0.12999999999999998,0.02,0.02,3,1,1,1,4,1,1,1,6,0,12,7,L,0.15500000000000003,0.12999999999999998,0.02,0.02
5,20,40,1,12,0.10999999999999999,2,2,3,8,68,67,4.439999999999952,0.01,0.09999999999999999,0.01,9,1,2,1,12,1,2,1,3,0,20,7,L,0.37,0.01,0.049999999999999996,0.01
5,21,41,1,3,0.24000000000000007,2,4,28,90,88,64,0.5800000000000002,0.10999999999999999,0.05,0.04,4,1,1,1,8,1,1,1,5,0,15,7,L,0.0725,0.10999999999999999,0.05,0.04
5,21,42,1,14,0.17,2,3,79,42,47,57,0.45000000000000007,0.060000000000000005,0.09,0.04,3,1,1,1,4,1,1,1,5,0,17,7,L,0.11250000000000002,0.060000000000000005,0.09,0.04
5,22,43,1,4,0.19000000000000003,4,5,105,102,58,86,0.4300000000000001,0.13999999999999999,0.060000000000000005,0.03,6,1,1,1,7,1,1,1,2,0,11,7,L,0.06142857142857143,0.13999999999999999,0.060000000000000005,0.03
5,22,44,1,15,0.17,2,3,68,21,32,23,0.5100000000000001,0.09999999999999999,0.04,0.04,4,1,1,1,5,1,1,1,4,0,21,7,L,0.10200000000000002,0.09999999999999999,0.04,0.04
6,1,1,0,1,0.5100000000000002,2,3,11,5,25,73,3.4499999999999815,0.6400000000000003,0.5300000000000002,0.4300000000000002,6,1,3,1,7,1,4,1,5,0,20,7,L,0.4928571428571431,0.6400000000000003,0.13250000000000003,0.4300000000000002
6,1,2,0,8,0.6700000000000004,3,5,116,52,91,21,1.9200000000000013,1.6500000000000012,0.6100000000000003,0.35000000000000014,5,2,3,1,9,2,3,1,2,0,15,7,L,0.2133333333333334,0.8250000000000005,0.2033333333333334,0.35000000000000014
6,2,3,0,2,0.6000000000000003,2,4,58,79,18,49,4.719999999999957,0.08,0.13999999999999999,1.0000000000000007,8,1,1,3,15,1,1,4,3,0,17,7,L,0.3146666666666668,0.08,0.13999999999999999,0.2500000000000001
6,2,4,0,3,0.5200000000000002,2,3,63,86,114,11,4.45999999999996,0.20000000000000004,0.34000000000000014,0.24000000000000007,6,1,2,1,7,1,2,1,5,0,15,7,L,0.6371428571428576,0.20000000000000004,0.17,0.24000000000000007
6,3,5,0,8,0.7600000000000005,2,4,37,117,1,38,3.2199999999999918,0.4300000000000002,0.4300000000000002,0.9600000000000006,7,1,1,2,11,1,1,2,2,0,18,7,L,0.29272727272727284,0.4300000000000002,0.4300000000000002,0.48000000000000026
6,3,6,0,2,0.6200000000000003,2,6,83,77,27,13,2.6800000000000006,0.38000000000000017,1.1900000000000008,1.330000000000001,6,2,3,2,11,3,4,2,3,0,17,7,L,0.24363636363636373,0.12666666666666668,0.2975000000000001,0.6650000000000004
6,4,7,0,1,0.5000000000000002,2,3,25,63,73,74,1.520000000000001,1.7400000000000013,0.4400000000000002,0.2800000000000001,4,2,1,1,5,2,1,1,5,0,15,7,L,0.30400000000000016,0.8700000000000006,0.4400000000000002,0.2800000000000001
6,4,8,0,10,0.6900000000000004,11,11,13,16,92,96,6.269999999999926,13.139999999999764,0.01,0.03,17,16,1,1,20,26,1,1,6,0,18,7,L,0.31350000000000017,0.5053846153846157,0.01,0.03
6,5,9,0,2,0.5300000000000002,2,4,82,84,31,36,1.9800000000000013,1.290000000000001,0.4000000000000002,0.46000000000000024,5,3,1,2,8,4,2,2,3,0,16,7,L,0.24750000000000008,0.3225000000000001,0.20000000000000007,0.23000000000000004
6,5,10,0,7,1.0400000000000007,12,13,91,102,46,89,5.279999999999955,0.04,0.7800000000000005,0.18000000000000002,18,1,2,2,19,1,3,2,3,0,13,7,L,0.2778947368421054,0.04,0.2600000000000001,0.09000000000000001
6,6,11,0,4,0.4300000000000002,4,5,84,102,101,99,23.13000000000075,0.01,0.01,0.49000000000000027,19,1,1,2,44,1,1,2,2,0.5,15,7,L,0.5256818181818185,0.01,0.01,0.2450000000000001
6,6,12,0,7,1.1400000000000008,12,14,86,48,112,40,2.410000000000002,0.5200000000000002,0.6600000000000004,1.9400000000000015,14,1,2,3,17,1,2,4,3,0,15,7,L,0.141764705882353,0.5200000000000002,0.3300000000000001,0.4850000000000003
6,7,13,1,11,0.5800000000000003,2,3,110,3,36,2,2.1200000000000014,0.9800000000000006,1.0800000000000007,0.37000000000000016,4,1,3,2,7,1,3,2,2,0,19,7,L,0.302857142857143,0.9800000000000006,0.3600000000000002,0.18500000000000005
6,7,14,1,12,0.5700000000000003,2,3,95,97,41,63,1.8600000000000012,1.8400000000000014,0.36000000000000015,0.7600000000000005,4,3,1,2,5,4,1,2,3,0,14,7,L,0.3720000000000002,0.46000000000000024,0.36000000000000015,0.38000000000000017
6,8,15,1,15,0.5500000000000003,2,3,107,63,36,76,2.5000000000000018,0.9400000000000006,0.24000000000000007,0.7900000000000005,5,2,1,1,6,2,2,1,4,0,14,7,L,0.4166666666666669,0.47000000000000025,0.12,0.7900000000000005
6,8,16,1,11,0.6100000000000003,2,4,14,39,46,109,5.209999999999947,0.2900000000000001,0.2700000000000001,0.01,7,2,1,1,15,2,1,1,2,0,18,7,L,0.3473333333333335,0.14500000000000002,0.2700000000000001,0.01
6,9,17,1,7,0.5800000000000003,3,5,81,111,47,117,1.610000000000001,1.9500000000000015,0.8700000000000006,0.2900000000000001,5,5,2,2,7,5,3,2,3,0,12,7,L,0.2300000000000001,0.3900000000000002,0.2900000000000001,0.14500000000000002
6,9,18,1,3,0.6300000000000003,3,4,61,15,64,65,4.209999999999968,0.7800000000000005,0.6000000000000003,0.08,8,3,2,2,13,3,2,2,5,0.5,30,7,L,0.323846153846154,0.26000000000000006,0.30000000000000016,0.04
6,10,19,1,10,0.5700000000000003,3,5,3,8,32,25,3.059999999999991,0.3100000000000001,1.1000000000000008,2.9199999999999817,7,1,2,5,12,1,2,7,6,0,22,7,L,0.2550000000000001,0.3100000000000001,0.5500000000000004,0.41714285714285737
6,10,20,1,13,1.350000000000001,13,15,68,40,23,37,3.599999999999997,0.25000000000000006,1.5400000000000011,2.669999999999987,16,1,3,4,20,1,3,4,6,0,20,7,L,0.18000000000000008,0.25000000000000006,0.5133333333333336,0.6675000000000004
6,11,21,1,15,0.7400000000000004,2,3,21,26,24,64,2.6300000000000017,0.5100000000000002,0.23000000000000007,0.6700000000000004,4,3,1,2,5,3,1,3,4,0,21,7,L,0.5260000000000004,0.17000000000000007,0.23000000000000007,0.22333333333333338
6,11,22,1,7,0.37000000000000016,2,3,76,51,82,59,1.2200000000000006,2.4199999999999924,0.9100000000000006,0.15,3,4,2,1,4,6,2,1,3,0,14,7,L,0.30500000000000016,0.40333333333333354,0.4550000000000003,0.15
6,12,23,1,14,3.3099999999999734,4,5,85,23,87,59,6.48999999999995,0.46000000000000024,0.4000000000000002,0.49000000000000027,7,3,1,1,9,3,1,1,5,0,16,7,L,0.7211111111111087,0.15333333333333338,0.4000000000000002,0.49000000000000027
6,12,24,1,15,0.6700000000000004,2,4,62,76,68,65,2.9499999999999957,0.20000000000000004,0.9900000000000007,1.2300000000000009,4,1,3,3,7,1,5,3,4,0.5,27,7,L,0.42142857142857165,0.20000000000000004,0.19800000000000006,0.41000000000000025
6,13,25,1,3,0.21000000000000005,1,2,106,64,10,6,2.9399999999999857,0.35000000000000014,0.7100000000000004,0.49000000000000027,4,1,2,2,7,1,2,2,5,0,18,7,L,0.4200000000000002,0.35000000000000014,0.35500000000000015,0.24500000000000005
6,13,26,1,14,0.09999999999999999,2,2,16,51,114,23,33.110000000002,0.01,0.07,0.01,20,1,2,1,57,1,2,1,5,0,18,7,L,0.5808771929824561,0.01,0.035,0.01
6,14,27,1,4,0.34000000000000014,1,2,29,68,61,86,3.129999999999985,0.45000000000000023,0.36000000000000015,0.38000000000000017,5,2,2,2,6,2,4,4,2,0,16,7,L,0.521666666666667,0.22500000000000006,0.09000000000000002,0.095
6,14,28,1,6,0.6300000000000003,3,5,111,11,49,81,3.1899999999999897,1.420000000000001,0.08,0.05,8,3,1,1,11,4,1,1,4,0,15,7,L,0.29000000000000015,0.35500000000000015,0.08,0.05
6,15,29,1,6,1.9500000000000015,7,8,26,77,110,80,2.7100000000000017,2.6399999999999877,0.17,0.16,9,3,1,2,10,5,1,2,4,0,13,7,L,0.27100000000000013,0.5280000000000002,0.17,0.07999999999999999
6,15,30,1,15,0.19000000000000003,2,2,3,5,92,88,6.859999999999903,0.02,0.01,2.020000000000001,13,1,1,2,15,1,1,2,4,0,18,7,L,0.4573333333333336,0.02,0.01,1.0100000000000005
6,16,31,1,11,0.7300000000000004,2,4,120,69,8,65,2.82,0.5600000000000003,0.7600000000000005,0.25000000000000006,6,1,3,1,9,1,4,1,2,0,16,7,L,0.31333333333333346,0.5600000000000003,0.19000000000000009,0.25000000000000006
6,16,32,1,6,0.8400000000000005,2,4,54,18,57,73,2.959999999999999,0.9100000000000006,0.3100000000000001,0.2700000000000001,6,2,2,2,9,2,2,2,4,0,17,7,L,0.32888888888888906,0.45500000000000024,0.155,0.135
6,17,33,1,14,0.37000000000000016,2,4,57,43,41,49,2.8899999999999904,0.26000000000000006,2.2699999999999956,0.23000000000000007,4,2,6,1,6,2,6,1,5,0,18,7,L,0.4816666666666663,0.13,0.3783333333333335,0.23000000000000007
6,17,34,1,11,0.6100000000000003,7,8,110,8,119,7,1.690000000000001,1.340000000000001,0.6000000000000003,0.35000000000000014,9,2,2,1,10,2,2,1,2,0,16,7,L,0.16900000000000007,0.6700000000000004,0.3000000000000001,0.35000000000000014
6,18,35,1,10,0.7000000000000004,2,5,6,72,79,2,3.3799999999999875,16.649999999999803,0.01,0.01,7,10,1,1,11,21,1,1,6,0,19,7,L,0.3072727272727274,0.7928571428571418,0.01,0.01
6,18,36,1,12,5.489999999999927,5,11,59,92,87,52,6.529999999999928,0.5600000000000003,0.060000000000000005,0.4200000000000002,6,1,1,1,12,1,1,1,3,0,14,7,L,0.5441666666666665,0.5600000000000003,0.060000000000000005,0.4200000000000002
6,19,37,1,6,1.1100000000000008,2,4,5,113,109,37,3.5699999999999923,1.7800000000000014,0.6300000000000003,0.03,7,4,2,1,12,4,2,1,4,0,15,7,L,0.29750000000000015,0.44500000000000023,0.3150000000000001,0.03
6,19,38,1,12,1.1100000000000008,2,8,61,29,26,25,4.60999999999997,0.11999999999999998,0.09,0.10999999999999999,8,2,1,1,17,2,1,1,3,0.5,34,7,L,0.2711764705882354,0.06,0.09,0.10999999999999999
6,20,39,1,6,1.5500000000000012,3,5,58,118,46,7,3.3900000000000023,0.34000000000000014,2.6599999999999873,0.09,5,1,3,1,8,1,3,1,4,0,17,7,L,0.42375000000000024,0.34000000000000014,0.8866666666666673,0.09
6,20,40,1,15,1.0400000000000007,6,9,34,108,89,66,2.800000000000002,0.7500000000000004,0.3200000000000001,0.16,12,1,2,1,17,1,2,1,4,0,14,7,L,0.16470588235294123,0.7500000000000004,0.16000000000000003,0.16
6,21,41,1,6,0.6500000000000004,2,3,52,84,115,54,3.059999999999993,1.0500000000000007,0.23000000000000007,1.1600000000000008,6,2,1,2,10,2,1,2,4,0,13,7,L,0.30600000000000016,0.5250000000000002,0.23000000000000007,0.5800000000000004
6,21,42,1,15,0.5000000000000002,3,4,68,21,85,102,15.489999999999725,1.380000000000001,1.1000000000000008,0.01,15,7,4,1,30,7,4,1,4,0,15,7,L,0.5163333333333336,0.1971428571428572,0.27500000000000013,0.01
7,1,1,0,5,0.24000000000000007,2,3,7,90,12,4,3.9699999999999647,0.5600000000000003,0.24000000000000007,0.25000000000000006,4,2,1,1,31,5,1,1,6,0.5,39,7,L,0.12806451612903227,0.11200000000000002,0.24000000000000007,0.25000000000000006
7,1,2,0,9,0.3100000000000001,2,6,65,62,77,101,3.209999999999982,0.34000000000000014,3.4499999999999704,1.5800000000000012,4,1,3,3,25,1,12,6,4,0,13,7,L,0.12840000000000004,0.34000000000000014,0.28750000000000014,0.2633333333333334
7,2,3,0,9,0.17,1,2,70,31,65,67,3.7099999999999684,0.8100000000000005,0.18000000000000002,0.15,3,2,1,1,26,2,1,1,4,0.5,29,7,L,0.14269230769230773,0.40500000000000025,0.18000000000000002,0.15
7,2,4,0,6,0.23000000000000007,2,5,59,94,111,46,3.0299999999999843,1.1400000000000008,1.9100000000000015,0.09999999999999999,4,2,2,1,19,6,10,1,4,0,14,7,L,0.15947368421052638,0.19000000000000006,0.19100000000000003,0.09999999999999999
7,3,5,0,4,0.2800000000000001,2,3,101,107,100,4,3.4099999999999775,0.37000000000000016,0.7800000000000005,1.1600000000000008,4,1,2,2,23,1,6,8,2,0.5,18,7,L,0.14826086956521742,0.37000000000000016,0.13,0.14500000000000005
7,3,6,0,8,0.26000000000000006,2,4,110,119,50,55,3.1599999999999824,0.5300000000000002,0.7000000000000004,0.7200000000000004,4,2,3,2,20,5,6,4,2,0,12,7,L,0.15800000000000006,0.10600000000000004,0.11666666666666668,0.18000000000000002
7,4,7,0,2,0.22000000000000006,2,3,78,79,63,102,2.5999999999999934,1.7200000000000013,1.1500000000000008,1.2100000000000009,5,2,2,2,11,15,5,7,3,0,12,7,L,0.23636363636363647,0.11466666666666668,0.23000000000000007,0.17285714285714293
7,4,8,0,8,0.22000000000000006,2,4,118,115,30,60,2.939999999999986,1.1900000000000008,1.2100000000000009,0.2700000000000001,4,2,2,2,12,7,13,3,2,0,13,7,L,0.2450000000000001,0.17,0.0930769230769231,0.09
7,5,9,0,5,0.21000000000000005,2,3,7,11,2,46,2.879999999999987,1.7600000000000013,11.189999999999806,0.13999999999999999,5,2,14,2,13,13,70,2,6,0.5,41,7,L,0.2215384615384616,0.1353846153846154,0.1598571428571429,0.07
7,5,10,0,6,0.6100000000000003,2,8,30,55,31,58,4.639999999999959,0.9000000000000006,0.6900000000000004,0.5300000000000002,6,2,2,2,28,6,4,7,4,0,18,7,L,0.16571428571428576,0.15000000000000002,0.17250000000000004,0.07571428571428572
7,6,11,0,9,0.2800000000000001,2,5,69,115,95,48,4.499999999999955,0.8100000000000005,1.0400000000000007,0.5000000000000002,4,2,2,2,26,8,7,4,4,0,14,7,L,0.17307692307692313,0.10125,0.14857142857142858,0.12500000000000003
7,6,12,0,4,0.21000000000000005,2,5,107,27,22,100,2.6199999999999926,1.280000000000001,8.329999999999867,0.05,4,2,7,1,25,5,37,1,2,0,15,7,L,0.1048,0.2560000000000001,0.2251351351351352,0.05
7,7,13,1,3,0.25000000000000006,2,4,25,29,77,80,3.5199999999999743,0.3300000000000001,0.8500000000000005,0.24000000000000007,4,1,2,1,19,1,8,1,5,0,16,7,L,0.18526315789473688,0.3300000000000001,0.10625,0.24000000000000007
7,7,14,1,15,0.25000000000000006,2,4,64,63,88,71,3.629999999999972,0.4000000000000002,0.48000000000000026,0.5200000000000002,4,2,1,3,20,3,1,6,4,0.5,27,7,L,0.18150000000000005,0.1333333333333334,0.48000000000000026,0.08666666666666667
7,8,15,1,11,0.34000000000000014,2,5,111,112,110,32,3.5599999999999756,0.5300000000000002,0.3300000000000001,0.6700000000000004,4,2,1,2,23,3,1,7,2,0.5,17,7,L,0.15478260869565222,0.17666666666666675,0.3300000000000001,0.09571428571428571
7,8,16,1,10,0.36000000000000015,3,7,6,11,41,1,2.8799999999999906,1.420000000000001,0.3900000000000002,6.019999999999916,5,2,1,4,20,9,2,31,6,0.5,41,7,L,0.14400000000000004,0.1577777777777778,0.195,0.19419354838709682
7,9,17,1,13,0.2700000000000001,2,4,18,24,15,21,3.8499999999999677,0.23000000000000007,1.1800000000000008,9.309999999999846,4,1,2,10,21,1,6,56,6,1,72,7,L,0.18333333333333338,0.23000000000000007,0.19666666666666674,0.16625000000000004
7,9,18,1,12,0.21000000000000005,2,4,88,92,103,97,3.639999999999971,0.3000000000000001,1.1900000000000008,1.1500000000000008,4,1,2,2,29,2,4,6,3,0,10,7,L,0.12551724137931036,0.15000000000000002,0.29750000000000015,0.19166666666666674
7,10,19,1,6,0.35000000000000014,2,5,52,39,44,89,3.879999999999969,1.0600000000000007,0.4000000000000002,0.2700000000000001,4,2,1,3,31,5,1,3,4,0,17,7,L,0.12516129032258067,0.21200000000000008,0.4000000000000002,0.09000000000000002
7,10,20,1,7,0.21000000000000005,2,4,76,77,82,30,3.019999999999984,1.290000000000001,0.2700000000000001,0.8100000000000005,4,2,2,2,23,9,2,11,3,0.5,23,7,L,0.131304347826087,0.14333333333333337,0.13500000000000004,0.07363636363636362
7,11,21,1,7,0.25000000000000006,2,3,79,98,80,103,3.619999999999972,0.6600000000000004,0.26000000000000006,0.37000000000000016,4,2,2,1,21,5,3,1,3,0,10,7,L,0.1723809523809524,0.132,0.08666666666666667,0.37000000000000016
7,11,22,1,13,0.20000000000000004,2,4,18,15,96,35,3.0799999999999828,0.7200000000000004,2.0799999999999996,0.4400000000000002,4,2,2,2,20,5,14,6,6,0,20,7,L,0.15400000000000005,0.14400000000000002,0.1485714285714286,0.07333333333333333
7,12,23,1,12,0.49000000000000027,4,6,92,59,89,49,4.519999999999959,0.7500000000000004,1.7400000000000013,0.4100000000000002,6,2,4,2,28,3,13,5,3,0,14,7,L,0.16142857142857148,0.2500000000000001,0.13384615384615386,0.082
7,12,24,1,7,0.4200000000000002,2,4,73,8,31,30,4.459999999999958,2.1799999999999975,0.17,0.37000000000000016,4,2,2,2,34,12,2,3,3,0,19,7,L,0.1311764705882353,0.1816666666666667,0.08499999999999999,0.12333333333333334
7,13,25,1,4,0.34000000000000014,2,3,99,74,77,76,2.1300000000000017,1.9100000000000015,1.0300000000000007,0.12999999999999998,4,3,5,1,8,10,9,1,2,0.5,20,7,L,0.2662500000000001,0.19100000000000006,0.11444444444444446,0.12999999999999998
7,13,26,1,6,0.20000000000000004,2,3,56,87,55,58,3.6999999999999695,0.7300000000000004,0.25000000000000006,0.7400000000000004,5,2,2,2,18,6,3,4,4,0.5,27,7,L,0.20555555555555563,0.12166666666666671,0.08333333333333334,0.18500000000000005
7,14,27,1,15,0.19000000000000003,2,3,81,66,34,28,3.1099999999999817,0.36000000000000015,2.1899999999999973,0.22000000000000006,4,1,4,2,18,1,15,2,4,0,17,7,L,0.17277777777777784,0.36000000000000015,0.14600000000000002,0.11000000000000001
7,14,28,1,11,0.18000000000000002,2,4,116,86,112,94,3.569999999999972,0.7000000000000004,0.8700000000000006,1.5300000000000011,4,2,2,4,28,2,7,8,2,0,10,7,L,0.1275,0.3500000000000002,0.12428571428571432,0.19125000000000006
7,15,29,1,13,0.22000000000000006,2,3,85,23,24,69,3.379999999999977,1.1900000000000008,0.19000000000000003,3.789999999999963,4,3,2,7,16,6,3,14,6,0,19,7,L,0.21125000000000008,0.1983333333333334,0.06333333333333332,0.27071428571428585
7,15,30,1,6,0.15,2,3,52,55,76,83,2.4599999999999946,1.490000000000001,0.20000000000000004,0.6900000000000004,6,2,1,2,17,9,1,6,4,0,14,7,L,0.1447058823529412,0.1655555555555556,0.20000000000000004,0.11499999999999999
7,16,31,1,6,0.3200000000000001,2,3,58,20,86,35,4.439999999999957,1.5900000000000012,0.2700000000000001,0.2900000000000001,4,2,2,2,29,14,5,3,4,0,18,7,L,0.15310344827586211,0.11357142857142859,0.054,0.09666666666666665
7,16,32,1,7,0.4200000000000002,2,7,80,79,77,76,3.6499999999999755,1.0300000000000007,0.17,1.2500000000000009,7,5,1,7,23,6,1,9,3,1,36,7,L,0.1586956521739131,0.1716666666666667,0.17,0.13888888888888892
7,17,33,1,15,0.2800000000000001,2,3,69,29,14,104,3.6999999999999713,0.6800000000000004,0.38000000000000017,0.5000000000000002,4,2,1,2,19,4,1,9,4,0,17,7,L,0.1947368421052632,0.17000000000000007,0.38000000000000017,0.05555555555555555
7,17,34,1,14,0.25000000000000006,2,3,43,1,6,7,3.909999999999966,3.519999999999969,0.6900000000000004,0.4200000000000002,5,6,3,2,23,24,7,2,5,0.5,41,7,L,0.17000000000000004,0.1466666666666667,0.0985714285714286,0.21000000000000008
7,18,35,1,10,0.23000000000000007,2,4,33,11,28,104,3.799999999999968,0.23000000000000007,1.2200000000000009,4.7799999999999425,4,1,3,4,21,1,5,29,6,0,18,7,L,0.180952380952381,0.23000000000000007,0.24400000000000008,0.1648275862068966
7,18,36,1,12,0.22000000000000006,2,3,93,87,20,69,3.6299999999999715,0.8800000000000006,1.7900000000000014,1.1300000000000008,4,2,7,4,26,11,15,5,3,0,16,7,L,0.13961538461538464,0.08,0.11933333333333336,0.2260000000000001
7,19,37,1,14,0.4000000000000002,2,5,45,42,99,97,2.799999999999993,0.7300000000000004,0.45000000000000023,0.35000000000000014,4,3,2,1,19,8,3,1,5,0,14,7,L,0.1473684210526316,0.09125,0.15000000000000005,0.35000000000000014
7,19,38,1,12,0.2700000000000001,2,3,92,89,93,27,2.4899999999999967,1.440000000000001,0.6800000000000004,1.8300000000000014,4,2,2,5,12,5,8,11,3,0.5,23,7,L,0.20750000000000007,0.2880000000000001,0.085,0.16636363636363638
7,20,39,1,12,0.26000000000000006,2,6,92,3,96,94,3.6699999999999715,0.4100000000000002,0.5600000000000003,0.19000000000000003,4,2,2,1,24,2,3,1,3,0.5,24,7,L,0.1529166666666667,0.20500000000000007,0.18666666666666673,0.19000000000000003
7,20,40,1,3,0.4400000000000002,3,4,73,35,28,64,4.829999999999951,0.6600000000000004,0.5300000000000002,0.20000000000000004,6,2,4,3,29,3,4,4,5,0,17,7,L,0.16655172413793107,0.22000000000000006,0.13250000000000003,0.049999999999999996
7,21,41,1,7,0.4000000000000002,2,6,77,16,45,83,3.5399999999999774,2.619999999999988,0.7200000000000004,0.4200000000000002,4,5,3,2,18,17,4,2,3,0,17,7,L,0.19666666666666674,0.15411764705882355,0.18000000000000005,0.21000000000000008
7,21,42,1,3,0.5200000000000002,3,6,27,30,96,61,5.339999999999942,0.37000000000000016,1.6700000000000013,0.22000000000000006,5,1,3,2,36,1,12,3,5,0,17,7,L,0.14833333333333337,0.37000000000000016,0.1391666666666667,0.07333333333333335
8,1,1,0,5,0.20000000000000004,2,3,2,5,94,115,0.4900000000000001,0.04,0.10999999999999999,0.11999999999999998,4,1,2,1,6,1,2,1,6,0,17,7,L,0.08166666666666667,0.04,0.05500000000000001,0.11999999999999998
8,1,2,0,10,0.23000000000000007,5,6,14,21,22,108,0.5100000000000001,0.01,0.09999999999999999,0.07,7,1,1,1,8,1,2,1,6,0.5,38,7,L,0.06375,0.01,0.049999999999999996,0.07
8,2,3,0,3,0.26000000000000006,5,5,92,93,97,41,1.2700000000000007,0.05,0.05,0.12999999999999998,7,2,2,1,12,2,2,1,5,0,13,7,L,0.10583333333333335,0.025,0.025,0.12999999999999998
8,2,4,0,8,0.19000000000000003,2,3,119,33,81,74,0.4200000000000001,0.11999999999999998,0.6100000000000003,0.3000000000000001,4,1,2,3,5,1,3,3,2,0,13,7,L,0.084,0.11999999999999998,0.2033333333333334,0.10000000000000002
8,3,5,0,8,0.19000000000000003,2,3,116,92,23,115,0.4600000000000001,0.03,0.19000000000000003,0.04,4,1,1,1,7,1,1,1,2,0,13,7,L,0.06571428571428571,0.03,0.19000000000000003,0.04
8,3,6,0,4,0.38000000000000017,12,12,106,108,102,82,0.5700000000000002,0.23000000000000007,0.02,0.10999999999999999,13,2,1,1,13,3,1,1,2,0.5,15,7,L,0.04384615384615385,0.07666666666666666,0.02,0.10999999999999999
8,4,7,0,2,0.19000000000000003,2,3,79,12,109,30,0.36000000000000004,0.22000000000000006,1.370000000000001,0.01,4,2,3,1,5,3,4,1,3,0,16,7,L,0.07200000000000001,0.07333333333333333,0.34250000000000014,0.01
8,4,8,0,4,0.22000000000000006,2,3,103,20,47,42,0.4400000000000001,0.17,0.07,0.02,4,1,1,1,5,1,1,1,2,0,18,7,L,0.088,0.17,0.07,0.02
8,5,9,0,6,0.3200000000000001,7,8,49,80,60,117,0.4200000000000001,0.35000000000000014,0.6300000000000003,0.11999999999999998,8,2,2,1,9,2,2,1,4,0,13,7,L,0.04666666666666667,0.17500000000000002,0.31500000000000017,0.11999999999999998
8,5,10,0,1,0.36000000000000015,12,13,28,93,108,19,0.5400000000000001,0.9500000000000006,0.01,0.23000000000000007,13,3,1,2,14,6,1,2,5,0,16,7,L,0.038571428571428576,0.15833333333333335,0.01,0.11500000000000002
8,6,11,0,8,0.19000000000000003,2,3,117,3,115,45,0.30000000000000004,0.2700000000000001,0.05,0.12999999999999998,3,1,1,1,4,1,1,1,2,0,15,7,L,0.075,0.2700000000000001,0.05,0.12999999999999998
8,6,12,0,6,0.18000000000000002,2,3,56,17,96,107,0.5500000000000002,0.09999999999999999,0.04,0.04,4,1,1,1,5,1,1,1,4,0,15,7,L,0.11000000000000003,0.09999999999999999,0.04,0.04
8,7,13,1,12,0.12999999999999998,2,3,92,38,69,47,0.5200000000000001,0.21000000000000005,0.08,1.0500000000000007,4,2,2,3,5,4,2,3,3,0,17,7,L,0.10400000000000004,0.05249999999999999,0.04,0.35000000000000026
8,7,14,1,7,0.22000000000000006,1,2,80,53,27,6,0.5300000000000001,0.060000000000000005,0.13999999999999999,0.12999999999999998,3,1,2,2,4,1,2,2,3,0,18,7,L,0.1325,0.060000000000000005,0.07,0.065
8,8,15,1,10,0.2800000000000001,5,6,12,114,89,34,0.6400000000000002,0.18000000000000002,0.20000000000000004,0.11999999999999998,7,2,2,2,8,2,2,4,6,0,16,7,L,0.08000000000000002,0.09,0.10000000000000002,0.03
8,8,16,1,13,0.21000000000000005,2,4,83,21,67,65,0.4900000000000001,0.05,0.12999999999999998,0.6800000000000004,3,1,1,2,5,1,1,2,6,0,17,7,L,0.09800000000000002,0.05,0.12999999999999998,0.3400000000000002
8,9,17,1,12,0.25000000000000006,2,4,94,104,22,66,0.6400000000000002,0.01,0.09999999999999999,0.09999999999999999,4,1,1,1,6,1,1,1,3,0,15,7,L,0.1066666666666667,0.01,0.09999999999999999,0.09999999999999999
8,9,18,1,7,0.4100000000000002,5,7,74,38,59,37,0.6400000000000002,0.16,0.13999999999999999,0.4100000000000002,7,2,1,3,9,2,1,4,3,0,17,7,L,0.07111111111111111,0.07999999999999999,0.13999999999999999,0.10250000000000002
8,10,19,1,6,0.20000000000000004,2,4,56,59,1,92,0.35000000000000003,0.11999999999999998,0.17,0.05,3,1,1,1,5,1,1,1,4,0,17,7,L,0.06999999999999999,0.11999999999999998,0.17,0.05
8,10,20,1,15,0.20000000000000004,2,4,70,33,35,118,0.45000000000000007,0.07,0.07,0.34000000000000014,4,1,1,2,6,1,1,2,4,0,16,7,L,0.075,0.07,0.07,0.17000000000000007
8,11,21,1,7,0.3300000000000001,2,4,73,31,21,113,0.5800000000000002,0.09999999999999999,0.18000000000000002,0.05,4,1,2,1,6,1,3,1,3,0,16,7,L,0.09666666666666666,0.09999999999999999,0.06,0.05
8,11,22,1,14,0.13999999999999999,2,2,42,44,87,98,1.8000000000000012,0.01,0.01,0.01,5,1,1,1,10,1,1,1,5,0,15,7,L,0.18000000000000005,0.01,0.01,0.01
8,12,23,1,14,0.2800000000000001,2,5,47,95,59,85,0.7500000000000003,0.23000000000000007,0.6400000000000003,0.01,4,2,2,1,8,2,3,1,5,0,15,7,L,0.09375000000000001,0.11500000000000002,0.2133333333333334,0.01
8,12,24,1,10,0.24000000000000007,2,3,9,3,29,1,0.4200000000000001,0.2700000000000001,0.060000000000000005,0.05,4,2,1,1,5,3,1,1,6,0.5,41,7,L,0.084,0.09,0.060000000000000005,0.05
8,13,25,1,6,0.21000000000000005,2,3,56,21,23,54,0.4800000000000001,0.08,0.19000000000000003,0.03,4,1,1,1,7,1,1,1,4,0,20,7,L,0.06857142857142857,0.08,0.19000000000000003,0.03
8,13,26,1,10,0.20000000000000004,2,3,65,74,33,61,0.6400000000000002,0.09,0.37000000000000016,0.01,5,2,2,1,6,2,2,1,6,0,16,7,L,0.10666666666666669,0.045,0.18500000000000008,0.01
8,14,27,1,4,0.17,2,4,63,106,4,10,0.5000000000000001,0.03,0.09999999999999999,0.09,4,1,1,2,7,1,1,2,2,0,18,7,L,0.07142857142857142,0.03,0.09999999999999999,0.045
8,14,28,1,3,0.25000000000000006,2,4,35,21,19,82,0.4900000000000001,0.11999999999999998,0.18000000000000002,0.01,4,1,2,1,6,1,3,1,5,0,20,7,L,0.08166666666666667,0.11999999999999998,0.06,0.01
8,15,29,1,14,0.2800000000000001,6,7,42,41,21,43,0.4600000000000001,0.9100000000000006,0.02,0.08,8,3,1,1,9,4,1,1,5,0.5,36,7,L,0.051111111111111114,0.2275000000000001,0.02,0.08
8,15,30,1,11,0.13999999999999999,1,2,119,114,9,73,0.45000000000000007,0.01,0.12999999999999998,0.05,3,1,1,1,6,1,1,1,2,0,13,7,L,0.075,0.01,0.12999999999999998,0.05
8,16,31,1,4,0.22000000000000006,3,4,103,66,67,82,0.4100000000000001,0.15,0.10999999999999999,0.9300000000000006,5,1,2,4,6,1,2,5,2,0,13,7,L,0.06833333333333333,0.15,0.055,0.18600000000000005
8,16,32,1,12,0.18000000000000002,1,2,96,111,86,53,0.39000000000000007,0.26000000000000006,0.060000000000000005,0.05,3,2,1,1,4,2,1,1,3,0,12,7,L,0.0975,0.12999999999999998,0.060000000000000005,0.05
8,17,33,1,3,0.22000000000000006,2,3,32,27,2,53,0.4900000000000001,0.04,0.15,0.05,3,1,2,1,4,1,3,1,5,0,20,7,L,0.12250000000000001,0.04,0.05,0.05
8,17,34,1,12,0.35000000000000014,10,12,87,69,24,17,0.6500000000000002,1.0400000000000007,0.01,0.4100000000000002,12,2,1,2,15,2,1,2,3,0,19,7,L,0.043333333333333335,0.5200000000000004,0.01,0.2050000000000001
8,18,35,1,12,0.19000000000000003,2,3,89,93,49,33,0.4300000000000001,0.05,0.11999999999999998,0.07,4,1,1,1,5,1,1,1,3,0,15,7,L,0.08600000000000001,0.05,0.11999999999999998,0.07
8,18,36,1,4,0.3200000000000001,5,6,104,98,84,38,0.3900000000000001,0.2700000000000001,0.07,0.12999999999999998,6,2,1,1,7,2,1,1,2,0,12,7,L,0.05571428571428571,0.135,0.07,0.12999999999999998
8,19,37,1,7,0.22000000000000006,4,5,79,81,30,66,0.46000000000000013,0.060000000000000005,0.060000000000000005,0.10999999999999999,5,1,1,1,6,1,1,1,3,0,15,7,L,0.07666666666666667,0.060000000000000005,0.060000000000000005,0.10999999999999999
8,19,38,1,13,0.2800000000000001,2,3,19,106,59,14,0.4700000000000001,0.18000000000000002,0.09999999999999999,0.04,4,2,1,1,5,3,1,1,6,0,18,7,L,0.094,0.06,0.09999999999999999,0.04
8,20,39,1,3,0.22000000000000006,2,3,28,31,5,103,0.4400000000000001,0.10999999999999999,0.19000000000000003,0.02,3,1,2,1,4,1,2,1,5,0,18,7,L,0.11000000000000001,0.10999999999999999,0.095,0.02
8,20,40,1,14,0.18000000000000002,2,3,41,115,110,79,0.38000000000000006,0.2900000000000001,0.060000000000000005,0.03,4,2,1,1,5,2,1,1,5,0,12,7,L,0.076,0.14500000000000002,0.060000000000000005,0.03
8,21,41,1,14,0.3200000000000001,8,9,42,40,53,9,0.6300000000000002,0.03,1.1000000000000008,0.01,10,1,3,1,11,1,3,1,5,0,20,7,L,0.05727272727272728,0.03,0.3666666666666669,0.01
8,21,42,1,11,0.19000000000000003,2,3,116,36,35,61,0.34,0.26000000000000006,0.10999999999999999,0.02,4,2,2,1,5,2,2,1,2,0,16,7,L,0.068,0.13000000000000003,0.05500000000000001,0.02
8,22,43,1,6,0.23000000000000007,2,3,101,60,21,16,0.5600000000000002,0.07,0.2700000000000001,0.01,3,1,2,1,4,1,3,1,4,0,18,7,L,0.14000000000000004,0.07,0.09000000000000002,0.01
8,22,44,1,14,0.19000000000000003,3,3,96,48,91,86,1.3100000000000007,0.46000000000000024,0.01,0.060000000000000005,6,2,1,1,8,2,1,1,5,0.5,23,7,L,0.16375000000000003,0.23000000000000012,0.01,0.060000000000000005
9,1,1,0,1,0.21000000000000005,2,5,27,36,2,32,0.4100000000000001,0.05,0.16,0.05,4,1,2,1,7,1,2,1,5,0.5,36,7,L,0.05857142857142857,0.05,0.08,0.05
9,1,2,0,8,0.17,2,3,118,116,115,96,0.33,0.05,0.09999999999999999,0.07,3,1,1,1,4,1,1,1,2,0.5,15,7,L,0.0825,0.05,0.09999999999999999,0.07
9,2,3,0,9,0.17,2,5,68,90,69,37,0.26,0.18000000000000002,0.060000000000000005,0.12999999999999998,3,1,1,2,6,1,1,2,4,0,16,7,L,0.043333333333333335,0.18000000000000002,0.060000000000000005,0.065
9,2,4,0,6,0.18000000000000002,1,2,49,35,73,81,0.32,0.18000000000000002,0.17,0.060000000000000005,3,1,2,1,4,1,3,1,4,0,15,7,L,0.08,0.18000000000000002,0.056666666666666664,0.060000000000000005
9,3,5,0,10,0.18000000000000002,2,3,24,116,96,47,0.29000000000000004,0.3000000000000001,0.03,0.060000000000000005,4,2,1,3,5,5,1,3,6,0,16,7,L,0.058,0.060000000000000005,0.03,0.02
9,3,6,0,4,0.25000000000000006,2,3,4,97,108,31,0.5500000000000002,0.02,0.08,0.05,3,1,1,1,4,1,1,1,2,0,15,7,L,0.1375,0.02,0.08,0.05
9,4,7,0,3,0.23000000000000007,2,5,39,70,84,119,0.5100000000000001,0.17,0.01,0.05,4,2,1,1,7,2,1,1,5,0,14,7,L,0.07285714285714287,0.08499999999999999,0.01,0.05
9,4,8,0,10,0.18000000000000002,2,3,13,22,20,54,0.39000000000000007,0.03,0.07,0.6700000000000004,3,1,1,2,4,1,1,6,6,0.5,40,7,L,0.09750000000000002,0.03,0.07,0.11166666666666669
9,5,9,0,5,0.22000000000000006,2,6,8,36,5,31,0.4400000000000001,0.17,0.05,1.260000000000001,4,2,1,6,10,2,1,9,6,0,22,7,L,0.044,0.08499999999999999,0.05,0.14000000000000004
9,5,10,0,7,0.24000000000000007,2,3,90,88,55,112,0.4100000000000001,0.10999999999999999,0.04,0.17,4,2,1,2,5,3,1,2,3,0,12,7,L,0.082,0.03666666666666667,0.04,0.08499999999999999
9,6,11,0,4,0.26000000000000006,2,4,104,49,5,50,0.41000000000000003,0.25000000000000006,0.01,0.04,4,2,1,1,6,4,1,1,2,0,16,7,L,0.06833333333333333,0.0625,0.01,0.04
9,6,12,0,9,0.21000000000000005,2,5,69,113,24,63,0.33,0.38000000000000017,0.03,0.2700000000000001,4,3,1,2,7,3,1,2,4,0,16,7,L,0.047142857142857146,0.12666666666666668,0.03,0.13500000000000004
9,7,13,1,7,0.23000000000000007,2,5,74,111,45,82,0.5300000000000001,0.05,0.08,0.02,4,1,2,1,8,1,2,1,3,0,13,7,L,0.06625,0.05,0.04,0.02
9,7,14,1,12,0.22000000000000006,2,3,96,94,62,95,0.4800000000000001,0.02,0.13999999999999999,0.02,4,1,2,1,5,1,2,1,3,0.5,22,7,L,0.09600000000000002,0.02,0.07,0.02
9,8,15,1,15,0.19000000000000003,2,3,65,62,108,32,0.38000000000000006,0.15,0.01,0.13999999999999999,4,2,1,2,7,5,1,2,4,0,15,7,L,0.05428571428571429,0.030000000000000002,0.01,0.07
9,8,16,1,10,0.24000000000000007,2,6,10,8,52,51,0.4400000000000001,0.01,0.37000000000000016,0.26000000000000006,4,1,2,3,11,1,4,5,6,0,20,7,L,0.04,0.01,0.0925,0.052
9,9,17,1,12,0.19000000000000003,2,3,96,89,85,42,0.35000000000000003,0.09,0.09,0.060000000000000005,4,1,1,1,5,1,1,1,3,0.5,23,7,L,0.07,0.09,0.09,0.060000000000000005
9,9,18,1,3,0.22000000000000006,3,5,34,113,82,19,0.34,0.19000000000000003,0.10999999999999999,0.09,5,2,1,1,7,4,1,1,5,0,16,7,L,0.04857142857142857,0.0475,0.10999999999999999,0.09
9,10,19,1,15,0.2700000000000001,2,5,62,119,83,16,0.5300000000000001,0.23000000000000007,0.02,0.08,4,2,1,1,7,2,1,1,4,0,15,7,L,0.07571428571428572,0.11500000000000003,0.02,0.08
9,10,20,1,4,0.18000000000000002,2,4,99,98,35,91,0.33,0.07,0.25000000000000006,0.03,4,1,2,1,6,1,2,1,2,0,12,7,L,0.055,0.07,0.12499999999999997,0.03
9,11,21,1,13,0.3300000000000001,5,8,13,18,96,115,0.6000000000000002,0.02,2.2699999999999956,0.20000000000000004,7,1,10,1,11,1,14,1,6,0,17,7,L,0.05454545454545454,0.02,0.1621428571428572,0.20000000000000004
9,11,22,1,4,0.21000000000000005,2,4,105,62,70,81,0.4400000000000001,0.07,0.07,0.05,4,2,1,1,6,3,1,1,2,0,13,7,L,0.07333333333333333,0.023333333333333334,0.07,0.05
9,12,23,1,7,0.26000000000000006,3,4,35,83,36,73,0.8700000000000003,0.01,0.03,0.01,4,1,1,1,5,1,1,1,3,0,16,7,L,0.17400000000000007,0.01,0.03,0.01
9,12,24,1,12,0.21000000000000005,2,4,94,69,13,89,0.4000000000000001,0.09999999999999999,0.060000000000000005,0.060000000000000005,4,1,1,1,8,1,1,1,3,0,16,7,L,0.05,0.09999999999999999,0.060000000000000005,0.060000000000000005
9,13,25,1,6,0.18000000000000002,2,3,57,74,84,75,0.4200000000000001,0.07,0.3900000000000002,0.01,4,1,3,1,5,1,4,1,4,0.5,22,7,L,0.084,0.07,0.09750000000000002,0.01
9,13,26,1,12,0.23000000000000007,3,5,90,45,44,23,0.5600000000000002,0.08,0.07,0.26000000000000006,5,1,1,2,9,1,1,2,3,0,19,7,L,0.06222222222222222,0.08,0.07,0.13000000000000003
9,14,27,1,14,0.22000000000000006,2,3,39,110,62,80,0.4200000000000001,0.15,0.060000000000000005,0.09,4,1,1,2,5,1,1,3,5,0,14,7,L,0.08399999999999999,0.15,0.060000000000000005,0.030000000000000002
9,14,28,1,6,0.20000000000000004,2,5,51,89,91,13,0.36000000000000004,0.18000000000000002,0.05,2.769999999999985,4,1,2,7,7,1,2,13,4,0,16,7,L,0.051428571428571435,0.18000000000000002,0.025,0.21307692307692316
9,15,29,1,11,0.20000000000000004,2,3,114,119,70,110,0.34,0.19000000000000003,0.19000000000000003,0.07,4,3,3,2,5,4,3,2,2,0.5,16,7,L,0.068,0.047499999999999994,0.06333333333333332,0.035
9,15,30,1,6,0.21000000000000005,2,4,52,49,47,15,0.37000000000000005,0.09999999999999999,0.13999999999999999,0.03,4,1,2,1,6,1,4,1,4,0,19,7,L,0.06166666666666667,0.09999999999999999,0.035,0.03
9,16,31,1,7,0.26000000000000006,3,5,18,76,111,20,0.5300000000000001,0.04,0.15,0.060000000000000005,4,1,2,1,6,1,2,1,3,0,17,7,L,0.08833333333333335,0.04,0.07500000000000001,0.060000000000000005
9,16,32,1,12,0.18000000000000002,2,3,86,61,34,103,0.3,0.34000000000000014,0.05,0.07,3,3,1,1,4,4,1,1,3,0,14,7,L,0.075,0.08499999999999999,0.05,0.07
9,17,33,1,4,0.17,2,4,104,61,85,25,0.31,0.3200000000000001,0.22000000000000006,0.15,4,1,3,2,6,1,4,2,2,0,14,7,L,0.05166666666666667,0.3200000000000001,0.05499999999999999,0.07499999999999998
9,17,34,1,14,0.22000000000000006,2,5,37,40,109,81,0.34,0.13999999999999999,0.23000000000000007,0.01,4,1,2,1,7,1,2,1,5,0,15,7,L,0.04857142857142857,0.13999999999999999,0.115,0.01
9,18,35,1,15,0.26000000000000006,2,4,69,15,38,103,0.36000000000000004,0.16,0.11999999999999998,0.08,4,1,1,1,6,1,1,1,4,0,17,7,L,0.06,0.16,0.11999999999999998,0.08
9,18,36,1,11,0.08,2,2,114,59,111,89,0.9500000000000005,0.6400000000000003,0.01,0.05,6,6,1,2,10,6,1,2,2,0,11,7,L,0.095,0.10666666666666666,0.01,0.025
9,19,37,1,7,0.22000000000000006,2,4,83,103,81,77,0.30000000000000004,0.3000000000000001,0.38000000000000017,0.23000000000000007,3,2,3,2,5,4,3,3,3,0.5,20,7,L,0.060000000000000005,0.075,0.12666666666666668,0.07666666666666666
9,19,38,1,13,0.20000000000000004,2,3,19,90,43,18,0.35000000000000003,0.12999999999999998,0.08,0.060000000000000005,4,1,1,1,5,1,1,1,6,0,20,7,L,0.07,0.12999999999999998,0.08,0.060000000000000005
9,20,39,1,3,0.21000000000000005,2,6,32,30,116,94,0.37000000000000005,0.09,0.09,0.04,4,1,1,1,8,1,1,1,5,0,15,7,L,0.04625,0.09,0.09,0.04
9,20,40,1,6,0.22000000000000006,2,3,58,53,81,37,0.4800000000000001,0.19000000000000003,0.08,0.04,4,3,1,2,5,4,1,2,4,0,16,7,L,0.09600000000000002,0.0475,0.08,0.02
9,21,41,1,13,0.18000000000000002,2,4,26,22,112,77,0.44000000000000006,0.03,0.04,0.24000000000000007,3,1,1,2,5,1,1,2,6,0,16,7,L,0.08800000000000001,0.03,0.04,0.12000000000000002
9,21,42,1,4,0.21000000000000005,2,3,102,60,37,52,0.4000000000000001,0.09999999999999999,0.07,0.07,4,1,1,1,5,1,1,1,2,0,15,7,L,0.08,0.09999999999999999,0.07,0.07
9,22,43,1,4,0.19000000000000003,2,3,104,101,76,46,0.32,0.10999999999999999,0.21000000000000005,0.04,4,1,2,1,5,1,2,1,2,0,12,7,L,0.064,0.10999999999999999,0.105,0.04
9,22,44,1,11,0.21000000000000005,2,3,119,31,56,28,0.5000000000000001,0.01,0.08,0.07,4,1,1,1,5,1,2,1,2,0,16,7,L,0.1,0.01,0.04,0.07
10,1,1,0,5,0.4100000000000002,2,3,7,52,11,34,2.0000000000000013,0.5600000000000003,0.2700000000000001,0.23000000000000007,4,2,2,1,10,2,2,1,6,0,21,7,L,0.20000000000000004,0.2800000000000001,0.13499999999999998,0.23000000000000007
10,1,2,0,10,0.2900000000000001,2,3,82,75,70,47,3.1399999999999832,0.6200000000000003,0.11999999999999998,0.09999999999999999,6,1,1,1,13,1,1,1,6,0,15,7,L,0.24153846153846162,0.6200000000000003,0.11999999999999998,0.09999999999999999
10,2,3,0,10,0.3100000000000001,2,3,24,13,64,73,2.6699999999999937,1.0000000000000007,0.25000000000000006,0.7500000000000004,8,3,2,2,13,4,2,2,6,0,19,7,L,0.20538461538461544,0.2500000000000001,0.125,0.37500000000000017
10,2,4,0,6,0.3900000000000002,2,4,49,8,88,34,2.2300000000000018,0.5300000000000002,0.24000000000000007,1.9100000000000015,7,2,1,4,10,2,1,5,4,0,18,7,L,0.22300000000000006,0.26500000000000007,0.24000000000000007,0.38200000000000023
10,3,5,0,5,0.4200000000000002,2,3,88,49,86,4,1.9800000000000013,0.35000000000000014,0.8000000000000005,0.10999999999999999,4,1,2,1,7,1,2,1,6,0,16,7,L,0.282857142857143,0.35000000000000014,0.4000000000000002,0.10999999999999999
10,3,6,0,2,0.3200000000000001,2,4,73,84,36,99,1.4200000000000008,1.0400000000000007,0.34000000000000014,0.23000000000000007,5,4,2,1,8,4,2,1,3,0,13,7,L,0.17750000000000005,0.2600000000000001,0.17,0.23000000000000007
10,4,7,0,2,0.7500000000000004,3,4,2,4,37,115,1.630000000000001,1.7700000000000014,0.6300000000000003,0.09999999999999999,4,4,3,1,5,6,7,1,3,0,19,7,L,0.3260000000000001,0.2950000000000001,0.09000000000000001,0.09999999999999999
10,4,8,0,4,0.46000000000000024,2,3,33,103,56,34,1.4500000000000008,0.3100000000000001,0.5400000000000003,0.09,5,1,2,1,8,2,2,1,2,0,16,7,L,0.18125000000000005,0.155,0.2700000000000001,0.09
10,5,9,0,5,0.25000000000000006,2,3,8,6,78,39,3.809999999999968,5.759999999999922,0.07,0.01,6,13,1,1,10,18,1,1,6,0,20,7,L,0.3810000000000002,0.3200000000000002,0.07,0.01
10,5,10,0,7,0.3000000000000001,2,3,53,52,86,60,2.3600000000000003,0.2800000000000001,0.11999999999999998,0.8700000000000006,6,1,3,2,8,2,3,2,3,0.5,27,7,L,0.29500000000000015,0.13999999999999999,0.04,0.4350000000000002
10,6,11,0,10,0.2700000000000001,2,3,71,61,90,19,2.3999999999999986,1.5300000000000011,0.24000000000000007,0.07,6,3,1,2,9,4,1,2,6,0,17,7,L,0.2666666666666668,0.3825000000000002,0.24000000000000007,0.035
10,6,12,0,2,0.7200000000000004,3,5,74,54,118,9,2.0200000000000014,0.7000000000000004,0.25000000000000006,0.09,6,1,1,1,10,1,1,1,3,0,15,7,L,0.20200000000000007,0.7000000000000004,0.25000000000000006,0.09
10,7,13,1,6,0.34000000000000014,1,2,6,117,58,93,1.610000000000001,1.310000000000001,0.09999999999999999,0.20000000000000004,3,3,2,1,5,3,2,1,4,0,15,7,L,0.3220000000000001,0.43666666666666687,0.05,0.20000000000000004
10,7,14,1,14,0.37000000000000016,2,4,47,74,67,80,1.3600000000000008,0.6000000000000003,1.0600000000000007,0.13999999999999999,4,1,2,1,7,1,4,1,5,0,15,7,L,0.19428571428571434,0.6000000000000003,0.2650000000000001,0.13999999999999999
10,8,15,1,6,0.26000000000000006,2,3,54,94,52,42,2.3100000000000005,0.2900000000000001,0.07,0.3300000000000001,6,1,1,2,8,1,1,4,4,0,16,7,L,0.2887500000000002,0.2900000000000001,0.07,0.08249999999999999
10,8,16,1,11,0.38000000000000017,2,4,114,7,67,109,3.9699999999999678,0.13999999999999999,0.04,0.03,9,1,1,1,11,1,1,1,2,0,14,7,L,0.3609090909090906,0.13999999999999999,0.04,0.03
10,9,17,1,14,0.47000000000000025,2,4,45,60,81,100,1.2300000000000006,1.5300000000000011,0.13999999999999999,0.2700000000000001,5,3,1,1,8,7,1,1,5,0,14,7,L,0.15375000000000005,0.21857142857142864,0.13999999999999999,0.2700000000000001
10,9,18,1,11,0.37000000000000016,2,5,119,85,89,110,2.7499999999999933,0.8200000000000005,0.17,0.02,6,3,2,1,9,3,2,1,2,0,10,7,L,0.3055555555555557,0.27333333333333343,0.08499999999999999,0.02
10,10,19,1,6,0.2800000000000001,2,3,55,100,7,87,0.9700000000000004,1.310000000000001,1.8200000000000014,0.04,4,3,3,1,5,3,4,1,4,0,15,7,L,0.19400000000000006,0.43666666666666687,0.4550000000000003,0.04
10,10,20,1,15,0.2900000000000001,2,3,65,117,82,118,0.9100000000000004,1.6100000000000012,1.420000000000001,1.0200000000000007,4,2,2,3,5,2,4,3,4,0,11,7,L,0.18200000000000005,0.8050000000000005,0.35500000000000015,0.34000000000000014
10,11,21,1,15,0.7700000000000005,6,7,40,115,116,118,3.3499999999999894,0.20000000000000004,0.24000000000000007,0.46000000000000024,11,1,2,2,14,1,2,3,4,0.5,17,7,L,0.23928571428571438,0.20000000000000004,0.12,0.15333333333333335
10,11,22,1,10,2.239999999999996,5,7,10,1,101,12,2.8699999999999966,0.9000000000000006,0.18000000000000002,0.04,7,4,2,1,9,4,2,1,6,0.5,38,7,L,0.31888888888888905,0.2250000000000001,0.09000000000000001,0.04
10,12,23,1,4,0.37000000000000016,2,6,91,102,96,93,1.9100000000000013,0.16,1.300000000000001,0.8500000000000005,4,1,3,2,9,1,3,2,2,0.5,20,7,L,0.2122222222222223,0.16,0.43333333333333357,0.42500000000000027
10,12,24,1,7,0.6200000000000003,2,8,64,15,73,118,1.7600000000000011,5.319999999999931,1.1200000000000008,0.01,3,9,3,1,10,15,3,1,3,0,15,7,L,0.17600000000000005,0.35466666666666685,0.3733333333333336,0.01
10,13,25,1,4,0.3200000000000001,2,4,9,89,93,63,1.8100000000000012,0.6700000000000004,0.16,0.22000000000000006,5,2,1,1,7,2,1,1,2,0,16,7,L,0.2585714285714287,0.33500000000000013,0.16,0.22000000000000006
10,13,26,1,7,0.20000000000000004,3,3,14,53,109,59,5.049999999999941,0.01,0.04,0.5600000000000003,11,1,1,3,14,1,1,3,3,0,16,7,L,0.36071428571428577,0.01,0.04,0.18666666666666676
10,14,27,1,3,0.26000000000000006,2,3,35,25,62,7,1.1400000000000006,0.3100000000000001,2.249999999999996,1.7300000000000013,4,1,4,3,6,1,6,3,5,0,20,7,L,0.19000000000000006,0.3100000000000001,0.37500000000000017,0.576666666666667
10,14,28,1,12,0.8000000000000005,3,6,17,94,98,99,7.909999999999894,0.02,0.07,0.01,15,1,1,1,26,1,1,1,3,0,13,7,L,0.30423076923076936,0.02,0.07,0.01
10,15,29,1,3,0.5000000000000002,3,5,33,78,30,81,1.9800000000000013,1.2100000000000009,0.23000000000000007,0.03,6,2,2,1,9,2,4,1,5,0,16,7,L,0.22000000000000006,0.6050000000000003,0.057499999999999996,0.03
10,15,30,1,14,0.21000000000000005,2,3,43,86,41,115,0.8100000000000004,0.8300000000000005,0.25000000000000006,0.7000000000000004,4,2,2,2,5,2,2,3,5,0,15,7,L,0.16200000000000003,0.41500000000000015,0.125,0.2333333333333334
10,16,31,1,6,0.11999999999999998,2,3,58,33,29,20,1.2200000000000006,0.4200000000000002,0.3000000000000001,0.36000000000000015,6,2,2,1,10,2,2,1,4,0,20,7,L,0.12200000000000001,0.21000000000000008,0.15000000000000002,0.36000000000000015
10,16,32,1,10,0.25000000000000006,2,4,4,1,94,63,0.8000000000000003,3.9499999999999598,0.3200000000000001,0.060000000000000005,4,8,2,1,6,12,2,1,6,0,19,7,L,0.13333333333333336,0.32916666666666683,0.16000000000000003,0.060000000000000005
10,17,33,1,6,0.25000000000000006,2,3,54,17,59,13,0.8300000000000003,0.6000000000000003,1.0900000000000007,0.15,4,1,4,1,5,1,6,1,4,0,20,7,L,0.16600000000000004,0.6000000000000003,0.18166666666666673,0.15
10,17,34,1,15,0.36000000000000015,2,5,68,70,63,105,1.690000000000001,0.19000000000000003,0.18000000000000002,0.9300000000000006,4,1,1,4,13,1,1,5,4,0.5,26,7,L,0.13000000000000003,0.19000000000000003,0.18000000000000002,0.18600000000000005
10,18,35,1,7,0.3100000000000001,2,4,13,22,77,72,2.3500000000000005,12.88999999999977,0.20000000000000004,0.01,7,16,2,1,10,32,2,1,3,0,19,7,L,0.2350000000000001,0.4028125000000002,0.1,0.01
10,18,36,1,4,1.0000000000000007,2,4,100,1,99,12,1.9000000000000012,0.5100000000000002,0.08,0.23000000000000007,4,1,1,1,6,1,1,1,2,0,16,7,L,0.3166666666666668,0.5100000000000002,0.08,0.23000000000000007
10,19,37,1,4,0.3300000000000001,2,3,108,29,60,27,1.8100000000000012,0.8700000000000006,0.03,0.4300000000000002,5,2,1,2,9,2,1,3,2,0,16,7,L,0.20111111111111116,0.4350000000000002,0.03,0.14333333333333337
10,19,38,1,11,0.21000000000000005,1,2,110,68,63,70,1.0800000000000005,2.349999999999994,0.3900000000000002,0.25000000000000006,3,3,3,1,4,3,5,1,2,0.5,26,7,L,0.2700000000000001,0.7833333333333339,0.078,0.25000000000000006
10,20,39,1,14,0.26000000000000006,2,3,41,60,49,37,1.710000000000001,0.36000000000000015,0.12999999999999998,0.8400000000000005,5,1,1,2,7,1,1,2,5,0,18,7,L,0.24428571428571436,0.36000000000000015,0.12999999999999998,0.42000000000000026
10,20,40,1,10,0.26000000000000006,2,4,34,71,4,29,4.599999999999952,0.24000000000000007,4.399999999999951,0.01,7,3,7,1,16,4,9,1,6,0,20,7,L,0.28750000000000014,0.06,0.48888888888888915,0.01
10,21,41,1,7,0.18000000000000002,2,3,7,106,84,12,1.4900000000000009,0.7900000000000005,0.08,0.17,5,2,1,2,8,3,1,2,3,0,17,7,L,0.18625000000000005,0.2633333333333334,0.08,0.085
10,21,42,1,13,0.47000000000000025,5,5,15,19,118,95,1.4600000000000009,7.269999999999889,0.01,0.02,7,9,1,1,8,14,1,1,6,0,17,7,L,0.18250000000000005,0.5192857142857145,0.01,0.02
11,1,1,0,4,0.25000000000000006,2,4,101,9,7,78,0.33000000000000007,0.20000000000000004,0.12999999999999998,0.09999999999999999,3,1,2,1,5,1,2,1,2,0,17,7,L,0.066,0.20000000000000004,0.065,0.09999999999999999
11,1,2,0,10,0.21000000000000005,2,3,41,18,15,24,0.4300000000000001,0.02,0.08,0.05,3,1,1,1,4,1,1,1,6,0.5,41,7,L,0.10750000000000001,0.02,0.08,0.05
11,2,3,0,6,0.20000000000000004,2,3,55,15,58,14,0.39000000000000007,0.13999999999999999,0.060000000000000005,0.07,4,1,2,1,5,1,2,1,4,0,20,7,L,0.078,0.13999999999999999,0.030000000000000002,0.07
11,2,4,0,1,0.22000000000000006,2,3,31,83,104,32,0.5100000000000001,0.8900000000000006,0.01,0.01,4,2,1,1,5,2,1,1,5,0,15,7,L,0.10200000000000002,0.4450000000000003,0.01,0.01
11,3,5,0,9,0.18000000000000002,2,3,86,72,71,117,0.4200000000000001,0.01,0.060000000000000005,0.16,3,1,1,2,4,1,1,2,4,0,13,7,L,0.10500000000000002,0.01,0.060000000000000005,0.08
11,3,6,0,3,0.22000000000000006,2,3,40,84,103,42,0.38000000000000006,0.10999999999999999,0.09,0.09999999999999999,4,1,1,2,5,1,1,2,5,0,15,7,L,0.076,0.10999999999999999,0.09,0.05
11,4,7,0,10,0.17,1,2,21,94,89,117,0.23,0.22000000000000006,0.08,0.26000000000000006,2,2,2,1,3,2,2,1,6,0,14,7,L,0.07666666666666666,0.10999999999999999,0.04,0.26000000000000006
11,4,8,0,2,0.2800000000000001,2,5,6,83,39,55,0.5600000000000002,0.02,0.09,0.060000000000000005,3,1,2,1,6,1,2,1,3,0,18,7,L,0.09333333333333335,0.02,0.045,0.060000000000000005
11,5,9,0,1,0.23000000000000007,2,4,26,119,36,113,0.2800000000000001,0.25000000000000006,0.04,0.060000000000000005,3,2,1,1,5,3,1,1,5,0,14,7,L,0.056,0.08333333333333333,0.04,0.060000000000000005
11,5,10,0,4,0.24000000000000007,2,4,52,100,12,8,0.4900000000000001,0.02,0.10999999999999999,0.6300000000000003,3,1,1,1,5,1,1,1,2,0,18,7,L,0.09800000000000002,0.02,0.10999999999999999,0.6300000000000003
11,6,11,0,1,0.20000000000000004,2,3,31,97,98,99,0.4100000000000001,0.08,0.15,0.060000000000000005,4,1,1,1,5,1,1,1,5,0.5,17,7,L,0.082,0.08,0.15,0.060000000000000005
11,6,12,0,8,0.24000000000000007,2,5,120,79,42,113,0.3000000000000001,0.21000000000000005,0.09,0.2800000000000001,4,2,1,1,7,2,1,1,2,0,12,7,L,0.04285714285714286,0.10500000000000001,0.09,0.2800000000000001
11,7,13,1,12,0.22000000000000006,2,3,99,95,66,105,0.4400000000000001,0.02,0.12999999999999998,0.060000000000000005,3,1,1,1,4,1,1,1,3,0,11,7,L,0.11000000000000001,0.02,0.12999999999999998,0.060000000000000005
11,7,14,1,6,0.09,2,2,83,117,47,74,1.2500000000000009,0.23000000000000007,0.13999999999999999,0.02,5,3,1,1,5,3,1,1,4,0,13,7,L,0.2500000000000001,0.07666666666666667,0.13999999999999999,0.02
11,8,15,1,3,0.19000000000000003,2,3,63,35,67,71,0.45000000000000007,0.01,0.13999999999999999,0.05,3,1,1,1,4,1,1,1,5,0.5,29,7,L,0.11250000000000002,0.01,0.13999999999999999,0.05
11,8,16,1,7,0.19000000000000003,2,4,107,74,41,83,0.4300000000000001,0.02,0.08,0.05,3,1,1,1,5,1,1,1,3,0,13,7,L,0.08600000000000002,0.02,0.08,0.05
11,9,17,1,6,0.34000000000000014,8,9,46,60,39,108,0.5800000000000002,0.05,0.08,0.3900000000000002,9,1,1,2,10,1,1,2,4,0,16,7,L,0.05800000000000001,0.05,0.08,0.1950000000000001
11,9,18,1,13,0.22000000000000006,3,4,70,16,71,63,0.5500000000000002,0.01,1.6600000000000013,0.8700000000000006,4,1,5,2,5,1,5,2,6,0.5,30,7,L,0.11000000000000003,0.01,0.33200000000000024,0.4350000000000002
11,10,19,1,12,0.25000000000000006,3,4,87,24,19,65,0.45000000000000007,0.19000000000000003,0.09999999999999999,0.8100000000000005,5,2,1,2,6,2,2,2,3,0,19,7,L,0.075,0.095,0.05,0.40500000000000025
11,10,20,1,6,0.21000000000000005,2,3,59,52,1,113,0.35000000000000003,0.04,0.15,0.060000000000000005,3,1,1,1,4,1,1,1,4,0,16,7,L,0.0875,0.04,0.15,0.060000000000000005
11,11,21,1,14,0.21000000000000005,2,3,22,40,58,85,0.4700000000000001,0.02,0.11999999999999998,0.01,3,1,2,1,4,1,2,1,5,0,18,7,L,0.11750000000000002,0.02,0.06,0.01
11,11,22,1,15,0.36000000000000015,14,15,63,31,79,73,0.5800000000000002,0.38000000000000017,0.5700000000000003,0.9300000000000006,16,2,3,1,18,2,3,1,4,0,15,7,L,0.03222222222222222,0.19000000000000009,0.19000000000000009,0.9300000000000006
11,12,23,1,11,0.36000000000000015,12,12,120,66,61,83,0.41000000000000014,0.9100000000000006,0.01,0.02,13,3,1,1,13,3,1,1,2,0,13,7,L,0.031538461538461536,0.30333333333333345,0.01,0.02
11,12,24,1,4,0.37000000000000016,15,16,106,98,20,89,0.43000000000000016,0.13999999999999999,1.9600000000000015,1.1900000000000008,16,1,3,4,17,1,5,4,2,0,13,7,L,0.025294117647058825,0.13999999999999999,0.39200000000000024,0.2975000000000001
11,13,25,1,4,0.2900000000000001,6,8,105,108,1,92,0.4600000000000001,0.09,0.13999999999999999,0.07,7,1,1,1,9,1,1,1,2,0,13,7,L,0.051111111111111114,0.09,0.13999999999999999,0.07
11,13,26,1,6,0.35000000000000014,2,3,19,49,110,23,0.6100000000000002,0.01,0.08,0.060000000000000005,3,1,1,1,4,1,1,1,4,0,18,7,L,0.15250000000000002,0.01,0.08,0.060000000000000005
11,14,27,1,13,0.19000000000000003,2,3,17,58,59,51,0.36000000000000004,2.4099999999999926,0.16,0.8300000000000005,4,6,1,4,5,7,1,5,6,0.5,30,7,L,0.072,0.3442857142857145,0.16,0.16600000000000004
11,14,28,1,11,0.24000000000000007,2,4,80,118,71,120,0.4200000000000001,0.03,0.11999999999999998,0.03,3,1,2,1,5,1,2,1,2,0,11,7,L,0.084,0.03,0.06,0.03
11,15,29,1,3,0.19000000000000003,2,3,33,50,26,23,0.28,0.23000000000000007,0.03,0.08,4,1,1,1,5,1,1,1,5,0,20,7,L,0.056,0.23000000000000007,0.03,0.08
11,15,30,1,10,0.23000000000000007,2,3,7,117,76,75,0.4200000000000001,1.440000000000001,0.16,0.060000000000000005,4,5,1,1,5,5,1,1,6,0,14,7,L,0.084,0.28800000000000014,0.16,0.060000000000000005
11,16,31,1,12,0.17,2,3,96,91,9,85,0.31,0.01,0.16,0.05,4,1,1,1,5,1,1,1,3,0.5,24,7,L,0.062,0.01,0.16,0.05
11,16,32,1,11,0.3200000000000001,2,4,118,113,38,73,0.5400000000000001,0.05,0.060000000000000005,0.02,3,1,1,1,5,1,1,1,2,0,12,7,L,0.10800000000000001,0.05,0.060000000000000005,0.02
11,17,33,1,4,0.2800000000000001,9,9,105,102,4,107,0.3400000000000001,0.16,0.12999999999999998,0.03,10,2,2,1,10,2,2,1,2,0.5,18,7,L,0.034,0.08,0.065,0.03
11,17,34,1,6,0.26000000000000006,3,4,18,49,38,15,0.5700000000000002,0.01,0.05,0.11999999999999998,4,1,1,1,5,1,1,1,4,0,21,7,L,0.11400000000000002,0.01,0.05,0.11999999999999998
11,18,35,1,15,0.20000000000000004,2,3,68,16,80,111,0.4400000000000001,0.11999999999999998,0.01,0.060000000000000005,4,2,1,1,5,2,1,1,4,0,15,7,L,0.08800000000000001,0.06,0.01,0.060000000000000005
11,18,36,1,10,0.10999999999999999,2,2,2,8,60,5,0.27,0.03,0.3300000000000001,0.01,3,1,3,1,3,1,3,1,6,0.5,40,7,L,0.09,0.03,0.11000000000000001,0.01
11,19,37,1,15,0.20000000000000004,3,4,68,65,88,37,0.37000000000000005,0.04,0.37000000000000016,0.04,4,1,2,1,5,1,2,1,4,0,16,7,L,0.07400000000000001,0.04,0.18500000000000008,0.04
11,19,38,1,11,0.23000000000000007,2,4,76,109,26,11,0.47000000000000014,0.02,0.38000000000000017,0.01,3,1,2,1,5,1,2,1,2,0,16,7,L,0.09400000000000001,0.02,0.19000000000000009,0.01
11,20,39,1,6,0.21000000000000005,2,3,53,55,37,108,0.39000000000000007,0.03,0.2700000000000001,0.04,3,1,2,1,4,1,2,1,4,0,15,7,L,0.0975,0.03,0.13500000000000004,0.04
11,20,40,1,12,0.20000000000000004,2,3,11,95,32,91,0.4700000000000001,0.01,0.09,0.03,3,1,1,1,4,1,1,1,3,0,17,7,L,0.11750000000000002,0.01,0.09,0.03
11,21,41,1,13,0.19000000000000003,2,4,21,83,31,29,0.25000000000000006,0.3100000000000001,0.03,0.02,3,1,1,1,5,1,1,1,6,0,19,7,L,0.05,0.3100000000000001,0.03,0.02
11,21,42,1,11,0.3300000000000001,2,4,116,9,111,44,0.3600000000000001,0.23000000000000007,0.060000000000000005,0.04,3,1,1,1,5,1,1,1,2,0,15,7,L,0.072,0.23000000000000007,0.060000000000000005,0.04
11,22,43,1,15,0.18000000000000002,2,4,67,69,61,36,0.33,0.01,0.08,0.07,3,1,1,1,5,1,1,1,4,0.5,29,7,L,0.066,0.01,0.08,0.07
11,22,44,1,14,0.4300000000000002,2,3,38,48,55,51,0.45000000000000023,0.01,0.20000000000000004,0.10999999999999999,3,1,1,2,4,1,1,2,5,0,18,7,L,0.11250000000000003,0.01,0.20000000000000004,0.05500000000000001
12,1,1,0,1,0.17,2,3,28,29,7,56,0.4900000000000001,0.02,0.3300000000000001,0.05,3,1,1,1,4,1,1,1,5,0,20,7,L,0.12250000000000003,0.02,0.3300000000000001,0.05
12,1,2,0,8,0.15,2,4,118,80,23,39,0.42000000000000004,0.3100000000000001,0.25000000000000006,0.01,3,2,1,1,5,2,1,1,2,0,16,7,L,0.08400000000000002,0.15500000000000003,0.25000000000000006,0.01
12,2,3,0,1,0.18000000000000002,2,3,114,35,95,115,0.5600000000000002,0.13999999999999999,1.1100000000000008,0.4300000000000002,3,2,3,2,4,2,3,2,5,0,12,7,L,0.14000000000000004,0.07,0.37000000000000016,0.21500000000000005
12,2,4,0,5,0.15,2,3,47,108,12,70,0.8400000000000004,0.11999999999999998,0.01,0.3300000000000001,4,1,1,1,5,1,1,1,6,0,17,7,L,0.16800000000000007,0.11999999999999998,0.01,0.3300000000000001
12,3,5,0,10,0.16,2,2,14,21,34,74,0.5300000000000001,0.01,0.11999999999999998,0.08,4,1,1,1,5,1,1,1,6,0,20,7,L,0.10600000000000001,0.01,0.11999999999999998,0.08
12,3,6,0,3,0.6300000000000003,2,3,93,102,4,105,0.9800000000000004,0.13999999999999999,0.08,0.02,4,1,2,1,6,1,2,1,5,0,13,7,L,0.16333333333333339,0.13999999999999999,0.04,0.02
12,4,7,0,2,0.18000000000000002,2,3,74,84,67,28,0.4600000000000001,0.08,0.23000000000000007,0.09999999999999999,3,1,1,1,4,1,1,1,3,0,15,7,L,0.11500000000000002,0.08,0.23000000000000007,0.09999999999999999
12,4,8,0,7,0.17,2,3,58,4,95,57,0.7400000000000003,0.02,0.02,0.03,3,1,1,1,4,1,1,1,3,0,17,7,L,0.18500000000000008,0.02,0.02,0.03
12,5,9,0,10,0.17,2,4,18,63,98,14,0.8500000000000004,0.04,0.04,0.01,4,1,1,1,6,1,1,1,6,0,18,7,L,0.14166666666666672,0.04,0.04,0.01
12,5,10,0,2,0.17,2,3,10,29,2,26,1.0400000000000005,0.01,0.01,0.01,4,1,1,1,5,1,1,1,3,0,22,7,L,0.2080000000000001,0.01,0.01,0.01
12,6,11,0,9,0.18000000000000002,2,3,70,98,25,91,0.44000000000000006,0.11999999999999998,0.3300000000000001,0.01,4,1,1,1,5,1,1,1,4,0,14,7,L,0.088,0.11999999999999998,0.3300000000000001,0.01
12,6,12,0,3,0.17,2,3,15,82,42,16,0.7700000000000004,0.04,0.01,0.01,3,1,1,1,4,1,1,1,5,0,20,7,L,0.1925000000000001,0.04,0.01,0.01
12,7,13,1,3,0.17,2,3,28,107,100,26,0.44000000000000006,4.549999999999947,0.09999999999999999,0.01,4,4,1,1,7,6,1,1,5,0,14,7,L,0.06285714285714286,0.7583333333333323,0.09999999999999999,0.01
12,7,14,1,13,0.19000000000000003,2,4,39,14,90,66,0.6200000000000002,0.07,0.3000000000000001,0.09999999999999999,3,1,1,1,5,1,1,1,6,0,18,7,L,0.12400000000000004,0.07,0.3000000000000001,0.09999999999999999
12,8,15,1,7,0.18000000000000002,2,3,74,47,82,113,0.45000000000000007,0.26000000000000006,0.3900000000000002,0.01,4,1,2,1,5,1,2,1,3,0,13,7,L,0.09,0.26000000000000006,0.1950000000000001,0.01
12,8,16,1,12,0.15,2,3,96,92,63,27,0.44000000000000006,0.02,0.3900000000000002,0.01,3,1,2,1,4,1,2,1,3,0,15,7,L,0.11000000000000003,0.02,0.19500000000000006,0.01
12,9,17,1,10,0.13999999999999999,2,3,2,1,47,75,0.31,1.7100000000000013,0.04,0.01,4,4,1,1,5,4,1,1,6,0,20,7,L,0.062,0.4275000000000002,0.04,0.01
12,9,18,1,15,0.18000000000000002,2,4,68,96,112,28,0.39000000000000007,0.16,0.11999999999999998,0.05,4,1,1,1,6,1,1,1,4,0,14,7,L,0.065,0.16,0.11999999999999998,0.05
12,10,19,1,13,0.18000000000000002,2,4,14,105,27,59,0.8800000000000004,2.1799999999999975,0.08,0.5400000000000003,4,5,1,2,6,5,1,2,6,0,17,7,L,0.14666666666666672,0.4360000000000002,0.08,0.27000000000000013
12,10,20,1,10,0.19000000000000003,3,5,4,9,114,119,0.4700000000000001,0.08,1.0300000000000007,0.01,4,1,3,1,6,1,3,1,6,0,16,7,L,0.07833333333333335,0.08,0.3433333333333335,0.01
12,11,21,1,4,0.16,2,3,67,108,66,103,0.7800000000000004,0.02,0.11999999999999998,0.01,3,1,2,1,4,1,2,1,2,0,12,7,L,0.1950000000000001,0.02,0.05999999999999999,0.01
12,11,22,1,11,0.09,2,2,120,58,38,60,0.4700000000000002,0.7800000000000005,0.17,0.02,4,3,2,1,4,3,2,1,2,0,15,7,L,0.11750000000000002,0.2600000000000001,0.08499999999999999,0.02
12,12,23,1,11,0.22000000000000006,2,3,119,16,118,44,0.7600000000000003,0.09,0.02,0.02,4,1,1,1,7,1,1,1,2,0,15,7,L,0.1085714285714286,0.09,0.02,0.02
12,12,24,1,4,0.23000000000000007,2,3,73,106,71,28,0.5500000000000002,0.060000000000000005,0.4300000000000002,0.01,3,1,1,1,4,1,2,1,2,0,14,7,L,0.1375,0.060000000000000005,0.21500000000000008,0.01
12,13,25,1,12,0.21000000000000005,2,4,87,71,21,48,0.4800000000000001,0.24000000000000007,0.02,0.060000000000000005,4,1,1,1,6,1,1,1,3,0,18,7,L,0.08,0.24000000000000007,0.02,0.060000000000000005
12,13,26,1,10,0.13999999999999999,2,3,103,4,100,78,0.5200000000000001,0.05,0.060000000000000005,0.12999999999999998,3,1,1,1,4,1,1,1,6,0,13,7,L,0.13000000000000003,0.05,0.060000000000000005,0.12999999999999998
12,14,27,1,6,0.3000000000000001,4,4,56,106,102,58,0.6500000000000002,3.369999999999972,0.01,1.340000000000001,6,3,1,4,6,3,1,4,4,0,12,7,L,0.10833333333333336,1.1233333333333302,0.01,0.3350000000000002
12,14,28,1,15,0.17,2,3,61,63,37,109,0.44000000000000006,0.08,0.15,0.03,3,1,1,1,4,1,1,1,4,0,15,7,L,0.11000000000000001,0.08,0.15,0.03
12,15,29,1,15,0.22000000000000006,2,3,62,84,78,45,0.6000000000000002,0.02,1.5300000000000011,0.02,4,1,2,1,5,1,3,1,4,0,15,7,L,0.12000000000000002,0.02,0.5100000000000003,0.02
12,15,30,1,6,0.17,2,3,49,87,36,116,0.42000000000000004,0.4000000000000002,0.09,0.18000000000000002,4,1,2,2,5,1,2,2,4,0,14,7,L,0.084,0.4000000000000002,0.045,0.09000000000000001
12,16,31,1,7,0.13999999999999999,4,4,81,83,2,40,0.7400000000000003,1.8600000000000014,0.46000000000000024,0.37000000000000016,6,4,2,2,6,4,2,2,3,0,17,7,L,0.12333333333333338,0.46500000000000025,0.23000000000000007,0.18500000000000008
12,16,32,1,4,0.20000000000000004,2,3,89,97,26,31,0.5400000000000001,0.01,0.2800000000000001,0.09999999999999999,3,1,2,1,4,1,2,1,2,0,15,7,L,0.13500000000000004,0.01,0.14,0.09999999999999999
12,17,33,1,7,0.19000000000000003,3,4,78,18,75,97,0.4200000000000001,0.17,1.5100000000000011,0.03,5,1,2,2,6,1,4,2,3,0,14,7,L,0.06999999999999999,0.17,0.37750000000000017,0.015
12,17,34,1,3,0.15,2,4,33,30,95,34,0.44000000000000006,0.04,0.18000000000000002,1.0400000000000007,3,1,1,2,5,1,1,2,5,0.5,33,7,L,0.08800000000000002,0.04,0.18000000000000002,0.5200000000000004
12,18,35,1,14,0.17,5,7,12,43,95,115,1.640000000000001,2.3699999999999934,0.04,0.01,7,3,1,1,9,4,1,1,5,0,16,7,L,0.18222222222222234,0.5925000000000004,0.04,0.01
12,18,36,1,7,0.15,1,2,74,23,35,107,0.5400000000000001,0.16,0.17,0.01,3,1,2,1,4,1,2,1,3,0,16,7,L,0.13500000000000004,0.16,0.08499999999999999,0.01
12,19,37,1,7,0.17,2,4,107,74,48,101,0.5200000000000001,0.01,0.5500000000000003,0.15,3,1,2,2,5,1,2,2,3,0,12,7,L,0.10400000000000002,0.01,0.27500000000000013,0.075
12,19,38,1,13,0.13999999999999999,2,3,21,87,71,69,0.4800000000000001,0.11999999999999998,0.12999999999999998,0.12999999999999998,4,1,1,1,5,1,1,1,6,0,17,7,L,0.09600000000000002,0.11999999999999998,0.12999999999999998,0.12999999999999998
12,20,39,1,12,0.24000000000000007,2,4,95,59,96,2,0.5200000000000001,0.11999999999999998,0.13999999999999999,0.09999999999999999,4,1,1,1,6,1,1,1,3,0,16,7,L,0.08666666666666667,0.11999999999999998,0.13999999999999999,0.09999999999999999
12,20,40,1,7,0.20000000000000004,2,3,73,99,23,62,0.5100000000000001,0.04,0.07,0.10999999999999999,4,1,1,1,5,1,1,1,3,0,15,7,L,0.10200000000000002,0.04,0.07,0.10999999999999999
12,21,41,1,3,0.17,2,3,31,2,102,26,0.4100000000000001,0.34000000000000014,0.03,0.3200000000000001,4,2,1,2,5,2,1,2,5,0,18,7,L,0.082,0.17000000000000004,0.03,0.16000000000000006
12,21,42,1,12,0.13999999999999999,2,3,90,94,120,23,0.37000000000000005,0.08,0.08,0.12999999999999998,3,1,1,2,4,1,1,3,3,0,14,7,L,0.09250000000000001,0.08,0.08,0.043333333333333335
12,22,43,1,14,0.2900000000000001,2,2,40,23,38,42,0.4100000000000001,0.15,0.12999999999999998,0.05,3,1,1,1,3,1,1,1,5,0.5,36,7,L,0.1366666666666667,0.15,0.12999999999999998,0.05
12,22,44,1,15,0.09,4,4,6,7,2,113,1.290000000000001,0.02,4.4999999999999485,0.24000000000000007,8,1,9,2,8,1,12,2,4,0.5,38,7,L,0.16125000000000006,0.02,0.3750000000000002,0.12000000000000001
13,1,1,0,6,0.37000000000000016,2,3,56,99,51,13,0.8500000000000004,0.47000000000000025,0.04,0.25000000000000006,4,2,1,3,9,4,1,3,4,0,16,7,L,0.09444444444444446,0.11750000000000002,0.04,0.08333333333333334
13,1,2,0,8,0.4300000000000002,2,5,9,109,120,118,1.2200000000000006,0.060000000000000005,0.09999999999999999,0.08,4,1,1,1,8,1,1,1,2,0.5,18,7,L,0.15250000000000002,0.060000000000000005,0.09999999999999999,0.08
13,2,3,0,2,0.47000000000000025,2,6,83,51,21,16,1.1200000000000006,0.24000000000000007,0.3000000000000001,0.18000000000000002,4,1,3,3,8,1,3,4,3,0,19,7,L,0.14,0.24000000000000007,0.1,0.045
13,2,4,0,7,0.35000000000000014,2,5,91,86,8,90,0.9100000000000004,0.16,0.5000000000000002,0.10999999999999999,4,2,2,2,8,3,8,2,3,0.5,24,7,L,0.11375000000000002,0.05333333333333334,0.0625,0.05500000000000001
13,3,5,0,2,0.37000000000000016,2,5,84,77,116,31,0.7800000000000004,0.5900000000000003,0.5500000000000003,1.370000000000001,5,3,2,6,11,4,5,6,3,0,13,7,L,0.07090909090909091,0.14750000000000002,0.11,0.22833333333333342
13,3,6,0,4,0.4300000000000002,2,5,101,46,44,3,0.8700000000000004,0.9000000000000006,0.8600000000000005,0.060000000000000005,4,3,4,2,7,7,5,2,2,0,18,7,L,0.12428571428571429,0.1285714285714286,0.17200000000000004,0.03
13,4,7,0,2,0.36000000000000015,2,5,82,74,110,26,0.9100000000000004,0.03,0.6900000000000004,0.09999999999999999,4,1,2,2,9,1,5,2,3,0,13,7,L,0.10111111111111112,0.03,0.138,0.05
13,4,8,0,10,0.48000000000000026,3,10,49,16,43,57,1.1500000000000006,0.08,0.5800000000000003,0.8100000000000005,5,1,3,4,15,1,8,5,6,0,19,7,L,0.07666666666666667,0.08,0.07250000000000001,0.16200000000000006
13,5,9,0,10,0.4300000000000002,2,11,19,15,53,13,0.9900000000000004,0.12999999999999998,0.5300000000000002,0.05,4,1,4,1,13,1,5,1,6,0.5,40,7,L,0.07615384615384617,0.12999999999999998,0.10600000000000001,0.05
13,5,10,0,7,0.16,2,3,2,37,86,88,20.75000000000042,0.01,0.12999999999999998,0.01,20,1,3,1,146,1,3,1,3,0,17,7,L,0.14212328767123292,0.01,0.043333333333333335,0.01
13,6,11,0,7,0.35000000000000014,2,4,90,88,15,102,0.6600000000000003,0.47000000000000025,0.12999999999999998,0.37000000000000016,4,2,1,2,8,2,1,2,3,0,14,7,L,0.0825,0.23500000000000004,0.12999999999999998,0.18500000000000003
13,6,12,0,6,0.45000000000000023,2,7,54,47,118,60,0.6800000000000003,0.48000000000000026,0.2700000000000001,0.2900000000000001,4,2,2,2,9,2,4,3,4,0,15,7,L,0.07555555555555556,0.2400000000000001,0.06749999999999999,0.09666666666666669
13,7,13,1,4,0.34000000000000014,2,5,107,102,63,67,0.9400000000000004,0.21000000000000005,0.35000000000000014,0.15,4,2,2,1,7,2,2,1,2,0,12,7,L,0.1342857142857143,0.105,0.17500000000000004,0.15
13,7,14,1,11,0.13999999999999999,2,3,13,58,60,111,5.109999999999938,0.03,0.02,0.01,18,1,1,1,36,1,1,1,2,0,16,7,L,0.14194444444444448,0.03,0.02,0.01
13,8,15,1,11,0.6000000000000003,3,6,120,116,28,24,1.0000000000000004,0.7700000000000005,0.02,0.21000000000000005,6,2,1,2,10,6,1,3,2,0,15,7,L,0.1,0.12833333333333338,0.02,0.06999999999999999
