Subject,Round,Phase,afterbreak,Schema,Schema_RT,Schema_OB,Schema_AS,Cho_1,Cho_2,Cho_3,Cho_4,RT_1,RT_2,RT_3,RT_4,OB_1,OB_2,OB_3,OB_4,AS_1,AS_2,AS_3,AS_4,schema_payoff,AC,performance,breakR,type,dwellmean_1,dwellmean_2,dwellmean_3,dwellmean_4
1,1,1,0,1,0.16,2,3,33,27,83,15,1.3700000000000008,0.01,0.01,0.10999999999999999,5,1,1,1,6,1,1,1,3,0,19,7,HL,0.22833333333333344,0.01,0.01,0.10999999999999999
1,1,2,0,5,0.16,2,3,58,12,38,1,0.27999999999999997,0.15,0.01,0.07,3,2,1,1,4,2,1,1,5,0,21,7,HL,0.06999999999999999,0.075,0.01,0.07
1,2,3,0,2,0.18000000000000002,2,3,74,58,5,77,0.37000000000000005,0.04,0.08,0.060000000000000005,3,1,1,1,4,1,1,1,4,0,16,7,HL,0.09250000000000001,0.04,0.08,0.060000000000000005
1,2,4,0,10,0.16,2,3,86,25,66,89,0.22,0.13999999999999999,0.7900000000000005,0.01,4,1,2,1,5,1,2,1,3,0,15,7,HL,0.044000000000000004,0.13999999999999999,0.39500000000000024,0.01
1,3,5,0,10,0.17,2,3,19,92,85,23,0.35000000000000003,0.03,0.05,0.060000000000000005,3,1,1,1,4,1,1,1,3,0,18,7,HL,0.08750000000000001,0.03,0.05,0.060000000000000005
1,3,6,0,9,0.17,2,3,83,44,62,4,1.8800000000000012,0.060000000000000005,0.01,0.01,4,1,1,1,5,1,1,1,4,0,18,7,HL,0.3760000000000003,0.060000000000000005,0.01,0.01
1,4,7,0,6,0.16,2,3,9,2,73,57,0.22,4.3599999999999515,0.01,0.01,4,7,1,1,5,11,1,1,6,0,19,7,HL,0.044000000000000004,0.3963636363636366,0.01,0.01
1,4,8,0,9,0.19000000000000003,2,3,61,105,15,69,0.24000000000000005,0.7600000000000005,0.01,0.01,3,2,1,1,4,3,1,1,4,0,16,7,HL,0.060000000000000005,0.2533333333333334,0.01,0.01
1,5,9,0,6,0.16,2,3,90,12,5,45,0.4000000000000001,0.03,0.04,0.08,3,1,1,1,4,1,1,1,6,0,20,7,HL,0.10000000000000002,0.03,0.04,0.08
1,5,10,0,1,0.22000000000000006,2,4,77,74,20,105,0.32000000000000006,0.08,0.09999999999999999,0.08,3,1,1,1,5,1,1,1,3,0,14,7,HL,0.064,0.08,0.09999999999999999,0.08
1,6,11,0,2,0.16,2,3,54,58,115,109,0.29,0.03,0.23000000000000007,0.12999999999999998,3,1,1,1,4,1,1,1,4,0,12,7,HL,0.0725,0.03,0.23000000000000007,0.12999999999999998
1,6,12,0,9,0.18000000000000002,2,4,69,68,44,6,0.34,0.03,0.07,1.9600000000000015,3,1,1,4,5,1,1,4,4,0,19,7,HL,0.068,0.03,0.07,0.4900000000000003
1,7,13,1,2,0.21000000000000005,2,4,58,49,50,116,0.37000000000000005,0.03,0.23000000000000007,0.2800000000000001,3,1,2,2,5,1,2,2,4,0.5,26,7,HL,0.074,0.03,0.11500000000000002,0.13999999999999999
1,7,14,1,6,0.37000000000000016,2,5,12,62,46,4,0.5800000000000002,0.07,0.4300000000000002,2.8799999999999826,3,1,2,3,6,1,2,4,6,0,21,7,HL,0.09666666666666668,0.07,0.2150000000000001,0.7199999999999985
1,8,15,1,7,0.20000000000000004,2,3,23,19,76,13,0.45000000000000007,0.05,0.26000000000000006,0.6700000000000004,4,1,1,2,5,1,1,2,6,0.5,39,7,HL,0.09000000000000001,0.05,0.26000000000000006,0.3350000000000002
1,8,16,1,6,0.17,2,3,10,4,8,5,0.27,0.10999999999999999,0.02,2.959999999999981,3,2,1,9,4,2,1,11,6,1,72,7,HL,0.0675,0.055,0.02,0.2690909090909092
1,9,17,1,7,0.17,2,3,71,23,29,24,0.4100000000000001,0.03,0.4000000000000002,0.02,3,1,2,1,4,1,2,1,6,0,21,7,HL,0.10250000000000002,0.03,0.2000000000000001,0.02
1,9,18,1,10,0.16,2,3,11,93,118,37,0.25,0.05,0.22000000000000006,0.05,3,1,1,1,4,1,1,1,3,0,16,7,HL,0.0625,0.05,0.22000000000000006,0.05
1,10,19,1,5,0.19000000000000003,3,6,43,37,65,1,0.32,0.04,0.21000000000000005,0.02,4,1,1,1,7,1,1,1,5,0,20,7,HL,0.04571428571428571,0.04,0.21000000000000005,0.02
1,10,20,1,3,0.11999999999999998,2,2,13,92,51,18,2.8299999999999863,0.02,0.02,0.02,9,1,1,1,9,1,1,1,5,0,19,7,HL,0.31444444444444464,0.02,0.02,0.02
1,11,21,1,1,0.19000000000000003,2,3,5,82,65,72,1.3400000000000007,0.01,0.02,0.01,7,1,1,1,8,1,1,1,3,0,17,7,HL,0.16750000000000007,0.01,0.02,0.01
1,11,22,1,10,0.18000000000000002,2,3,42,95,57,20,0.31,0.04,0.12999999999999998,0.02,3,1,2,1,4,1,2,1,3,0,18,7,HL,0.0775,0.04,0.065,0.02
1,12,23,1,9,0.16,2,3,68,45,8,67,0.35000000000000003,0.05,0.060000000000000005,0.03,4,1,1,1,5,1,1,1,4,0,19,7,HL,0.06999999999999999,0.05,0.060000000000000005,0.03
1,12,24,1,3,0.16,2,3,31,34,33,53,0.27,0.04,0.060000000000000005,0.060000000000000005,3,1,1,1,4,1,1,1,5,0.5,34,7,HL,0.0675,0.04,0.060000000000000005,0.060000000000000005
1,13,25,1,7,0.22000000000000006,2,3,45,24,42,18,0.38000000000000006,0.03,0.060000000000000005,0.7800000000000005,3,1,1,3,4,1,1,4,6,0,22,7,HL,0.095,0.03,0.060000000000000005,0.19500000000000006
1,13,26,1,8,0.11999999999999998,2,2,7,86,116,25,17.609999999999935,0.01,0.01,0.01,17,1,1,1,36,1,1,1,2,0,16,7,HL,0.48916666666666697,0.01,0.01,0.01
1,14,27,1,7,0.4400000000000002,3,4,41,24,85,42,0.6000000000000002,0.07,0.04,0.04,4,1,1,1,5,1,1,1,6,0,19,7,HL,0.12000000000000004,0.07,0.04,0.04
1,14,28,1,3,0.19000000000000003,2,3,51,29,30,11,0.36000000000000004,0.01,0.04,0.05,3,1,1,1,4,1,1,1,5,0,20,7,HL,0.09000000000000001,0.01,0.04,0.05
1,15,29,1,1,0.23000000000000007,2,4,84,48,17,111,0.31000000000000005,0.26000000000000006,0.04,0.02,4,1,1,1,6,1,1,1,3,0,16,7,HL,0.051666666666666666,0.26000000000000006,0.04,0.02
1,15,30,1,10,0.20000000000000004,2,3,68,89,3,90,0.28,0.060000000000000005,0.09999999999999999,1.1100000000000008,3,1,1,5,4,1,1,6,3,0,16,7,HL,0.07,0.060000000000000005,0.09999999999999999,0.18500000000000005
1,16,31,1,9,0.19000000000000003,3,4,68,67,69,44,0.28,0.05,0.03,0.09,4,1,1,1,5,1,1,1,4,0.5,29,7,HL,0.055999999999999994,0.05,0.03,0.09
1,16,32,1,6,0.4200000000000002,5,7,27,4,52,36,0.4400000000000002,0.11999999999999998,0.10999999999999999,0.02,6,1,1,1,8,1,1,1,6,0,20,7,HL,0.055,0.11999999999999998,0.10999999999999999,0.02
1,17,33,1,9,0.13999999999999999,1,2,26,63,64,29,0.26999999999999996,0.03,0.03,0.04,2,1,1,1,3,1,1,1,4,0,18,7,HL,0.08999999999999998,0.03,0.03,0.04
1,17,34,1,1,0.26000000000000006,2,3,51,81,76,6,0.41000000000000003,0.04,0.4100000000000002,0.01,3,1,2,1,4,1,2,1,3,0,16,7,HL,0.1025,0.04,0.2050000000000001,0.01
1,18,35,1,9,0.13999999999999999,2,3,69,72,3,43,0.27999999999999997,0.19000000000000003,0.02,0.05,4,2,1,1,5,2,1,1,4,0,19,7,HL,0.055999999999999994,0.095,0.02,0.05
1,18,36,1,7,0.34000000000000014,3,4,19,16,15,55,0.43000000000000016,0.05,13.109999999999765,0.01,4,1,13,1,5,1,28,1,6,0.5,40,7,HL,0.08600000000000002,0.05,0.46821428571428525,0.01
1,19,37,1,7,0.18000000000000002,3,4,114,13,120,37,24.020000000000927,2.399999999999993,0.01,0.01,20,11,1,1,53,12,1,1,6,0,15,7,HL,0.4532075471698112,0.20000000000000007,0.01,0.01
1,19,38,1,9,1.410000000000001,8,13,89,70,1,7,1.450000000000001,0.01,0.07,0.08,9,1,1,1,14,1,1,1,4,0,19,7,HL,0.10357142857142859,0.01,0.07,0.08
1,20,39,1,1,0.16,2,4,75,80,34,14,0.18,0.09999999999999999,0.08,0.060000000000000005,3,1,1,1,5,1,1,1,3,0,17,7,HL,0.036000000000000004,0.09999999999999999,0.08,0.060000000000000005
1,20,40,1,4,0.22000000000000006,2,3,103,98,69,70,0.26000000000000006,0.09999999999999999,0.05,0.35000000000000014,4,1,1,1,5,1,1,1,2,0,12,7,HL,0.052,0.09999999999999999,0.05,0.35000000000000014
1,21,41,1,6,0.24000000000000007,2,3,7,52,104,32,0.3500000000000001,0.09999999999999999,0.060000000000000005,0.02,4,1,1,1,5,1,1,1,6,0,17,7,HL,0.07,0.09999999999999999,0.060000000000000005,0.02
1,21,42,1,10,0.3200000000000001,6,6,88,118,117,112,4.799999999999949,0.7500000000000004,0.45000000000000023,1.9800000000000015,13,3,1,2,16,4,1,2,3,0.5,15,7,HL,0.30000000000000016,0.18750000000000008,0.45000000000000023,0.9900000000000008
1,22,43,1,10,0.18000000000000002,2,3,87,95,12,119,0.34,0.02,0.10999999999999999,0.09999999999999999,3,1,1,1,4,1,1,1,3,0,14,7,HL,0.085,0.02,0.10999999999999999,0.09999999999999999
1,22,44,1,4,0.38000000000000017,3,4,36,28,108,76,1.0200000000000005,0.01,0.04,0.02,6,1,1,1,7,1,1,1,2,0,15,7,HL,0.14571428571428577,0.01,0.04,0.02
2,1,1,0,2,0.3000000000000001,2,4,117,53,52,114,5.319999999999937,0.7500000000000004,0.4300000000000002,0.16,11,2,3,2,23,2,3,2,4,0,12,7,HL,0.23130434782608705,0.3750000000000002,0.1433333333333334,0.07999999999999999
2,1,2,0,10,0.23000000000000007,2,3,85,92,94,70,3.0599999999999836,0.9600000000000006,0.11999999999999998,3.189999999999976,12,5,1,4,17,8,1,9,3,0.5,13,7,HL,0.18000000000000005,0.12000000000000001,0.11999999999999998,0.3544444444444446
2,2,3,0,1,0.23000000000000007,2,3,2,78,72,65,4.7499999999999485,0.08,0.34000000000000014,4.119999999999957,9,1,1,7,13,1,1,12,3,0,17,7,HL,0.3653846153846156,0.08,0.34000000000000014,0.3433333333333335
2,2,4,0,10,0.5000000000000002,2,9,88,113,56,114,3.51999999999998,1.300000000000001,0.9100000000000006,0.3100000000000001,7,3,3,2,17,5,4,4,3,0,11,7,HL,0.20705882352941185,0.2600000000000001,0.2275000000000001,0.0775
2,3,5,0,8,0.22000000000000006,2,3,11,110,8,3,3.509999999999974,0.19000000000000003,0.48000000000000026,0.22000000000000006,5,1,2,2,18,1,3,2,2,0.5,20,7,HL,0.19500000000000006,0.19000000000000003,0.16000000000000003,0.11000000000000001
2,3,6,0,7,0.2700000000000001,2,3,24,23,80,79,2.5399999999999956,3.139999999999977,0.21000000000000005,0.8400000000000005,8,6,1,2,11,8,1,2,6,0,18,7,HL,0.23090909090909098,0.39250000000000024,0.21000000000000005,0.4200000000000002
2,4,7,0,4,0.20000000000000004,2,3,8,100,85,61,3.259999999999979,0.9500000000000006,0.7600000000000005,0.38000000000000017,8,3,2,1,13,5,2,1,2,0,15,7,HL,0.25076923076923086,0.19000000000000006,0.38000000000000017,0.38000000000000017
2,4,8,0,7,0.5700000000000003,2,4,78,21,16,60,3.9299999999999726,0.18000000000000002,0.9200000000000006,0.26000000000000006,5,1,4,1,19,1,4,1,6,0,19,7,HL,0.20684210526315794,0.18000000000000002,0.2300000000000001,0.26000000000000006
2,5,9,0,2,0.21000000000000005,2,3,16,18,74,99,3.2799999999999785,0.6800000000000004,1.9500000000000015,0.13999999999999999,8,2,3,2,10,5,6,2,4,0,17,7,HL,0.3280000000000002,0.13600000000000004,0.3250000000000002,0.06999999999999999
2,5,10,0,3,0.17,2,3,89,27,110,92,2.6399999999999912,0.3200000000000001,1.0500000000000007,0.12999999999999998,5,1,4,2,11,1,5,2,5,0,13,7,HL,0.2400000000000001,0.3200000000000001,0.21000000000000008,0.06499999999999999
2,6,11,0,9,0.5400000000000003,2,3,63,18,14,93,2.4700000000000015,0.8200000000000005,0.4300000000000002,0.37000000000000016,4,2,2,2,13,3,2,2,4,0,19,7,HL,0.19000000000000006,0.27333333333333343,0.21500000000000005,0.18500000000000003
2,6,12,0,5,0.19000000000000003,2,3,47,42,82,98,1.690000000000001,1.280000000000001,0.3900000000000002,0.3200000000000001,4,3,1,1,5,8,1,1,5,0,15,7,HL,0.3380000000000002,0.16000000000000003,0.3900000000000002,0.3200000000000001
2,7,13,1,5,0.8000000000000005,9,10,47,46,82,17,4.319999999999969,0.25000000000000006,0.3100000000000001,0.09999999999999999,13,1,2,1,18,1,2,1,5,0,19,7,HL,0.2400000000000001,0.25000000000000006,0.15500000000000003,0.09999999999999999
2,7,14,1,6,0.24000000000000007,2,3,3,1,64,100,2.3899999999999983,0.9200000000000006,1.300000000000001,0.07,6,3,2,1,11,4,2,1,6,0,18,7,HL,0.21727272727272734,0.2300000000000001,0.6500000000000004,0.07
2,8,15,1,3,1.0100000000000007,16,18,31,82,74,29,2.880000000000002,4.529999999999948,1.8500000000000014,2.759999999999985,18,5,5,8,21,19,6,10,5,0,16,7,HL,0.1371428571428572,0.23842105263157903,0.3083333333333335,0.27600000000000013
2,8,16,1,2,0.2900000000000001,2,4,55,109,117,42,3.329999999999979,0.34000000000000014,1.330000000000001,1.6900000000000013,9,2,4,2,16,3,6,2,4,0,13,7,HL,0.20812500000000006,0.11333333333333333,0.22166666666666673,0.8450000000000005
2,9,17,1,10,0.4300000000000002,7,7,20,23,106,100,3.5099999999999785,0.6900000000000004,0.12999999999999998,0.23000000000000007,10,3,1,2,17,4,1,2,3,0,16,7,HL,0.20647058823529418,0.17250000000000001,0.12999999999999998,0.115
2,9,18,1,8,0.22000000000000006,3,3,78,113,120,3,9.429999999999849,0.08,0.48000000000000026,0.01,16,2,2,1,37,2,2,1,2,0,13,7,HL,0.254864864864865,0.04,0.24000000000000013,0.01
2,10,19,1,9,0.45000000000000023,3,6,71,65,25,1,3.2099999999999853,0.6200000000000003,0.4200000000000002,0.47000000000000025,6,3,2,2,15,4,3,2,4,0,19,7,HL,0.21400000000000008,0.15500000000000003,0.14,0.23500000000000004
2,10,20,1,4,0.11999999999999998,1,2,17,16,104,94,1.9300000000000013,1.2300000000000009,0.34000000000000014,0.3300000000000001,3,2,1,1,5,5,1,1,2,0,17,7,HL,0.3860000000000002,0.24600000000000008,0.34000000000000014,0.3300000000000001
2,11,21,1,9,0.35000000000000014,2,5,64,47,2,95,2.609999999999996,1.480000000000001,0.2700000000000001,0.15,5,3,1,2,11,7,1,2,4,0,18,7,HL,0.23727272727272736,0.2114285714285715,0.2700000000000001,0.07499999999999998
2,11,22,1,8,0.09,2,2,109,13,116,19,1.410000000000001,1.0200000000000007,0.4000000000000002,1.2300000000000009,5,4,2,4,7,5,3,5,2,0,16,7,HL,0.2014285714285715,0.20400000000000007,0.13333333333333336,0.24600000000000008
2,12,23,1,10,0.5600000000000003,2,5,85,18,96,92,2.809999999999996,0.5400000000000003,2.4699999999999913,0.9900000000000007,4,2,6,3,9,3,9,3,3,0.5,24,7,HL,0.3122222222222224,0.18000000000000005,0.27444444444444455,0.3300000000000002
2,12,24,1,6,0.22000000000000006,2,3,73,11,41,105,3.319999999999978,0.3300000000000001,0.4000000000000002,2.239999999999996,6,2,2,5,13,2,2,7,6,0,16,7,HL,0.2553846153846155,0.165,0.20000000000000004,0.3200000000000002
2,13,25,1,1,0.36000000000000015,2,3,57,59,6,5,2.4699999999999993,2.429999999999992,1.1900000000000008,0.060000000000000005,6,9,5,1,14,10,5,1,3,0,20,7,HL,0.1764285714285715,0.24300000000000008,0.2380000000000001,0.060000000000000005
2,13,26,1,3,0.4200000000000002,4,5,25,99,90,14,1.8800000000000012,2.0799999999999996,0.38000000000000017,0.2800000000000001,7,4,1,1,8,6,1,2,5,0,16,7,HL,0.2350000000000001,0.3466666666666668,0.38000000000000017,0.13999999999999999
2,14,27,1,1,0.35000000000000014,3,5,98,83,35,30,3.739999999999972,0.20000000000000004,0.18000000000000002,0.16,6,1,1,1,14,1,1,1,3,0,15,7,HL,0.26714285714285724,0.20000000000000004,0.18000000000000002,0.16
2,14,28,1,9,0.9800000000000006,4,5,6,5,39,38,2.450000000000002,1.2200000000000009,0.6000000000000003,0.3100000000000001,6,3,2,1,10,5,2,1,4,0,22,7,HL,0.2450000000000001,0.24400000000000008,0.3000000000000001,0.3100000000000001
2,15,29,1,4,0.25000000000000006,2,4,99,84,49,45,2.6599999999999926,0.4400000000000002,0.46000000000000024,0.13999999999999999,6,1,2,1,10,1,2,1,2,0,14,7,HL,0.2660000000000001,0.4400000000000002,0.2300000000000001,0.13999999999999999
2,15,30,1,9,1.270000000000001,14,18,30,11,71,31,2.840000000000002,1.480000000000001,0.2800000000000001,0.07,17,3,1,1,21,8,1,1,4,0,20,7,HL,0.13523809523809527,0.18500000000000005,0.2800000000000001,0.07
2,16,31,1,6,0.24000000000000007,2,4,61,89,102,65,14.50999999999974,0.01,0.03,1.1800000000000008,19,1,2,4,43,1,2,4,6,0,13,7,HL,0.33744186046511643,0.01,0.015,0.29500000000000015
2,16,32,1,8,0.08,2,3,114,113,16,27,1.9400000000000015,0.2900000000000001,0.2900000000000001,0.6800000000000004,4,1,2,2,14,1,2,5,2,0,15,7,HL,0.1385714285714286,0.2900000000000001,0.14500000000000002,0.136
2,17,33,1,3,0.23000000000000007,2,3,31,2,27,55,2.8299999999999885,0.38000000000000017,0.7600000000000005,1.7800000000000014,7,1,2,4,11,1,2,4,5,0,20,7,HL,0.2572727272727274,0.38000000000000017,0.3800000000000001,0.4450000000000003
2,17,34,1,8,0.7100000000000004,9,10,23,112,71,116,3.409999999999987,4.289999999999953,1.6000000000000012,0.3300000000000001,13,6,5,3,18,20,8,3,2,0,14,7,HL,0.18944444444444453,0.21450000000000008,0.20000000000000004,0.11000000000000001
2,18,35,1,2,0.7500000000000004,5,10,120,92,111,60,2.290000000000002,1.7000000000000013,0.11999999999999998,0.2700000000000001,9,2,1,1,16,5,1,1,4,0,11,7,HL,0.14312500000000006,0.3400000000000002,0.11999999999999998,0.2700000000000001
2,18,36,1,1,0.47000000000000025,11,12,81,73,71,23,5.259999999999943,0.03,0.060000000000000005,1.8100000000000014,16,1,1,2,21,1,1,3,3,0,16,7,HL,0.25047619047619013,0.03,0.060000000000000005,0.6033333333333337
2,19,37,1,6,0.2700000000000001,2,3,11,59,86,53,3.309999999999979,0.5300000000000002,0.6900000000000004,0.4100000000000002,6,2,2,2,14,2,3,2,6,0,17,7,HL,0.23642857142857154,0.26500000000000007,0.2300000000000001,0.20500000000000007
2,19,38,1,7,0.19000000000000003,2,4,62,114,110,119,2.299999999999999,1.1900000000000008,0.7600000000000005,0.22000000000000006,6,2,3,1,11,3,5,1,6,0.5,16,7,HL,0.2090909090909092,0.39666666666666683,0.15200000000000002,0.22000000000000006
2,20,39,1,3,0.6400000000000003,9,10,25,50,55,12,2.3000000000000016,2.5899999999999888,0.25000000000000006,0.26000000000000006,12,5,2,1,14,14,2,1,5,0,19,7,HL,0.16428571428571434,0.18500000000000005,0.12500000000000003,0.26000000000000006
2,20,40,1,10,0.6200000000000003,2,5,96,90,13,62,2.7399999999999993,1.6600000000000013,0.17,0.5700000000000003,4,4,1,4,16,5,1,4,3,0,16,7,HL,0.17125000000000004,0.3320000000000002,0.17,0.14250000000000004
2,21,41,1,9,0.3100000000000001,2,3,68,74,65,27,3.0899999999999848,0.9000000000000006,0.18000000000000002,0.2900000000000001,5,3,1,1,11,4,1,1,4,0,16,7,HL,0.280909090909091,0.22500000000000006,0.18000000000000002,0.2900000000000001
2,21,42,1,7,0.23000000000000007,2,3,16,87,86,14,2.8199999999999887,1.0400000000000007,0.36000000000000015,0.6700000000000004,6,2,3,2,8,7,3,2,6,0,18,7,HL,0.3525000000000002,0.1485714285714286,0.12,0.33500000000000013
3,1,1,0,8,0.09,2,5,110,109,119,1,0.7200000000000003,0.15,0.01,0.09,5,2,1,2,13,3,1,3,2,0.5,12,7,HL,0.055384615384615386,0.049999999999999996,0.01,0.030000000000000002
3,1,2,0,4,0.17,2,4,108,102,53,83,0.37000000000000005,0.02,0.20000000000000004,0.11999999999999998,4,1,2,2,7,1,2,3,2,0,11,7,HL,0.05285714285714285,0.02,0.09999999999999999,0.04
3,2,3,0,4,0.21000000000000005,2,3,108,104,83,103,0.4700000000000001,0.05,0.15,0.18000000000000002,4,2,2,3,7,3,3,4,2,0.5,9,7,HL,0.06714285714285714,0.016666666666666666,0.05,0.045
3,2,4,0,3,0.16,1,2,34,116,110,11,0.36000000000000004,0.3200000000000001,0.09999999999999999,0.02,3,2,2,1,6,5,2,1,5,0,15,7,HL,0.06,0.064,0.05,0.02
3,3,5,0,3,0.21000000000000005,2,3,33,30,7,100,0.4200000000000001,0.05,0.3900000000000002,0.37000000000000016,4,1,3,4,7,1,5,5,5,0,18,7,HL,0.06,0.05,0.07800000000000001,0.07400000000000001
3,3,6,0,1,0.18000000000000002,2,4,77,112,117,78,0.35000000000000003,0.17,0.12999999999999998,0.05,5,2,2,2,10,2,2,3,3,0,10,7,HL,0.035,0.085,0.065,0.016666666666666666
3,4,7,0,8,0.23000000000000007,2,8,117,60,81,50,0.5200000000000001,0.09999999999999999,0.060000000000000005,0.08,4,2,1,1,14,3,1,1,2,0,13,7,HL,0.037142857142857144,0.03333333333333333,0.060000000000000005,0.08
3,4,8,0,3,0.20000000000000004,2,5,32,34,33,108,0.39000000000000007,0.060000000000000005,0.10999999999999999,0.22000000000000006,4,2,1,2,9,3,1,3,5,0.5,17,7,HL,0.043333333333333335,0.02,0.10999999999999999,0.07333333333333333
3,5,9,0,7,0.19000000000000003,2,5,18,82,17,22,0.33,2.809999999999984,0.01,0.04,4,15,1,2,9,29,1,2,6,0.5,21,7,HL,0.03666666666666667,0.09689655172413794,0.01,0.02
3,5,10,0,10,0.21000000000000005,2,6,93,56,29,59,0.35000000000000003,0.48000000000000026,0.02,0.11999999999999998,4,3,1,2,10,4,1,2,3,0,16,7,HL,0.035,0.12,0.02,0.06
3,6,11,0,9,0.20000000000000004,2,7,66,4,61,101,0.5900000000000002,0.07,0.03,0.20000000000000004,5,1,1,3,11,1,1,3,4,0,16,7,HL,0.05363636363636364,0.07,0.03,0.06666666666666667
3,6,12,0,2,0.21000000000000005,2,4,49,21,51,15,0.35000000000000003,0.3300000000000001,0.03,0.07,5,2,1,1,8,4,1,1,4,0,20,7,HL,0.04375,0.08250000000000002,0.03,0.07
3,7,13,1,3,0.20000000000000004,2,4,30,27,91,93,0.34,0.3900000000000002,0.060000000000000005,0.03,4,3,2,1,6,4,2,1,5,0,16,7,HL,0.056666666666666664,0.09750000000000002,0.03,0.03
3,7,14,1,6,0.21000000000000005,2,4,6,12,3,52,0.34,0.47000000000000025,0.10999999999999999,0.5100000000000002,4,4,2,6,6,4,2,7,6,0.5,40,7,HL,0.056666666666666664,0.11750000000000002,0.055,0.07285714285714286
3,8,15,1,10,0.2800000000000001,2,5,91,3,113,61,0.5800000000000002,0.21000000000000005,0.060000000000000005,0.05,4,2,1,2,7,3,1,2,3,0,15,7,HL,0.08285714285714287,0.06999999999999999,0.060000000000000005,0.025
3,8,16,1,2,0.18000000000000002,2,5,49,100,53,23,0.34,0.26000000000000006,0.17,0.23000000000000007,4,3,5,4,7,4,5,4,4,0,16,7,HL,0.04857142857142857,0.065,0.034,0.057499999999999996
3,9,17,1,2,0.2900000000000001,2,6,49,4,92,98,0.5800000000000002,0.04,0.13999999999999999,0.02,4,1,2,1,12,1,2,1,4,0,15,7,HL,0.04833333333333333,0.04,0.06999999999999999,0.02
3,9,18,1,1,0.22000000000000006,2,5,76,64,77,14,0.4400000000000001,0.15,0.09,0.01,4,2,2,1,11,2,3,1,3,0,16,7,HL,0.04,0.07499999999999998,0.03,0.01
3,10,19,1,5,0.17,2,3,39,74,83,50,0.38000000000000006,0.16,0.10999999999999999,0.060000000000000005,4,1,2,1,6,1,2,1,5,0,15,7,HL,0.06333333333333334,0.16,0.05500000000000001,0.060000000000000005
3,10,20,1,3,0.17,2,3,69,93,20,91,0.44000000000000006,0.13999999999999999,0.08,0.04,5,2,1,1,6,2,1,1,5,0,16,7,HL,0.07333333333333335,0.07,0.08,0.04
3,11,21,1,3,0.34000000000000014,3,4,32,54,120,35,0.4400000000000001,0.20000000000000004,0.09,0.07,5,3,1,2,6,5,1,2,5,0,16,7,HL,0.07333333333333335,0.039999999999999994,0.09,0.035
3,11,22,1,7,0.25000000000000006,2,6,13,17,90,14,0.5300000000000001,0.08,0.03,0.18000000000000002,4,2,1,3,10,3,1,3,6,0.5,39,7,HL,0.053,0.02666666666666667,0.03,0.06
3,12,23,1,6,0.23000000000000007,4,6,5,61,104,2,0.5900000000000002,0.5100000000000002,0.13999999999999999,0.01,6,6,3,1,8,9,3,1,6,0,18,7,HL,0.07375000000000002,0.05666666666666667,0.04666666666666667,0.01
3,12,24,1,8,0.19000000000000003,2,3,118,54,39,49,0.4300000000000001,0.05,0.19000000000000003,0.01,4,1,2,1,5,1,3,1,2,0,15,7,HL,0.08600000000000002,0.05,0.06333333333333334,0.01
3,13,25,1,2,0.23000000000000007,2,4,55,43,50,47,0.5000000000000001,0.16,0.01,0.08,4,2,1,1,8,3,1,1,4,0,18,7,HL,0.0625,0.05333333333333334,0.01,0.08
3,13,26,1,9,0.15,2,3,65,2,29,116,0.3,0.26000000000000006,0.23000000000000007,0.04,4,2,2,1,7,6,3,1,4,0,17,7,HL,0.04285714285714286,0.043333333333333335,0.07666666666666666,0.04
3,14,27,1,10,0.17,2,4,87,7,27,95,0.36000000000000004,0.060000000000000005,0.19000000000000003,0.04,4,1,2,1,10,1,3,1,3,0,17,7,HL,0.036,0.060000000000000005,0.06333333333333332,0.04
3,14,28,1,1,0.17,2,4,79,77,43,103,0.32,0.15,0.21000000000000005,0.04,4,2,2,1,6,3,3,1,3,0,13,7,HL,0.05333333333333333,0.05,0.06999999999999999,0.04
3,15,29,1,5,0.19000000000000003,2,3,42,37,103,99,0.44000000000000006,0.01,0.13999999999999999,0.12999999999999998,3,1,1,2,4,1,1,3,5,0,14,7,HL,0.11000000000000001,0.01,0.13999999999999999,0.04333333333333333
3,15,30,1,8,0.18000000000000002,2,6,115,28,87,2,0.4100000000000001,0.11999999999999998,0.22000000000000006,0.05,4,1,1,1,10,1,2,1,2,0,16,7,HL,0.041,0.11999999999999998,0.11000000000000001,0.05
3,16,31,1,10,0.25000000000000006,2,5,87,101,93,27,0.42000000000000004,0.3300000000000001,0.26000000000000006,0.01,4,2,2,1,9,2,3,1,3,0,13,7,HL,0.04666666666666666,0.16500000000000004,0.08666666666666668,0.01
3,16,32,1,5,0.18000000000000002,2,3,47,111,74,3,0.45000000000000007,0.11999999999999998,0.5500000000000003,0.02,6,1,5,1,9,1,5,1,5,0,16,7,HL,0.049999999999999996,0.11999999999999998,0.11000000000000003,0.02
3,17,33,1,7,0.20000000000000004,3,7,14,84,98,97,0.5600000000000002,0.12999999999999998,0.02,0.09999999999999999,6,2,1,2,11,4,1,3,6,0,13,7,HL,0.05090909090909091,0.0325,0.02,0.03333333333333333
3,17,34,1,3,0.25000000000000006,2,4,32,90,87,31,0.5100000000000001,0.12999999999999998,0.060000000000000005,0.060000000000000005,5,1,1,1,8,1,1,1,5,0,16,7,HL,0.06375,0.12999999999999998,0.060000000000000005,0.060000000000000005
3,18,35,1,5,0.17,2,5,47,60,91,57,0.42000000000000004,0.11999999999999998,0.10999999999999999,0.10999999999999999,4,1,2,2,9,1,2,2,5,0,16,7,HL,0.04666666666666666,0.11999999999999998,0.05500000000000001,0.05499999999999999
3,18,36,1,6,0.2800000000000001,2,7,10,3,105,28,0.5000000000000001,0.13999999999999999,0.9600000000000006,0.10999999999999999,4,1,10,1,12,1,15,1,6,0,19,7,HL,0.041666666666666664,0.13999999999999999,0.064,0.10999999999999999
3,19,37,1,8,0.10999999999999999,2,3,117,84,45,118,0.5000000000000002,0.12999999999999998,0.4000000000000002,0.07,5,2,5,2,7,3,6,2,2,0,12,7,HL,0.07142857142857144,0.043333333333333335,0.06666666666666667,0.035
3,19,38,1,4,0.4300000000000002,2,7,107,94,18,21,0.6300000000000002,0.3200000000000001,0.060000000000000005,0.13999999999999999,5,2,1,2,15,2,1,2,2,0,17,7,HL,0.042,0.16000000000000006,0.060000000000000005,0.06999999999999999
3,20,39,1,10,0.20000000000000004,5,6,93,108,16,105,0.36000000000000004,0.11999999999999998,0.09999999999999999,0.11999999999999998,7,1,1,2,8,1,1,4,3,0,13,7,HL,0.045,0.11999999999999998,0.09999999999999999,0.03
3,20,40,1,8,0.17,2,3,111,82,120,77,0.29,0.11999999999999998,0.16,0.01,4,1,2,1,5,1,2,1,2,0,10,7,HL,0.057999999999999996,0.11999999999999998,0.08,0.01
3,21,41,1,6,0.23000000000000007,3,4,12,74,7,9,0.4100000000000001,0.21000000000000005,0.060000000000000005,0.34000000000000014,5,2,1,4,6,4,1,5,6,0.5,39,7,HL,0.06833333333333333,0.0525,0.060000000000000005,0.068
3,21,42,1,3,0.18000000000000002,2,4,34,15,89,20,0.4600000000000001,0.10999999999999999,0.16,0.01,4,2,2,1,7,2,2,1,5,0,20,7,HL,0.06571428571428571,0.05499999999999999,0.07999999999999999,0.01
3,22,43,1,5,0.15,2,5,46,39,43,72,0.31,0.05,0.19000000000000003,0.19000000000000003,3,1,4,2,6,1,5,7,5,0.5,34,7,HL,0.051666666666666666,0.05,0.038,0.027142857142857142
3,22,44,1,4,0.15,2,6,106,33,102,32,0.22999999999999998,0.5200000000000002,0.01,0.2700000000000001,3,4,1,3,7,5,1,3,2,0,14,7,HL,0.032857142857142856,0.10400000000000001,0.01,0.09000000000000002
4,1,1,0,10,0.25000000000000006,2,4,85,54,51,88,0.7700000000000002,0.03,0.13999999999999999,0.09,5,1,1,1,8,1,1,1,3,0,14,7,HL,0.09625000000000002,0.03,0.13999999999999999,0.09
4,1,2,0,1,0.21000000000000005,2,3,76,80,31,32,0.6300000000000002,0.19000000000000003,1.410000000000001,0.09,4,2,5,3,5,3,6,3,3,0,16,7,HL,0.126,0.06333333333333334,0.23500000000000007,0.03
4,2,3,0,3,0.19000000000000003,2,3,36,63,71,112,0.7400000000000003,0.7500000000000004,0.2900000000000001,0.09,4,2,1,3,5,5,1,3,5,0,15,7,HL,0.14800000000000005,0.15000000000000002,0.2900000000000001,0.03
4,2,4,0,2,0.45000000000000023,2,4,82,49,52,74,1.2300000000000006,0.05,0.10999999999999999,0.08,5,1,1,1,9,1,1,1,4,0,14,7,HL,0.1366666666666667,0.05,0.10999999999999999,0.08
4,3,5,0,8,0.20000000000000004,2,4,80,113,77,51,0.8800000000000004,0.04,0.15,0.02,4,1,2,1,9,1,2,1,2,0,12,7,HL,0.0977777777777778,0.04,0.075,0.02
4,3,6,0,6,0.22000000000000006,2,3,11,88,10,44,0.5900000000000002,0.5900000000000003,0.11999999999999998,0.04,4,2,2,1,5,2,2,1,6,0,20,7,HL,0.11800000000000001,0.2950000000000001,0.06,0.04
4,4,7,0,8,0.20000000000000004,2,5,112,38,62,80,0.6600000000000003,0.38000000000000017,0.17,0.09,4,1,1,1,9,1,1,1,2,0,14,7,HL,0.07333333333333333,0.38000000000000017,0.17,0.09
4,4,8,0,6,0.23000000000000007,2,3,12,4,11,8,0.6800000000000003,0.24000000000000007,0.03,4.43999999999995,4,2,1,10,5,2,1,17,6,1,72,7,HL,0.136,0.11999999999999998,0.03,0.2611764705882354
4,5,9,0,9,0.26000000000000006,2,3,61,71,95,38,0.6600000000000003,0.11999999999999998,0.3200000000000001,0.060000000000000005,3,1,2,1,4,2,3,1,4,0,16,7,HL,0.16500000000000004,0.06,0.10666666666666666,0.060000000000000005
4,5,10,0,3,0.26000000000000006,2,3,56,36,83,33,0.7000000000000003,0.09,0.4300000000000002,0.37000000000000016,3,1,2,3,4,1,5,4,5,0,17,7,HL,0.17500000000000004,0.09,0.08600000000000001,0.0925
4,6,11,0,1,0.21000000000000005,2,3,47,79,63,6,0.7400000000000003,0.10999999999999999,0.22000000000000006,0.3000000000000001,4,1,2,1,6,1,3,1,3,0,18,7,HL,0.12333333333333338,0.10999999999999999,0.07333333333333333,0.3000000000000001
4,6,12,0,10,0.21000000000000005,2,3,92,85,49,32,0.5600000000000002,0.20000000000000004,0.5700000000000003,0.02,4,1,3,1,5,1,4,1,3,0,15,7,HL,0.112,0.20000000000000004,0.14250000000000004,0.02
4,7,13,1,1,0.36000000000000015,2,3,79,19,84,73,1.0800000000000005,0.47000000000000025,0.08,0.01,4,2,1,1,5,3,1,1,3,0.5,24,7,HL,0.21600000000000008,0.1566666666666667,0.08,0.01
4,7,14,1,5,0.35000000000000014,3,6,38,119,115,55,0.6200000000000002,0.4100000000000002,0.13999999999999999,0.060000000000000005,5,2,1,2,8,2,1,2,5,0,13,7,HL,0.0775,0.20500000000000004,0.13999999999999999,0.030000000000000002
4,8,15,1,6,0.2900000000000001,2,5,12,66,96,45,0.6300000000000002,0.3200000000000001,0.23000000000000007,0.04,4,1,1,1,7,1,1,1,6,0,18,7,HL,0.09000000000000001,0.3200000000000001,0.23000000000000007,0.04
4,8,16,1,1,0.24000000000000007,2,3,76,55,56,51,0.8300000000000004,0.13999999999999999,0.11999999999999998,0.08,4,1,1,1,9,1,1,1,3,0.5,27,7,HL,0.09222222222222222,0.13999999999999999,0.11999999999999998,0.08
4,9,17,1,9,0.23000000000000007,2,3,72,45,42,37,0.5100000000000001,0.2900000000000001,0.12999999999999998,0.09999999999999999,3,2,1,1,4,3,1,1,4,0.5,34,7,HL,0.12750000000000003,0.09666666666666668,0.12999999999999998,0.09999999999999999
4,9,18,1,2,0.2800000000000001,2,3,50,74,30,25,0.5800000000000002,0.18000000000000002,0.20000000000000004,0.09999999999999999,4,1,2,1,5,1,2,1,4,0,17,7,HL,0.116,0.18000000000000002,0.1,0.09999999999999999
4,10,19,1,9,0.2800000000000001,2,4,64,66,48,11,0.7700000000000004,0.08,2.0400000000000005,0.04,4,1,5,1,8,1,6,1,4,0,19,7,HL,0.09625,0.08,0.3400000000000002,0.04
4,10,20,1,3,0.22000000000000006,2,4,27,29,88,51,0.6200000000000002,0.10999999999999999,0.16,0.19000000000000003,3,1,1,2,5,1,1,2,5,0,17,7,HL,0.12400000000000004,0.10999999999999999,0.16,0.095
4,11,21,1,5,0.4100000000000002,2,3,42,83,58,3,0.7700000000000004,0.36000000000000015,0.09999999999999999,0.10999999999999999,4,2,1,1,5,3,1,1,5,0,18,7,HL,0.15400000000000003,0.12000000000000001,0.09999999999999999,0.10999999999999999
4,11,22,1,10,0.35000000000000014,4,7,96,13,68,24,1.1500000000000006,0.10999999999999999,0.03,0.18000000000000002,6,1,1,1,9,1,1,1,3,0,19,7,HL,0.12777777777777782,0.10999999999999999,0.03,0.18000000000000002
4,12,23,1,7,0.20000000000000004,2,3,22,20,16,14,0.6000000000000002,0.09999999999999999,1.0700000000000007,0.02,4,1,2,2,6,1,2,2,6,1,72,7,HL,0.10000000000000002,0.09999999999999999,0.5350000000000004,0.01
4,12,24,1,1,0.25000000000000006,2,3,83,61,9,62,0.7300000000000003,0.23000000000000007,0.11999999999999998,0.05,4,1,1,1,5,1,1,1,3,0,17,7,HL,0.14600000000000002,0.23000000000000007,0.11999999999999998,0.05
4,13,25,1,4,0.23000000000000007,2,4,97,105,68,70,0.6400000000000002,0.18000000000000002,0.19000000000000003,0.3000000000000001,4,2,1,2,6,4,1,2,2,0,12,7,HL,0.10666666666666669,0.04499999999999999,0.19000000000000003,0.15000000000000002
4,13,26,1,8,0.18000000000000002,2,3,120,111,5,36,0.5200000000000001,0.13999999999999999,0.4200000000000002,0.03,3,1,2,1,4,1,3,1,2,0,15,7,HL,0.13000000000000003,0.13999999999999999,0.14,0.03
4,14,27,1,8,0.18000000000000002,2,3,110,119,3,66,0.6100000000000002,0.060000000000000005,0.2900000000000001,0.11999999999999998,4,1,1,1,9,1,1,1,2,0,14,7,HL,0.06777777777777777,0.060000000000000005,0.2900000000000001,0.11999999999999998
4,14,28,1,2,0.26000000000000006,2,4,53,50,28,108,0.5700000000000002,0.3200000000000001,0.2700000000000001,0.13999999999999999,3,2,1,1,5,3,1,1,4,0,15,7,HL,0.11400000000000002,0.10666666666666666,0.2700000000000001,0.13999999999999999
4,15,29,1,4,0.19000000000000003,2,3,97,39,103,67,0.5000000000000001,0.3300000000000001,0.09,0.08,4,2,1,1,5,2,1,1,2,0,13,7,HL,0.10000000000000002,0.16500000000000004,0.09,0.08
4,15,30,1,3,0.3200000000000001,3,4,25,35,30,79,0.7200000000000003,0.25000000000000006,0.13999999999999999,0.04,4,2,2,1,5,3,2,1,5,0.5,33,7,HL,0.14400000000000004,0.08333333333333333,0.07,0.04
4,16,31,1,10,0.23000000000000007,2,3,95,85,38,65,0.7500000000000003,0.10999999999999999,0.13999999999999999,0.17,5,1,1,1,6,1,1,1,3,0,15,7,HL,0.12500000000000003,0.10999999999999999,0.13999999999999999,0.17
4,16,32,1,8,0.23000000000000007,2,3,56,120,21,83,0.7100000000000003,0.08,0.4100000000000002,0.04,4,1,2,1,6,1,2,1,2,0,15,7,HL,0.11833333333333335,0.08,0.20500000000000004,0.04
4,17,33,1,8,0.37000000000000016,7,8,26,119,31,68,1.0000000000000004,0.05,0.13999999999999999,0.060000000000000005,9,1,1,1,11,1,1,1,2,0,16,7,HL,0.09090909090909093,0.05,0.13999999999999999,0.060000000000000005
4,17,34,1,2,0.25000000000000006,2,3,51,59,90,9,0.6000000000000002,0.13999999999999999,0.21000000000000005,0.23000000000000007,3,1,1,1,4,1,1,1,4,0,17,7,HL,0.15000000000000002,0.13999999999999999,0.21000000000000005,0.23000000000000007
4,18,35,1,3,0.2800000000000001,4,7,4,32,96,70,0.8500000000000003,0.10999999999999999,0.10999999999999999,2.020000000000001,5,1,2,5,8,1,2,8,5,0,18,7,HL,0.10625000000000004,0.10999999999999999,0.05500000000000001,0.2525000000000001
4,18,36,1,1,0.3000000000000001,2,3,40,77,84,44,0.7500000000000003,0.12999999999999998,0.15,0.13999999999999999,3,1,2,1,4,1,3,1,3,0,16,7,HL,0.18750000000000006,0.12999999999999998,0.05,0.13999999999999999
4,19,37,1,8,0.25000000000000006,2,4,109,82,118,116,0.7700000000000002,0.060000000000000005,0.22000000000000006,0.09999999999999999,4,1,2,1,6,1,2,1,2,0.5,15,7,HL,0.12833333333333338,0.060000000000000005,0.10999999999999999,0.09999999999999999
4,19,38,1,10,0.2800000000000001,1,2,91,13,86,103,0.9900000000000004,0.060000000000000005,0.10999999999999999,0.09,3,1,1,1,4,1,1,1,3,0,14,7,HL,0.24750000000000008,0.060000000000000005,0.10999999999999999,0.09
4,20,39,1,2,0.25000000000000006,2,3,55,51,2,7,0.6100000000000002,0.12999999999999998,0.2900000000000001,0.16,3,1,1,1,4,1,1,1,4,0,20,7,HL,0.15250000000000002,0.12999999999999998,0.2900000000000001,0.16
4,20,40,1,9,0.24000000000000007,2,3,63,80,37,48,0.6800000000000003,0.3200000000000001,0.20000000000000004,0.07,4,2,2,1,5,2,2,1,4,0,17,7,HL,0.136,0.16,0.1,0.07
4,21,41,1,3,0.13999999999999999,2,2,15,96,62,19,22.370000000000676,0.01,0.01,0.01,20,1,1,1,59,1,1,1,5,0,19,7,HL,0.37915254237288154,0.01,0.01,0.01
4,21,42,1,4,0.23000000000000007,2,3,59,108,80,60,0.6700000000000003,0.3100000000000001,0.02,0.08,3,2,1,1,4,3,1,1,2,0,13,7,HL,0.16750000000000007,0.10333333333333336,0.02,0.08
4,22,43,1,10,0.23000000000000007,2,3,97,91,6,53,0.8400000000000004,0.08,0.17,0.07,4,1,1,1,6,1,1,1,3,0,15,7,HL,0.14,0.08,0.17,0.07
4,22,44,1,8,0.24000000000000007,2,6,115,74,78,15,0.6800000000000003,0.21000000000000005,0.15,0.10999999999999999,4,1,1,1,8,1,1,1,2,0,14,7,HL,0.085,0.21000000000000005,0.15,0.10999999999999999
5,1,1,0,10,0.15,2,2,14,43,19,17,32.430000000002146,0.01,0.05,0.22000000000000006,20,1,1,2,115,1,1,3,3,0.5,23,7,HL,0.28200000000000014,0.01,0.05,0.07333333333333335
5,1,2,0,8,0.4400000000000002,2,3,111,119,117,1,1.4400000000000008,5.009999999999938,0.7300000000000004,0.7400000000000004,4,11,4,1,5,16,5,1,2,0.5,12,7,HL,0.28800000000000014,0.31312500000000015,0.14600000000000002,0.7400000000000004
5,2,3,0,2,0.6300000000000003,2,3,52,56,119,60,4.739999999999958,0.7200000000000004,2.5499999999999896,0.8600000000000005,12,3,6,4,19,3,17,4,4,0.5,14,7,HL,0.2494736842105264,0.2400000000000001,0.15000000000000005,0.21500000000000005
5,2,4,0,1,0.6900000000000004,6,9,74,79,84,82,3.1799999999999913,8.049999999999873,0.9100000000000006,0.5100000000000002,12,12,4,2,19,26,4,2,3,1,36,7,HL,0.16736842105263164,0.3096153846153848,0.2275000000000001,0.2550000000000001
5,3,5,0,10,0.5600000000000003,8,8,94,5,86,104,3.6899999999999773,4.619999999999946,0.19000000000000003,4.819999999999942,16,7,3,8,21,10,3,23,3,0,14,7,HL,0.17571428571428577,0.46200000000000024,0.06333333333333332,0.20956521739130443
5,3,6,0,8,0.5600000000000003,2,6,115,53,43,54,1.3500000000000008,4.339999999999952,3.0799999999999783,0.4400000000000002,4,11,6,3,8,20,10,3,2,0,15,7,HL,0.16875000000000007,0.21700000000000008,0.3080000000000001,0.14666666666666667
5,4,7,0,7,0.6000000000000003,3,6,13,58,47,21,24.39000000000092,0.01,0.01,0.01,20,1,1,1,70,1,1,1,6,0,21,7,HL,0.3484285714285716,0.01,0.01,0.01
5,4,8,0,6,0.5300000000000002,2,3,12,106,5,100,2.799999999999996,4.659999999999945,2.249999999999996,2.159999999999998,6,10,6,5,10,16,8,5,6,0,16,7,HL,0.2800000000000001,0.2912500000000001,0.2812500000000001,0.4320000000000002
5,5,9,0,1,0.5800000000000003,2,5,99,82,79,43,3.329999999999986,0.8100000000000005,1.6500000000000012,0.8600000000000005,6,4,5,2,11,5,8,3,3,0,13,7,HL,0.30272727272727284,0.16200000000000003,0.20625000000000007,0.28666666666666674
5,5,10,0,8,0.7300000000000004,2,6,116,3,111,8,4.769999999999959,0.8500000000000005,3.039999999999979,0.18000000000000002,10,3,11,1,19,4,14,1,2,0,16,7,HL,0.25105263157894747,0.21250000000000008,0.21714285714285722,0.18000000000000002
5,6,11,0,2,0.6000000000000003,2,5,107,4,49,9,3.829999999999975,2.199999999999997,0.8800000000000006,0.36000000000000015,9,6,5,2,13,9,8,3,4,0,18,7,HL,0.2946153846153847,0.24444444444444455,0.11000000000000001,0.12
5,6,12,0,9,1.1700000000000008,10,11,64,68,110,18,5.219999999999959,1.450000000000001,0.8500000000000005,1.440000000000001,19,4,3,4,31,6,3,4,4,0,16,7,HL,0.16838709677419358,0.24166666666666675,0.28333333333333344,0.36000000000000015
5,7,13,1,3,0.4000000000000002,2,3,25,36,101,28,1.750000000000001,3.3099999999999734,1.1700000000000008,0.25000000000000006,5,7,2,2,7,15,3,2,5,0.5,32,7,HL,0.2500000000000001,0.22066666666666676,0.3900000000000002,0.12500000000000003
5,7,14,1,7,1.5300000000000011,3,7,116,17,119,18,2.8500000000000023,3.2999999999999736,6.7599999999999,0.09999999999999999,6,4,11,2,14,11,22,2,6,0,16,7,HL,0.20357142857142863,0.30000000000000016,0.3072727272727274,0.05
5,8,15,1,2,0.49000000000000027,2,4,2,54,52,106,5.829999999999931,0.2800000000000001,1.410000000000001,0.13999999999999999,10,1,4,1,21,1,7,1,4,0,16,7,HL,0.2776190476190477,0.2800000000000001,0.20142857142857148,0.13999999999999999
5,8,16,1,7,2.0300000000000007,4,8,14,15,116,64,11.519999999999843,2.3699999999999934,0.4200000000000002,0.12999999999999998,19,8,7,1,39,11,7,1,6,0,18,7,HL,0.2953846153846155,0.21545454545454554,0.06,0.12999999999999998
5,9,17,1,5,0.5400000000000003,2,3,45,46,72,19,4.059999999999969,0.46000000000000024,3.5399999999999685,0.38000000000000017,7,1,8,2,15,1,12,3,5,0,20,7,HL,0.2706666666666668,0.46000000000000024,0.2950000000000001,0.12666666666666668
5,9,18,1,2,0.8900000000000006,4,7,84,78,9,53,5.9799999999999365,0.2800000000000001,0.6300000000000003,0.38000000000000017,13,1,2,2,29,1,4,4,4,0,16,7,HL,0.20620689655172422,0.2800000000000001,0.15750000000000006,0.095
5,10,19,1,1,0.9500000000000006,3,8,13,20,15,111,5.0299999999999585,0.8800000000000006,9.359999999999845,0.01,9,4,15,1,27,6,33,1,3,0.5,38,7,HL,0.18629629629629635,0.1466666666666667,0.28363636363636374,0.01
5,10,20,1,6,0.8300000000000005,2,7,7,6,9,4,1.8100000000000012,2.4699999999999913,6.489999999999906,0.36000000000000015,3,6,12,2,8,8,18,2,6,1,72,7,HL,0.2262500000000001,0.30875000000000014,0.36055555555555574,0.18000000000000005
5,11,21,1,8,0.5900000000000003,2,5,5,111,73,75,3.60999999999998,4.7799999999999425,0.9800000000000006,1.7500000000000013,8,7,3,5,14,13,3,6,2,0,14,7,HL,0.25785714285714295,0.36769230769230793,0.32666666666666677,0.2916666666666668
5,11,22,1,7,0.15,2,2,19,42,95,24,22.74000000000073,0.02,0.02,0.09,20,1,1,2,63,1,1,2,6,0,20,7,HL,0.36095238095238114,0.02,0.02,0.045
5,12,23,1,5,0.4000000000000002,3,4,37,92,39,21,3.8199999999999714,5.629999999999924,0.3100000000000001,0.3900000000000002,9,12,3,2,18,21,3,2,5,0,19,7,HL,0.21222222222222228,0.2680952380952382,0.10333333333333335,0.19500000000000006
5,12,24,1,6,0.6900000000000004,2,4,4,3,115,9,4.219999999999969,0.5200000000000002,1.7100000000000013,0.7000000000000004,12,1,5,2,16,1,8,2,6,0.5,38,7,HL,0.2637500000000001,0.5200000000000002,0.21375000000000005,0.35000000000000014
5,13,25,1,3,0.45000000000000023,2,3,29,88,31,36,5.2399999999999425,0.6000000000000003,2.4099999999999926,0.21000000000000005,10,1,4,2,26,1,4,2,5,0.5,33,7,HL,0.2015384615384616,0.6000000000000003,0.6025000000000004,0.10499999999999998
5,13,26,1,1,0.3900000000000002,2,3,118,116,82,76,3.809999999999971,0.49000000000000027,0.8100000000000005,0.23000000000000007,7,1,4,1,18,1,5,1,3,0,10,7,HL,0.21166666666666675,0.49000000000000027,0.16200000000000003,0.23000000000000007
5,14,27,1,5,0.5900000000000003,2,5,44,91,39,92,1.650000000000001,9.639999999999839,0.5100000000000002,0.8200000000000005,4,13,3,2,7,29,3,2,5,0,16,7,HL,0.23571428571428582,0.33241379310344843,0.17000000000000007,0.41000000000000014
5,14,28,1,8,1.300000000000001,14,18,26,114,109,116,8.389999999999894,0.20000000000000004,0.8700000000000006,0.5800000000000003,20,2,3,3,48,2,3,3,2,0.5,17,7,HL,0.17479166666666673,0.09999999999999999,0.29000000000000015,0.1933333333333334
5,15,29,1,7,1.9900000000000015,3,11,45,113,117,112,5.619999999999968,1.9400000000000015,2.899999999999982,1.370000000000001,12,5,7,4,22,8,8,5,6,0.5,17,7,HL,0.25545454545454555,0.2425000000000001,0.36250000000000016,0.27400000000000013
5,15,30,1,9,0.38000000000000017,6,6,95,3,67,64,12.769999999999781,4.549999999999947,0.01,0.5800000000000003,20,9,1,4,46,15,1,4,4,0,17,7,HL,0.27760869565217405,0.30333333333333345,0.01,0.14500000000000005
5,16,31,1,10,0.5500000000000003,2,3,67,39,44,91,6.9099999999999095,0.23000000000000007,0.19000000000000003,0.13999999999999999,10,2,1,1,18,2,1,1,3,0,17,7,HL,0.38388888888888906,0.11500000000000002,0.19000000000000003,0.13999999999999999
5,16,32,1,1,0.8200000000000005,9,10,74,79,117,83,6.089999999999932,0.6000000000000003,0.8600000000000005,0.5600000000000003,17,3,4,3,28,6,7,3,3,0.5,20,7,HL,0.21750000000000008,0.1,0.12285714285714286,0.1866666666666667
5,17,33,1,3,0.47000000000000025,2,3,25,29,33,91,10.469999999999832,1.0100000000000007,0.04,2.439999999999992,20,3,1,7,53,3,1,10,5,0.5,33,7,HL,0.1975471698113208,0.33666666666666684,0.04,0.2440000000000001
5,17,34,1,5,1.1600000000000008,8,10,76,119,79,114,5.809999999999946,5.269999999999932,0.38000000000000017,2.4599999999999915,19,9,3,6,31,21,3,6,5,0,10,7,HL,0.18741935483870975,0.25095238095238104,0.12666666666666665,0.4100000000000002
5,18,35,1,2,0.5700000000000003,2,5,51,34,116,35,3.0499999999999914,3.9599999999999596,0.35000000000000014,0.9000000000000006,6,5,2,4,9,10,2,6,4,0,16,7,HL,0.338888888888889,0.39600000000000024,0.17500000000000004,0.15000000000000002
5,18,36,1,9,0.34000000000000014,2,4,67,72,75,102,5.4399999999999356,1.370000000000001,0.7300000000000004,1.1900000000000008,10,4,2,4,27,4,3,7,4,0,13,7,HL,0.20148148148148154,0.3425000000000002,0.2433333333333334,0.17000000000000004
5,19,37,1,5,1.5100000000000011,6,9,85,89,48,42,4.159999999999989,1.9800000000000015,0.37000000000000016,1.320000000000001,13,5,1,4,20,8,1,14,5,0,16,7,HL,0.20800000000000007,0.24750000000000008,0.37000000000000016,0.09428571428571429
5,19,38,1,9,0.6400000000000003,2,6,66,101,63,31,2.370000000000002,2.3199999999999945,0.5000000000000002,0.7200000000000004,5,5,2,1,13,10,3,1,4,0,15,7,HL,0.18230769230769234,0.2320000000000001,0.16666666666666669,0.7200000000000004
5,20,39,1,6,0.8200000000000005,2,6,55,98,11,57,4.80999999999996,2.9799999999999804,0.23000000000000007,0.20000000000000004,11,6,2,1,19,12,2,1,6,0,16,7,HL,0.2531578947368422,0.24833333333333343,0.11499999999999999,0.20000000000000004
5,20,40,1,9,0.7100000000000004,7,7,84,116,77,82,7.129999999999908,1.1800000000000008,6.109999999999914,0.01,17,2,9,1,23,2,17,1,4,0.5,20,7,HL,0.3100000000000001,0.5900000000000003,0.35941176470588254,0.01
6,1,1,0,10,0.16,2,4,88,69,97,94,1.650000000000001,0.05,0.48000000000000026,0.01,4,1,1,1,6,1,1,1,3,0,12,7,HL,0.2750000000000002,0.05,0.48000000000000026,0.01
6,1,2,0,7,0.10999999999999999,2,2,14,73,83,81,2.739999999999988,0.01,0.01,0.01,7,1,1,1,8,1,1,1,6,0.5,15,7,HL,0.3425000000000002,0.01,0.01,0.01
6,2,3,0,6,0.16,2,3,81,27,6,12,1.0600000000000005,0.7100000000000004,0.01,0.01,5,1,1,1,7,1,1,1,6,0,20,7,HL,0.15142857142857147,0.7100000000000004,0.01,0.01
6,2,4,0,5,0.18000000000000002,3,4,44,43,16,15,0.6200000000000002,0.20000000000000004,0.3300000000000001,0.13999999999999999,5,2,1,1,6,2,1,1,5,0,22,7,HL,0.10333333333333336,0.1,0.3300000000000001,0.13999999999999999
6,3,5,0,9,0.18000000000000002,2,3,21,45,72,22,0.8400000000000004,0.5200000000000002,0.04,0.05,4,3,2,1,6,3,2,1,4,0,21,7,HL,0.14000000000000004,0.1733333333333334,0.02,0.05
6,3,6,0,1,0.23000000000000007,2,3,81,8,25,10,0.7700000000000004,0.3300000000000001,0.09999999999999999,0.07,4,2,1,1,5,2,1,1,3,0,20,7,HL,0.15400000000000003,0.165,0.09999999999999999,0.07
6,4,7,0,4,0.3200000000000001,2,4,5,64,8,74,0.8900000000000003,0.13999999999999999,0.12999999999999998,0.09999999999999999,3,1,1,1,5,1,1,1,2,0,19,7,HL,0.17800000000000005,0.13999999999999999,0.12999999999999998,0.09999999999999999
6,4,8,0,8,0.20000000000000004,2,3,119,120,14,43,0.7000000000000003,0.5900000000000003,7.22999999999989,0.02,5,2,8,1,7,2,13,1,2,0,15,7,HL,0.1,0.29500000000000015,0.5561538461538462,0.02
6,5,9,0,4,0.20000000000000004,2,3,99,2,3,105,2.5699999999999936,0.01,0.01,0.01,7,1,1,1,12,1,1,1,2,0,16,7,HL,0.21416666666666676,0.01,0.01,0.01
6,5,10,0,2,0.12999999999999998,2,3,20,114,111,118,0.8500000000000004,0.22000000000000006,0.09,0.08,3,1,1,1,4,1,1,1,4,0.5,12,7,HL,0.2125000000000001,0.22000000000000006,0.09,0.08
6,6,11,0,7,0.17,2,3,43,23,18,117,0.8900000000000005,1.2300000000000009,1.350000000000001,0.15,5,4,3,1,7,4,3,1,6,0,19,7,HL,0.12714285714285717,0.30750000000000016,0.4500000000000003,0.15
6,6,12,0,1,0.12999999999999998,2,3,83,98,81,33,0.6600000000000003,0.5200000000000002,0.3100000000000001,0.01,4,2,2,1,5,2,2,1,3,0,13,7,HL,0.13200000000000003,0.2600000000000001,0.15500000000000005,0.01
6,7,13,1,3,0.23000000000000007,2,3,101,32,7,31,1.2100000000000006,0.04,0.6500000000000004,0.01,4,1,2,1,5,1,2,1,5,0,18,7,HL,0.2420000000000001,0.04,0.3250000000000002,0.01
6,7,14,1,10,0.21000000000000005,2,3,13,113,110,37,0.7800000000000004,0.21000000000000005,0.15,0.3000000000000001,3,1,1,1,4,1,1,1,3,0,15,7,HL,0.19500000000000006,0.21000000000000005,0.15,0.3000000000000001
6,8,15,1,5,0.35000000000000014,6,7,43,14,40,79,0.9700000000000004,0.25000000000000006,0.08,0.04,8,3,2,1,10,3,2,1,5,0,19,7,HL,0.09700000000000002,0.08333333333333333,0.04,0.04
6,8,16,1,6,0.17,2,3,5,26,88,28,20.160000000000327,0.01,0.02,0.8000000000000005,17,1,1,2,30,1,1,2,6,0,19,7,HL,0.6720000000000004,0.01,0.02,0.40000000000000024
6,9,17,1,5,0.16,2,2,13,71,103,81,17.759999999999952,0.01,0.01,0.01,17,1,1,1,37,1,1,1,5,0,15,7,HL,0.4800000000000002,0.01,0.01,0.01
6,9,18,1,2,0.24000000000000007,2,4,50,60,12,10,0.9400000000000005,0.09999999999999999,0.10999999999999999,0.060000000000000005,4,1,1,1,7,1,1,1,4,0,20,7,HL,0.1342857142857143,0.09999999999999999,0.10999999999999999,0.060000000000000005
6,10,19,1,7,0.23000000000000007,3,4,32,17,84,51,0.9300000000000005,1.7300000000000013,0.8700000000000006,0.01,5,4,4,1,6,4,4,1,6,0,18,7,HL,0.15500000000000005,0.4325000000000003,0.21750000000000008,0.01
6,10,20,1,6,0.16,1,2,66,39,94,12,0.7200000000000003,2.239999999999996,0.36000000000000015,0.01,2,2,2,1,3,2,2,1,6,0,18,7,HL,0.2400000000000001,1.1199999999999983,0.18000000000000002,0.01
6,11,21,1,8,0.17,2,3,119,74,111,54,0.6500000000000002,0.2800000000000001,0.12999999999999998,0.11999999999999998,3,1,2,2,4,1,2,2,2,0,11,7,HL,0.16250000000000006,0.2800000000000001,0.065,0.05999999999999999
6,11,22,1,10,0.26000000000000006,2,4,22,105,36,90,1.0500000000000005,0.12999999999999998,0.04,0.03,4,1,1,2,8,1,1,2,3,0,16,7,HL,0.13125000000000003,0.12999999999999998,0.04,0.015
6,12,23,1,4,0.15,1,2,6,84,65,7,0.7300000000000003,0.4300000000000002,0.16,0.01,2,1,2,1,3,1,3,1,2,0,19,7,HL,0.24333333333333343,0.4300000000000002,0.05333333333333334,0.01
6,12,24,1,8,0.19000000000000003,3,4,116,41,56,51,0.6600000000000003,0.17,0.21000000000000005,0.24000000000000007,5,1,1,2,6,1,1,2,2,0,15,7,HL,0.11000000000000001,0.17,0.21000000000000005,0.12000000000000002
6,13,25,1,9,0.3000000000000001,3,4,16,27,91,90,3.819999999999969,0.01,1.0800000000000007,0.01,8,1,1,1,9,1,2,1,4,0,17,7,HL,0.4244444444444447,0.01,0.5400000000000003,0.01
6,13,26,1,6,0.10999999999999999,1,2,73,46,47,52,1.1000000000000005,0.08,0.09,0.22000000000000006,3,1,1,1,5,1,1,1,6,0,17,7,HL,0.22000000000000008,0.08,0.09,0.22000000000000006
6,14,27,1,10,0.20000000000000004,2,3,47,5,86,106,0.7300000000000003,0.36000000000000015,0.24000000000000007,0.01,3,2,2,1,4,2,2,1,3,0,16,7,HL,0.18250000000000005,0.18000000000000002,0.12000000000000002,0.01
6,14,28,1,3,0.25000000000000006,2,3,31,64,20,62,0.6600000000000003,0.3100000000000001,0.19000000000000003,1.1500000000000008,4,1,2,2,5,1,2,2,5,0,19,7,HL,0.13200000000000003,0.3100000000000001,0.095,0.5750000000000004
6,15,29,1,2,0.09,2,3,52,19,104,22,0.5000000000000002,0.4400000000000002,0.060000000000000005,0.25000000000000006,4,3,1,2,5,3,1,3,4,0,18,7,HL,0.10000000000000002,0.1466666666666667,0.060000000000000005,0.08333333333333334
6,15,30,1,9,0.23000000000000007,2,5,68,115,4,6,0.6900000000000003,0.48000000000000026,0.060000000000000005,0.05,3,1,1,1,6,1,1,1,4,0,18,7,HL,0.11500000000000005,0.48000000000000026,0.060000000000000005,0.05
6,16,31,1,5,0.19000000000000003,2,4,44,70,101,21,0.6400000000000002,0.6400000000000003,0.05,0.02,4,2,1,1,6,3,1,1,5,0,17,7,HL,0.1066666666666667,0.2133333333333334,0.05,0.02
6,16,32,1,2,0.15,2,3,58,51,119,57,1.3200000000000007,0.03,0.060000000000000005,0.01,6,1,1,1,7,1,1,1,4,0.5,26,7,HL,0.18857142857142864,0.03,0.060000000000000005,0.01
6,17,33,1,9,0.22000000000000006,2,4,101,9,4,68,0.9300000000000005,0.10999999999999999,0.11999999999999998,0.03,5,1,1,1,7,1,1,2,4,0,18,7,HL,0.1328571428571429,0.10999999999999999,0.11999999999999998,0.015
6,17,34,1,8,0.16,3,4,109,18,53,41,0.4900000000000001,0.26000000000000006,0.5000000000000002,0.6900000000000004,5,1,2,2,6,1,2,2,2,0,17,7,HL,0.08166666666666668,0.26000000000000006,0.2500000000000001,0.3450000000000002
6,18,35,1,7,0.36000000000000015,3,4,17,60,92,95,1.0200000000000005,2.439999999999992,0.01,0.3100000000000001,5,5,1,2,6,6,1,2,6,0,16,7,HL,0.17000000000000004,0.4066666666666669,0.01,0.15500000000000005
6,18,36,1,1,0.22000000000000006,2,4,61,7,63,105,0.7900000000000004,0.37000000000000016,0.07,0.03,3,1,1,1,5,1,1,1,3,0,16,7,HL,0.15800000000000006,0.37000000000000016,0.07,0.03
6,19,37,1,10,0.21000000000000005,2,4,96,64,15,85,0.6400000000000002,0.5200000000000002,0.08,0.02,4,2,1,1,6,2,1,1,3,0,16,7,HL,0.10666666666666669,0.26000000000000006,0.08,0.02
6,19,38,1,6,0.12999999999999998,2,3,7,60,102,99,0.8100000000000004,7.569999999999883,0.3000000000000001,2.389999999999993,4,11,2,9,9,13,2,10,6,0,14,7,HL,0.09,0.5823076923076926,0.15000000000000005,0.23900000000000007
6,20,39,1,2,0.18000000000000002,2,3,13,23,33,28,0.6500000000000002,0.4000000000000002,0.24000000000000007,0.02,3,1,2,1,4,1,3,1,4,0,22,7,HL,0.16250000000000006,0.4000000000000002,0.08,0.02
6,20,40,1,5,0.24000000000000007,4,5,66,107,42,12,0.7000000000000003,0.3000000000000001,0.09999999999999999,0.11999999999999998,5,2,1,1,6,2,1,1,5,0,17,7,HL,0.11666666666666671,0.15,0.09999999999999999,0.11999999999999998
6,21,41,1,10,0.16,2,3,120,86,85,6,0.8500000000000004,0.13999999999999999,0.060000000000000005,0.11999999999999998,3,2,1,1,4,3,1,1,3,0,14,7,HL,0.2125000000000001,0.04666666666666667,0.060000000000000005,0.11999999999999998
6,21,42,1,7,0.2900000000000001,2,4,71,108,61,97,0.9800000000000004,0.17,0.07,0.09999999999999999,4,1,1,1,6,1,1,1,6,0,12,7,HL,0.16333333333333339,0.17,0.07,0.09999999999999999
6,22,43,1,5,0.36000000000000015,3,5,66,1,72,10,0.8300000000000004,0.25000000000000006,0.08,0.060000000000000005,4,1,2,1,6,1,3,1,5,0,20,7,HL,0.13833333333333336,0.25000000000000006,0.02666666666666667,0.060000000000000005
6,22,44,1,4,0.23000000000000007,2,4,23,13,53,33,0.8600000000000004,5.129999999999935,0.3200000000000001,0.6400000000000003,4,7,1,2,7,7,1,2,2,0,21,7,HL,0.12285714285714289,0.7328571428571424,0.3200000000000001,0.3200000000000002
7,1,1,0,4,0.23000000000000007,2,4,101,75,2,69,0.5900000000000002,0.24000000000000007,0.13999999999999999,0.060000000000000005,4,1,1,1,6,1,1,1,2,0,15,7,HL,0.09833333333333336,0.24000000000000007,0.13999999999999999,0.060000000000000005
7,1,2,0,2,0.3300000000000001,6,7,52,59,33,55,0.4900000000000001,0.12999999999999998,1.6600000000000013,1.390000000000001,7,1,5,7,8,1,7,7,4,0.5,17,7,HL,0.06125,0.12999999999999998,0.23714285714285724,0.19857142857142862
7,2,3,0,8,0.25000000000000006,7,7,9,120,62,5,0.7100000000000003,0.04,0.21000000000000005,0.46000000000000024,9,1,2,2,10,1,2,2,2,0,18,7,HL,0.07100000000000001,0.04,0.10499999999999998,0.23000000000000012
7,2,4,0,2,0.24000000000000007,2,3,49,84,108,57,0.6300000000000002,0.2800000000000001,2.629999999999988,0.01,5,2,8,1,7,2,10,1,4,0,13,7,HL,0.09000000000000001,0.14000000000000004,0.26300000000000007,0.01
7,3,5,0,5,0.37000000000000016,9,10,42,1,6,9,0.5500000000000002,0.5700000000000003,0.38000000000000017,4.699999999999944,10,2,2,9,11,2,2,10,5,0.5,23,7,HL,0.05,0.2850000000000001,0.19000000000000003,0.4700000000000003
7,3,6,0,2,0.46000000000000024,18,18,59,115,28,90,0.7200000000000003,0.35000000000000014,0.23000000000000007,0.09999999999999999,20,2,2,2,21,2,3,2,4,0,14,7,HL,0.03428571428571429,0.17500000000000004,0.07666666666666666,0.05
7,4,7,0,5,0.26000000000000006,2,3,43,45,94,39,0.5100000000000001,0.060000000000000005,1.7700000000000014,0.01,3,1,3,1,4,1,3,1,5,0.5,18,7,HL,0.1275,0.060000000000000005,0.5900000000000004,0.01
7,4,8,0,1,0.16,2,3,74,76,71,103,0.3,0.07,0.34000000000000014,0.09,3,1,1,1,4,1,1,1,3,0,12,7,HL,0.075,0.07,0.34000000000000014,0.09
7,5,9,0,3,0.2800000000000001,2,4,34,99,89,55,0.5800000000000002,0.11999999999999998,0.19000000000000003,0.05,4,1,1,1,6,1,1,1,5,0,14,7,HL,0.09666666666666668,0.11999999999999998,0.19000000000000003,0.05
7,5,10,0,5,0.5900000000000003,10,11,114,75,15,84,2.759999999999998,0.8000000000000005,4.319999999999952,0.01,16,4,8,1,18,4,14,1,5,0,14,7,HL,0.15333333333333338,0.20000000000000007,0.3085714285714287,0.01
7,6,11,0,2,0.48000000000000026,3,5,27,51,74,14,0.7900000000000004,0.01,0.060000000000000005,0.26000000000000006,4,1,1,2,6,1,1,2,4,0,18,7,HL,0.1316666666666667,0.01,0.060000000000000005,0.13000000000000003
7,6,12,0,9,0.26000000000000006,2,3,64,70,111,120,0.4900000000000001,0.45000000000000023,0.13999999999999999,0.03,4,3,1,1,6,3,1,1,4,0,12,7,HL,0.08166666666666667,0.15000000000000005,0.13999999999999999,0.03
7,7,13,1,3,0.23000000000000007,2,3,36,34,82,35,0.5000000000000001,0.09999999999999999,0.4100000000000002,0.02,3,1,4,1,4,1,4,1,5,0.5,33,7,HL,0.125,0.09999999999999999,0.10250000000000002,0.02
7,7,14,1,5,0.2900000000000001,2,3,43,37,63,2,0.5400000000000001,0.6100000000000003,0.01,0.09,4,4,1,2,5,4,1,2,5,0,20,7,HL,0.108,0.15250000000000002,0.01,0.045
7,8,15,1,10,0.18000000000000002,2,3,12,92,106,85,0.44000000000000006,0.03,0.5600000000000003,0.01,3,1,4,1,4,1,5,1,3,0,14,7,HL,0.11000000000000001,0.03,0.11200000000000003,0.01
7,8,16,1,7,0.26000000000000006,2,6,18,16,13,14,0.38000000000000006,0.10999999999999999,3.559999999999968,0.01,3,1,12,1,7,1,13,1,6,1,72,7,HL,0.054285714285714284,0.10999999999999999,0.27384615384615396,0.01
7,9,17,1,1,0.20000000000000004,2,3,74,13,55,23,6.9899999999999,0.01,0.03,0.04,11,1,1,2,17,1,1,2,3,0,19,7,HL,0.4111764705882355,0.01,0.03,0.02
7,9,18,1,9,0.48000000000000026,3,4,2,66,67,1,0.6800000000000003,0.09999999999999999,0.3300000000000001,0.01,4,1,2,1,5,1,2,1,4,0,20,7,HL,0.13600000000000007,0.09999999999999999,0.16500000000000006,0.01
7,10,19,1,3,0.20000000000000004,2,3,36,101,31,71,0.4100000000000001,0.6400000000000003,0.02,0.09999999999999999,4,2,1,2,5,2,1,2,5,0,16,7,HL,0.08199999999999999,0.3200000000000002,0.02,0.05
7,10,20,1,1,1.1100000000000008,3,7,40,50,43,24,1.550000000000001,0.04,0.05,0.09999999999999999,4,1,1,2,8,1,1,2,3,0,20,7,HL,0.19375000000000006,0.04,0.05,0.05
7,11,21,1,1,0.22000000000000006,2,3,80,83,75,67,0.4300000000000001,0.12999999999999998,0.060000000000000005,0.2900000000000001,4,1,1,2,7,1,1,2,3,0.5,22,7,HL,0.06142857142857143,0.12999999999999998,0.060000000000000005,0.14500000000000002
7,11,22,1,6,2.1899999999999973,12,20,36,30,100,93,2.199999999999997,0.13999999999999999,0.6900000000000004,0.11999999999999998,13,2,2,2,21,2,4,3,6,0,15,7,HL,0.10476190476190479,0.06999999999999999,0.17250000000000007,0.04
7,12,23,1,2,0.2900000000000001,5,6,59,104,28,87,0.39000000000000007,0.34000000000000014,0.10999999999999999,0.03,7,2,1,1,8,2,1,1,4,0,14,7,HL,0.04875,0.17,0.10999999999999999,0.03
7,12,24,1,5,0.3200000000000001,2,3,48,71,44,6,0.4900000000000001,0.25000000000000006,0.09,0.07,4,1,1,1,5,1,1,1,5,0,20,7,HL,0.09799999999999999,0.25000000000000006,0.09,0.07
7,13,25,1,7,0.36000000000000015,2,4,13,54,21,30,0.6900000000000003,0.07,0.26000000000000006,0.02,4,1,2,1,8,1,2,1,6,0,21,7,HL,0.08625000000000001,0.07,0.13,0.02
7,13,26,1,8,0.21000000000000005,2,3,96,65,112,111,0.6400000000000002,0.2900000000000001,0.15,1.390000000000001,4,2,1,3,5,2,1,3,2,0,11,7,HL,0.12800000000000003,0.14500000000000002,0.15,0.4633333333333336
7,14,27,1,6,0.22000000000000006,2,3,38,6,5,9,0.46000000000000013,0.03,0.17,0.05,3,1,3,1,4,1,3,1,6,0.5,41,7,HL,0.11500000000000002,0.03,0.056666666666666664,0.05
7,14,28,1,10,0.12999999999999998,2,3,94,59,33,27,0.29,0.26000000000000006,0.12999999999999998,0.07,4,2,2,1,5,2,2,1,3,0,17,7,HL,0.057999999999999996,0.13000000000000003,0.065,0.07
7,15,29,1,6,0.5300000000000002,3,5,12,109,87,68,0.6300000000000002,0.2700000000000001,0.02,0.26000000000000006,4,1,1,2,6,1,1,3,6,0,15,7,HL,0.10500000000000004,0.2700000000000001,0.02,0.08666666666666668
7,15,30,1,4,0.2900000000000001,2,3,37,13,48,17,0.6700000000000003,5.119999999999935,0.18000000000000002,0.03,3,10,1,2,4,14,1,2,2,0,22,7,HL,0.16750000000000004,0.3657142857142859,0.18000000000000002,0.015
7,16,31,1,9,0.25000000000000006,3,5,62,63,5,66,0.4600000000000001,0.05,0.34000000000000014,0.05,4,1,1,1,6,1,1,1,4,0.5,30,7,HL,0.07666666666666667,0.05,0.34000000000000014,0.05
7,16,32,1,8,0.34000000000000014,2,4,112,113,43,110,0.9800000000000004,0.04,0.12999999999999998,0.02,6,1,2,1,8,1,2,1,2,0.5,17,7,HL,0.12250000000000003,0.04,0.06499999999999999,0.02
7,17,33,1,1,0.20000000000000004,2,3,75,19,76,41,0.29000000000000004,0.3900000000000002,0.6400000000000003,0.01,4,1,3,1,5,1,3,1,3,0,17,7,HL,0.057999999999999996,0.3900000000000002,0.21333333333333343,0.01
7,17,34,1,6,0.15,2,3,8,2,4,49,0.3,0.34000000000000014,0.02,2.2299999999999964,4,2,1,5,5,3,1,7,6,0.5,40,7,HL,0.06,0.11333333333333336,0.02,0.3185714285714287
7,18,35,1,10,0.22000000000000006,2,3,93,10,112,85,0.32000000000000006,1.2200000000000009,0.060000000000000005,0.01,4,4,1,1,5,4,1,1,3,0,14,7,HL,0.064,0.30500000000000016,0.060000000000000005,0.01
7,18,36,1,4,0.37000000000000016,12,13,104,101,73,100,0.5100000000000001,0.09,0.2800000000000001,1.340000000000001,13,1,2,4,14,1,3,5,2,0.5,15,7,HL,0.03642857142857143,0.09,0.09333333333333332,0.2680000000000001
7,19,37,1,2,0.4200000000000002,18,20,54,57,58,95,0.4800000000000002,0.02,0.03,0.05,19,1,1,1,21,1,1,1,4,0.5,27,7,HL,0.022857142857142857,0.02,0.03,0.05
7,19,38,1,9,0.4400000000000002,14,14,65,111,26,78,0.7800000000000004,2.0899999999999994,0.13999999999999999,0.03,16,8,2,1,17,8,2,1,4,0,14,7,HL,0.04588235294117648,0.2612500000000001,0.06999999999999999,0.03
7,20,39,1,6,0.6300000000000003,3,4,11,3,88,111,0.7800000000000004,0.09999999999999999,0.7200000000000004,0.01,4,1,2,1,5,1,2,1,6,0,17,7,HL,0.15600000000000006,0.09999999999999999,0.36000000000000015,0.01
7,20,40,1,1,0.3100000000000001,2,4,14,49,39,47,9.789999999999843,0.19000000000000003,0.01,0.9900000000000007,18,2,1,2,27,2,1,3,3,0,20,7,HL,0.3625925925925928,0.09500000000000001,0.01,0.3300000000000002
7,21,41,1,10,0.10999999999999999,2,3,4,116,86,5,2.63999999999999,0.01,0.05,0.01,10,1,1,1,12,1,1,1,3,0,17,7,HL,0.22000000000000008,0.01,0.05,0.01
7,21,42,1,1,0.3200000000000001,3,5,104,76,32,55,0.5800000000000002,0.04,0.24000000000000007,0.03,4,1,2,1,6,1,2,1,3,0,14,7,HL,0.09666666666666668,0.04,0.12000000000000001,0.03
7,22,43,1,8,0.21000000000000005,2,3,112,113,90,111,0.37000000000000005,0.09,0.5000000000000002,0.01,4,1,2,1,5,1,2,1,2,0.5,15,7,HL,0.074,0.09,0.2500000000000001,0.01
7,22,44,1,2,1.440000000000001,4,5,1,4,75,100,10.809999999999846,0.01,0.01,0.01,16,1,1,1,24,1,1,1,4,0,17,7,HL,0.4504166666666669,0.01,0.01,0.01
8,1,1,0,9,0.24000000000000007,2,3,35,36,62,18,1.720000000000001,0.09999999999999999,0.4000000000000002,0.03,5,1,2,1,6,1,2,1,4,0,20,7,HL,0.2866666666666668,0.09999999999999999,0.2000000000000001,0.03
8,1,2,0,2,0.4400000000000002,2,4,4,84,45,109,1.1900000000000006,0.3000000000000001,0.16,0.01,5,2,1,1,7,2,1,1,4,0,16,7,HL,0.17000000000000004,0.15000000000000002,0.16,0.01
8,2,3,0,8,0.23000000000000007,1,2,115,120,85,23,0.7000000000000003,0.11999999999999998,0.35000000000000014,0.19000000000000003,2,1,2,2,3,1,3,2,2,0,13,7,HL,0.23333333333333342,0.11999999999999998,0.11666666666666667,0.095
8,2,4,0,5,0.2700000000000001,2,3,47,39,12,40,0.7300000000000003,0.20000000000000004,0.08,0.7900000000000005,3,2,1,3,4,3,1,3,5,0.5,21,7,HL,0.18250000000000005,0.06666666666666667,0.08,0.2633333333333334
8,3,5,0,10,0.3000000000000001,2,4,96,4,43,41,0.7100000000000003,0.4300000000000002,0.17,0.03,4,2,2,1,6,3,3,1,3,0,19,7,HL,0.11833333333333335,0.1433333333333334,0.056666666666666664,0.03
8,3,6,0,7,0.2900000000000001,2,3,82,16,57,20,0.9900000000000004,0.09999999999999999,0.25000000000000006,0.05,4,1,2,2,6,1,2,2,6,0,19,7,HL,0.16500000000000004,0.09999999999999999,0.12500000000000003,0.025
8,4,7,0,10,0.4400000000000002,12,13,85,120,16,17,0.9500000000000004,0.35000000000000014,0.09,0.12999999999999998,13,2,1,1,14,2,1,1,3,0,17,7,HL,0.06785714285714288,0.17500000000000002,0.09,0.12999999999999998
8,4,8,0,9,0.24000000000000007,2,3,66,80,81,67,0.6300000000000002,0.5100000000000002,0.05,0.03,4,2,1,1,5,3,1,1,4,0,14,7,HL,0.126,0.17,0.05,0.03
8,5,9,0,2,0.36000000000000015,3,5,53,51,112,44,0.7400000000000003,0.24000000000000007,0.16,0.4000000000000002,5,1,1,2,7,1,1,2,4,0,15,7,HL,0.10571428571428572,0.24000000000000007,0.16,0.20000000000000007
8,5,10,0,9,0.3900000000000002,2,6,32,36,77,66,1.2400000000000007,0.15,0.03,0.7000000000000004,5,1,1,3,9,1,1,3,4,0,17,7,HL,0.13777777777777783,0.15,0.03,0.23333333333333342
8,6,11,0,10,0.2800000000000001,2,3,95,118,1,9,0.6900000000000003,0.4300000000000002,1.6200000000000012,0.02,4,2,6,1,5,2,6,1,3,0,17,7,HL,0.138,0.21500000000000002,0.27000000000000013,0.02
8,6,12,0,7,0.2800000000000001,2,3,19,15,13,24,0.6500000000000002,0.16,23.08000000000081,0.02,3,1,17,1,4,1,47,1,6,1,72,7,HL,0.16250000000000003,0.16,0.49106382978723434,0.02
8,7,13,1,5,0.3100000000000001,2,4,42,112,9,114,0.9000000000000004,0.11999999999999998,0.5500000000000003,0.01,5,1,1,1,8,1,1,1,5,0,15,7,HL,0.11250000000000002,0.11999999999999998,0.5500000000000003,0.01
8,7,14,1,4,0.25000000000000006,2,5,101,52,22,86,0.9200000000000004,0.20000000000000004,0.12999999999999998,0.03,4,2,1,1,7,4,1,1,2,0,15,7,HL,0.13142857142857145,0.05,0.12999999999999998,0.03
8,8,15,1,4,0.2700000000000001,2,3,106,99,25,35,0.7000000000000003,0.19000000000000003,0.5600000000000003,0.04,4,1,2,1,5,1,3,1,2,0,14,7,HL,0.14,0.19000000000000003,0.1866666666666667,0.04
8,8,16,1,2,0.2800000000000001,2,3,60,10,54,8,0.7100000000000003,0.3200000000000001,0.4200000000000002,0.02,4,2,2,1,5,3,2,1,4,0,20,7,HL,0.14200000000000002,0.10666666666666669,0.2100000000000001,0.02
8,9,17,1,1,0.36000000000000015,3,4,74,40,105,47,0.7800000000000004,0.4300000000000002,0.01,0.09999999999999999,5,1,1,1,6,1,1,1,3,0,15,7,HL,0.13,0.4300000000000002,0.01,0.09999999999999999
8,9,18,1,2,0.3900000000000002,6,8,56,109,55,9,0.7400000000000003,0.37000000000000016,0.09,0.24000000000000007,7,2,1,1,9,2,1,1,4,0,16,7,HL,0.08222222222222224,0.18500000000000003,0.09,0.24000000000000007
8,10,19,1,7,0.49000000000000027,2,4,55,108,56,26,1.1000000000000005,0.20000000000000004,0.07,0.5700000000000003,3,1,1,4,5,1,1,4,6,0,15,7,HL,0.22000000000000008,0.20000000000000004,0.07,0.14250000000000004
8,10,20,1,9,0.3300000000000001,4,5,8,47,119,68,0.8900000000000003,0.21000000000000005,0.25000000000000006,0.02,5,1,1,1,6,1,1,1,4,0,17,7,HL,0.14833333333333337,0.21000000000000005,0.25000000000000006,0.02
8,11,21,1,7,0.46000000000000024,2,4,20,14,73,25,0.8300000000000004,0.4300000000000002,0.7900000000000005,0.02,4,2,3,1,6,4,3,1,6,0,20,7,HL,0.13833333333333334,0.10750000000000001,0.2633333333333335,0.02
8,11,22,1,6,0.48000000000000026,13,14,3,44,67,87,1.0800000000000005,0.08,0.21000000000000005,0.2700000000000001,15,1,1,2,20,1,1,2,6,0,18,7,HL,0.054000000000000006,0.08,0.21000000000000005,0.13500000000000004
8,12,23,1,10,0.35000000000000014,2,5,1,89,52,97,11.749999999999801,0.01,0.01,0.01,15,1,1,1,22,1,1,1,3,0,15,7,HL,0.5340909090909094,0.01,0.01,0.01
8,12,24,1,5,0.7800000000000005,11,12,38,48,14,116,1.0900000000000005,0.3200000000000001,0.20000000000000004,0.7200000000000004,13,1,1,6,16,1,1,8,5,0,18,7,HL,0.068125,0.3200000000000001,0.20000000000000004,0.09000000000000001
8,13,25,1,6,0.34000000000000014,2,3,7,32,29,3,0.7900000000000004,0.3000000000000001,0.9600000000000006,0.01,4,1,3,1,5,1,3,1,6,0,22,7,HL,0.15800000000000003,0.3000000000000001,0.3200000000000002,0.01
8,13,26,1,9,0.26000000000000006,2,4,95,23,96,40,0.9000000000000004,0.13999999999999999,0.13999999999999999,0.05,4,1,1,1,7,1,1,1,4,0,17,7,HL,0.12857142857142861,0.13999999999999999,0.13999999999999999,0.05
8,14,27,1,3,0.38000000000000017,6,8,36,108,22,50,0.7500000000000003,0.3900000000000002,0.22000000000000006,0.02,8,1,2,2,10,1,2,2,5,0,17,7,HL,0.07500000000000001,0.3900000000000002,0.10999999999999999,0.01
8,14,28,1,5,0.4100000000000002,2,5,38,46,92,10,0.7100000000000003,0.45000000000000023,0.10999999999999999,0.12999999999999998,4,2,1,1,7,2,1,1,5,0,19,7,HL,0.10142857142857145,0.22500000000000003,0.10999999999999999,0.12999999999999998
8,15,29,1,4,0.47000000000000025,5,6,101,98,12,7,1.2600000000000007,0.10999999999999999,0.16,0.02,8,2,1,1,10,2,1,1,2,0,16,7,HL,0.12600000000000003,0.05500000000000001,0.16,0.02
8,15,30,1,7,0.36000000000000015,2,4,48,16,14,113,1.0800000000000005,0.08,0.9500000000000006,0.01,4,1,2,1,9,1,2,1,6,0,19,7,HL,0.12000000000000001,0.08,0.4750000000000003,0.01
8,16,31,1,6,0.7600000000000005,6,8,115,12,29,80,1.5000000000000009,0.10999999999999999,0.07,0.02,8,2,2,1,10,2,2,1,6,0,16,7,HL,0.15000000000000005,0.055,0.035,0.02
8,16,32,1,7,0.3900000000000002,2,3,41,50,43,106,0.9400000000000004,0.17,0.47000000000000025,0.5200000000000002,4,1,2,2,6,1,2,3,6,0,16,7,HL,0.1566666666666667,0.17,0.23500000000000013,0.17333333333333337
8,17,33,1,6,1.0800000000000007,3,4,113,78,44,12,1.670000000000001,0.4000000000000002,0.08,0.02,4,2,2,1,5,2,2,1,6,0,16,7,HL,0.3340000000000002,0.20000000000000007,0.04,0.02
8,17,34,1,10,0.4200000000000002,2,4,97,55,92,16,1.0500000000000005,0.07,0.04,0.15,4,1,1,1,6,1,1,1,3,0,15,7,HL,0.17500000000000004,0.07,0.04,0.15
8,18,35,1,4,0.3900000000000002,3,5,107,108,19,100,0.8200000000000004,0.35000000000000014,0.15,0.05,5,2,2,1,7,3,3,1,2,0.5,18,7,HL,0.11714285714285715,0.1166666666666667,0.05,0.05
8,18,36,1,8,0.35000000000000014,3,5,111,57,110,91,0.6700000000000003,0.23000000000000007,0.20000000000000004,0.13999999999999999,5,1,1,1,7,1,1,1,2,0,11,7,HL,0.09571428571428572,0.23000000000000007,0.20000000000000004,0.13999999999999999
8,19,37,1,9,0.6800000000000004,6,7,66,112,85,111,0.9300000000000004,0.4000000000000002,0.20000000000000004,0.08,8,2,1,1,9,2,1,1,4,0,11,7,HL,0.10333333333333335,0.2,0.20000000000000004,0.08
8,19,38,1,4,0.4100000000000002,2,4,101,99,84,34,0.8500000000000004,0.05,0.19000000000000003,0.17,4,1,1,1,6,1,1,1,2,0,12,7,HL,0.14166666666666666,0.05,0.19000000000000003,0.17
8,20,39,1,4,0.36000000000000015,4,6,99,44,2,100,0.7400000000000003,0.34000000000000014,0.20000000000000004,0.03,5,2,2,1,7,2,3,1,2,0,15,7,HL,0.10571428571428573,0.17,0.06666666666666667,0.03
8,20,40,1,8,0.46000000000000024,2,3,112,110,113,17,1.1700000000000006,0.11999999999999998,0.11999999999999998,0.13999999999999999,4,1,1,1,7,1,1,1,2,0.5,18,7,HL,0.16714285714285718,0.11999999999999998,0.11999999999999998,0.13999999999999999
8,21,41,1,9,0.2800000000000001,2,3,65,105,45,108,0.7600000000000003,0.36000000000000015,0.07,0.03,4,1,1,1,5,1,1,1,4,0,13,7,HL,0.15200000000000002,0.36000000000000015,0.07,0.03
8,21,42,1,8,0.35000000000000014,2,3,112,114,50,34,0.9200000000000004,0.16,0.22000000000000006,0.18000000000000002,4,1,2,1,5,1,2,1,2,0,13,7,HL,0.18400000000000005,0.16,0.11,0.18000000000000002
8,22,43,1,3,0.3100000000000001,2,4,34,30,103,107,0.7600000000000003,0.8700000000000006,0.16,0.8200000000000005,4,3,2,3,6,3,2,3,5,0,14,7,HL,0.12666666666666668,0.29000000000000015,0.07999999999999999,0.27333333333333343
8,22,44,1,2,0.2700000000000001,2,3,53,14,40,45,0.7600000000000003,0.4100000000000002,0.07,0.060000000000000005,4,3,1,1,7,3,1,1,4,0,20,7,HL,0.10857142857142858,0.13666666666666671,0.07,0.060000000000000005
9,1,1,0,4,16.519999999999783,13,39,8,83,82,106,17.179999999999783,2.7799999999999847,1.2100000000000009,3.889999999999961,15,5,6,8,41,5,6,12,2,0,14,6,HL,0.41902439024390264,0.5560000000000003,0.20166666666666672,0.3241666666666668
9,1,2,0,8,10.02999999999983,8,26,92,58,56,16,11.659999999999831,4.239999999999954,2.149999999999998,3.9099999999999606,10,3,6,5,28,4,6,6,2,0,17,6,HL,0.41642857142857165,1.0599999999999896,0.3583333333333335,0.6516666666666671
9,2,3,0,3,12.599999999999776,11,39,89,11,10,27,12.749999999999776,0.4000000000000002,1.1600000000000008,3.8099999999999627,12,2,3,5,40,2,3,6,5,0,20,6,HL,0.31875000000000014,0.20000000000000007,0.3866666666666668,0.634999999999999
9,2,4,0,5,7.059999999999894,18,28,42,41,15,99,7.399999999999894,2.0500000000000003,0.21000000000000005,4.739999999999943,20,5,1,6,30,8,1,9,5,0,18,6,HL,0.2466666666666668,0.25625000000000014,0.21000000000000005,0.526666666666667
9,3,5,0,1,9.809999999999835,9,27,5,2,3,64,9.869999999999836,1.0400000000000007,52.85999999999805,1.5700000000000012,10,2,18,6,28,2,86,6,3,0.5,22,6,HL,0.3524999999999991,0.5200000000000002,0.6146511627906978,0.26166666666666677
9,3,6,0,7,6.629999999999903,6,14,22,16,92,107,6.639999999999903,0.15,9.61999999999984,0.11999999999999998,7,1,11,1,15,1,19,1,6,0,17,6,HL,0.4426666666666667,0.15,0.5063157894736842,0.11999999999999998
9,4,7,0,1,21.090000000000497,19,63,3,50,54,7,21.520000000000497,0.01,0.5600000000000003,4.129999999999956,20,1,3,8,65,1,3,10,3,0,20,6,HL,0.33107692307692327,0.01,0.18666666666666673,0.4130000000000002
9,4,8,0,9,7.869999999999877,13,21,14,35,17,21,11.959999999999834,1.1000000000000008,1.6100000000000012,1.7400000000000013,20,3,2,4,31,4,2,4,4,0.5,23,6,HL,0.3858064516129029,0.27500000000000013,0.8050000000000006,0.4350000000000002
9,5,9,0,9,3.2499999999999747,18,33,79,70,14,76,5.309999999999975,2.6999999999999864,2.99999999999998,0.6600000000000004,20,6,5,2,35,8,7,5,4,0,16,6,HL,0.15171428571428577,0.3375000000000002,0.4285714285714288,0.13200000000000003
9,5,10,0,2,8.389999999999866,16,45,103,1,102,95,11.099999999999852,2.389999999999993,1.9900000000000015,0.03,20,4,3,1,50,5,3,1,4,0,13,6,HL,0.2220000000000001,0.47800000000000026,0.6633333333333338,0.03
9,6,11,1,4,14.199999999999742,15,53,56,17,99,107,15.579999999999742,0.03,0.13999999999999999,0.02,18,1,1,1,56,1,1,1,2,0,14,6,HL,0.27821428571428586,0.03,0.13999999999999999,0.02
9,6,12,1,9,19.77000000000029,18,54,64,42,47,8,19.780000000000292,0.02,0.18000000000000002,1.370000000000001,19,1,2,2,55,1,2,2,4,0,20,6,HL,0.35963636363636375,0.02,0.09,0.6850000000000005
9,7,13,1,10,8.099999999999872,7,21,4,10,9,85,9.069999999999872,0.7700000000000005,0.2800000000000001,6.229999999999912,9,2,2,7,23,2,2,7,3,0.5,39,6,HL,0.39434782608695595,0.3850000000000002,0.14000000000000004,0.8899999999999999
9,7,14,1,1,11.4899999999998,16,32,81,48,13,45,11.5599999999998,0.11999999999999998,1.0200000000000007,0.3900000000000002,17,1,3,1,33,1,3,1,3,0,19,6,HL,0.3503030303030305,0.11999999999999998,0.34000000000000014,0.3900000000000002
9,8,15,1,1,12.90999999999977,14,43,74,114,15,26,13.23999999999977,0.3200000000000001,0.24000000000000007,0.10999999999999999,16,1,1,1,45,1,1,1,3,0,16,6,HL,0.29422222222222233,0.3200000000000001,0.24000000000000007,0.10999999999999999
9,8,16,1,5,8.559999999999862,11,29,101,41,5,60,8.659999999999862,0.18000000000000002,0.9900000000000007,0.5000000000000002,12,1,3,2,30,1,3,2,5,0,17,6,HL,0.2886666666666668,0.18000000000000002,0.3300000000000001,0.2500000000000001
9,9,17,1,7,8.309999999999867,10,23,94,102,15,56,8.429999999999866,0.05,0.8700000000000006,3.2199999999999753,11,1,2,6,24,1,2,9,6,0,15,6,HL,0.3512500000000002,0.05,0.4350000000000002,0.35777777777777797
9,9,18,1,8,9.55999999999984,9,27,33,2,3,68,9.65999999999984,0.5000000000000002,0.05,0.3900000000000002,10,3,1,1,28,4,1,1,2,0,21,6,HL,0.3450000000000002,0.125,0.05,0.3900000000000002
9,10,19,1,6,4.6399999999999455,5,11,10,3,112,59,4.649999999999945,0.10999999999999999,0.5100000000000002,1.2500000000000009,6,1,2,4,12,1,2,7,6,0,18,6,HL,0.3874999999999997,0.10999999999999999,0.25500000000000006,0.17857142857142863
9,10,20,1,7,6.829999999999899,14,25,13,20,17,92,6.839999999999899,0.03,6.959999999999896,0.11999999999999998,15,1,11,1,26,1,20,1,6,0.5,39,6,HL,0.2630769230769232,0.03,0.34800000000000014,0.11999999999999998
9,11,21,1,4,9.289999999999846,8,22,23,103,107,40,9.809999999999846,0.8800000000000006,0.26000000000000006,0.11999999999999998,10,2,1,1,24,4,1,1,2,0,15,6,HL,0.40875000000000017,0.22000000000000006,0.26000000000000006,0.11999999999999998
9,11,22,1,2,8.029999999999873,16,32,1,36,6,116,14.299999999999784,1.0800000000000007,0.18000000000000002,0.01,20,2,2,1,39,2,2,1,4,0,19,6,HL,0.3666666666666662,0.5400000000000004,0.09000000000000001,0.01
9,12,23,1,5,15.969999999999704,17,48,113,54,8,2,15.979999999999704,2.439999999999992,0.05,0.02,18,4,1,1,49,4,1,1,5,0,18,6,HL,0.326122448979592,0.6100000000000004,0.05,0.02
9,12,24,1,7,19.45000000000024,15,45,103,18,100,30,19.47000000000024,0.18000000000000002,0.01,0.02,16,1,1,1,46,1,1,1,6,0,15,6,HL,0.42326086956521763,0.18000000000000002,0.01,0.02
9,13,25,1,7,13.37999999999976,12,39,98,21,17,86,13.569999999999759,0.04,0.12999999999999998,0.2700000000000001,13,1,1,3,40,1,1,3,6,0,17,6,HL,0.33924999999999983,0.04,0.12999999999999998,0.09000000000000001
9,13,26,1,9,9.979999999999832,15,31,2,32,67,62,10.169999999999831,0.13999999999999999,0.04,2.629999999999988,16,1,1,3,32,1,1,5,4,0,19,6,HL,0.3178124999999992,0.13999999999999999,0.04,0.5260000000000004
9,14,27,1,2,22.850000000000772,18,53,58,28,36,26,23.09000000000077,0.09,0.01,0.01,20,1,1,1,55,1,1,1,4,0.5,34,6,HL,0.4198181818181818,0.09,0.01,0.01
9,14,28,1,10,13.069999999999766,15,44,62,89,67,63,13.139999999999766,0.09,0.09999999999999999,0.17,16,1,1,1,45,1,1,1,3,0.5,27,6,HL,0.29200000000000015,0.09,0.09999999999999999,0.17
9,15,29,1,8,10.95999999999981,14,28,25,114,96,57,10.99999999999981,0.10999999999999999,0.3200000000000001,0.08,15,1,1,1,29,1,1,1,2,0,14,6,HL,0.37931034482758597,0.10999999999999999,0.3200000000000001,0.08
9,15,30,1,5,10.52999999999982,9,29,38,46,80,21,10.82999999999982,1.2000000000000008,0.36000000000000015,0.35000000000000014,11,4,2,2,31,5,2,2,5,0,19,6,HL,0.3493548387096775,0.24000000000000007,0.18000000000000005,0.17500000000000002
9,16,31,1,2,12.959999999999768,12,33,15,43,59,73,20.05999999999966,3.289999999999974,0.01,0.02,20,5,1,1,46,5,1,1,4,0,18,6,HL,0.4360869565217392,0.6580000000000004,0.01,0.02
9,16,32,1,9,6.899999999999897,20,38,66,67,108,31,6.909999999999897,0.03,0.060000000000000005,0.3200000000000001,20,1,1,2,39,1,1,2,4,0,15,6,HL,0.17717948717948726,0.03,0.060000000000000005,0.16
9,17,33,1,6,9.779999999999836,14,35,3,81,105,5,9.789999999999836,0.07,2.1899999999999973,2.259999999999996,15,1,4,3,36,1,6,4,6,0,17,6,HL,0.27194444444444454,0.07,0.36500000000000016,0.5650000000000004
9,17,34,1,7,6.679999999999902,8,19,16,20,21,87,6.689999999999902,0.01,0.07,0.09999999999999999,9,1,1,1,20,1,1,1,6,0.5,39,6,HL,0.3345000000000002,0.01,0.07,0.09999999999999999
9,18,35,1,5,6.369999999999909,17,27,39,13,14,82,7.289999999999909,1.320000000000001,1.8700000000000014,0.8400000000000005,19,2,4,2,29,2,5,2,5,0,20,6,HL,0.2513793103448277,0.6600000000000005,0.3740000000000002,0.4200000000000002
9,18,36,1,3,8.289999999999868,11,22,30,98,99,31,8.479999999999867,0.10999999999999999,0.13999999999999999,0.19000000000000003,13,1,2,1,24,1,2,1,5,0,14,6,HL,0.3533333333333333,0.10999999999999999,0.07,0.19000000000000003
9,19,37,1,1,11.299999999999804,14,36,112,117,114,72,12.759999999999804,1.430000000000001,4.679999999999945,6.669999999999902,18,2,8,11,42,2,9,14,3,0.5,16,6,HL,0.303809523809524,0.7150000000000004,0.5200000000000004,0.4764285714285717
9,19,38,1,2,15.66999999999971,14,38,96,106,17,27,15.719999999999711,1.9400000000000015,0.01,0.01,15,4,1,1,39,5,1,1,4,0,16,6,HL,0.4030769230769233,0.3880000000000002,0.01,0.01
10,1,1,0,5,0.17,2,3,83,13,81,44,0.9600000000000005,0.09,0.01,0.01,5,1,1,1,6,1,1,1,5,0,17,7,HL,0.16000000000000006,0.09,0.01,0.01
10,1,2,0,3,0.18000000000000002,2,4,36,35,94,3,0.34,0.10999999999999999,0.20000000000000004,0.10999999999999999,3,1,1,1,5,1,1,1,5,0,19,7,HL,0.068,0.10999999999999999,0.20000000000000004,0.10999999999999999
10,2,3,0,4,0.18000000000000002,2,3,84,35,79,28,0.5400000000000001,0.6400000000000003,0.9100000000000006,0.01,3,1,3,1,4,1,3,1,2,0,16,7,HL,0.13500000000000004,0.6400000000000003,0.30333333333333345,0.01
10,2,4,0,7,0.22000000000000006,2,4,13,57,89,16,8.949999999999859,0.02,0.01,0.01,12,1,1,1,16,1,1,1,6,0,19,7,HL,0.5593749999999996,0.02,0.01,0.01
10,3,5,0,8,0.15,2,3,14,41,39,42,0.6400000000000002,0.07,0.07,0.07,4,1,1,1,5,1,1,1,2,0.5,21,7,HL,0.12800000000000003,0.07,0.07,0.07
10,3,6,0,6,0.21000000000000005,2,3,11,1,8,77,0.4900000000000001,0.09999999999999999,21.81000000000061,0.01,4,1,14,1,5,1,34,1,6,0.5,21,7,HL,0.098,0.09999999999999999,0.6414705882352942,0.01
10,4,7,0,3,0.20000000000000004,2,4,36,55,18,15,0.5200000000000001,0.08,0.09999999999999999,0.07,4,1,1,1,6,1,1,1,5,0,21,7,HL,0.08666666666666668,0.08,0.09999999999999999,0.07
10,4,8,0,8,0.17,2,4,117,118,83,115,0.38000000000000006,0.09,0.19000000000000003,0.04,4,1,1,1,6,1,1,1,2,0.5,9,7,HL,0.06333333333333332,0.09,0.19000000000000003,0.04
10,5,9,0,8,0.19000000000000003,2,3,117,116,77,43,0.44000000000000006,0.060000000000000005,0.16,0.10999999999999999,3,1,2,1,4,1,2,1,2,0,12,7,HL,0.11000000000000001,0.060000000000000005,0.08,0.10999999999999999
10,5,10,0,3,0.21000000000000005,2,3,95,14,25,15,0.6200000000000002,0.08,0.04,0.08,3,1,1,2,4,1,1,2,5,0,20,7,HL,0.15500000000000005,0.08,0.04,0.04
10,6,11,0,9,0.36000000000000015,11,11,63,71,82,15,0.5100000000000001,0.11999999999999998,1.300000000000001,1.5300000000000011,12,1,2,3,12,1,2,3,4,0,17,7,HL,0.042499999999999996,0.11999999999999998,0.6500000000000005,0.5100000000000003
10,6,12,0,10,0.11999999999999998,2,2,1,88,114,92,5.299999999999934,0.01,0.01,0.01,7,1,1,1,10,1,1,1,3,0,14,7,HL,0.5300000000000004,0.01,0.01,0.01
10,7,13,1,9,0.20000000000000004,2,3,68,23,114,30,0.4900000000000001,0.11999999999999998,0.08,0.08,4,1,1,1,5,1,1,1,4,0,17,7,HL,0.09800000000000002,0.11999999999999998,0.08,0.08
10,7,14,1,10,0.3000000000000001,5,6,89,57,108,87,3.30999999999998,0.01,0.07,0.26000000000000006,8,1,1,2,10,1,1,2,3,0,12,7,HL,0.3310000000000002,0.01,0.07,0.13000000000000003
10,8,15,1,9,0.18000000000000002,2,3,66,28,16,110,0.5100000000000001,0.09,0.060000000000000005,0.20000000000000004,4,1,1,2,5,1,1,2,4,0,17,7,HL,0.10200000000000002,0.09,0.060000000000000005,0.1
10,8,16,1,4,0.19000000000000003,2,3,82,74,57,105,0.5200000000000001,0.10999999999999999,0.13999999999999999,0.03,3,1,1,1,4,1,1,1,2,0,12,7,HL,0.13000000000000003,0.10999999999999999,0.13999999999999999,0.03
10,9,17,1,5,0.16,2,3,42,14,44,107,0.37000000000000005,0.26000000000000006,0.03,0.09999999999999999,3,2,1,1,4,2,1,1,5,0,18,7,HL,0.09250000000000001,0.13000000000000003,0.03,0.09999999999999999
10,9,18,1,6,0.22000000000000006,2,3,3,1,116,63,0.5500000000000002,3.759999999999964,0.01,0.02,4,8,1,1,5,10,1,1,6,0,18,7,HL,0.11000000000000001,0.37600000000000017,0.01,0.02
10,10,19,1,7,0.18000000000000002,1,2,14,17,116,34,19.82000000000027,0.02,0.02,0.03,20,1,1,1,40,1,1,1,6,0,19,7,HL,0.4955000000000003,0.02,0.02,0.03
10,10,20,1,6,0.21000000000000005,2,4,6,3,9,108,0.39000000000000007,10.209999999999827,7.769999999999879,0.01,3,12,13,1,5,20,22,1,6,0.5,38,7,HL,0.07800000000000001,0.5105000000000003,0.3531818181818184,0.01
10,11,21,1,3,0.21000000000000005,2,3,55,27,108,3,0.6200000000000002,0.03,0.15,0.12999999999999998,4,1,1,2,6,1,1,2,5,0,17,7,HL,0.10333333333333335,0.03,0.15,0.065
10,11,22,1,7,0.38000000000000017,2,3,14,13,21,24,0.5900000000000002,1.300000000000001,26.30000000000131,0.01,3,3,18,1,4,3,57,1,6,1,72,7,HL,0.14750000000000002,0.4333333333333336,0.4614035087719301,0.01
10,12,23,1,10,0.36000000000000015,10,11,93,12,11,71,0.6000000000000002,0.7000000000000004,0.8700000000000006,1.320000000000001,11,2,3,3,12,2,3,4,3,0,19,7,HL,0.05,0.3500000000000002,0.29000000000000015,0.3300000000000002
10,12,24,1,5,0.17,2,3,41,57,58,45,0.4800000000000001,0.11999999999999998,0.09,0.04,4,1,2,1,5,1,2,1,5,0,18,7,HL,0.09600000000000002,0.11999999999999998,0.045,0.04
10,13,25,1,1,0.22000000000000006,2,3,2,109,58,78,0.5700000000000002,0.11999999999999998,0.08,0.02,3,1,1,1,4,1,1,1,3,0,15,7,HL,0.14250000000000004,0.11999999999999998,0.08,0.02
10,13,26,1,5,0.18000000000000002,2,4,39,43,66,42,0.4100000000000001,0.11999999999999998,0.19000000000000003,0.03,4,1,1,1,6,1,1,1,5,0.5,34,7,HL,0.06833333333333333,0.11999999999999998,0.19000000000000003,0.03
10,14,27,1,4,0.20000000000000004,2,3,98,99,86,103,0.4100000000000001,0.24000000000000007,0.08,0.04,3,2,1,1,4,3,1,1,2,0.5,15,7,HL,0.10250000000000001,0.08,0.08,0.04
10,14,28,1,5,0.13999999999999999,2,4,45,48,119,79,0.34,0.09,0.11999999999999998,0.07,3,1,1,1,5,1,1,1,5,0,15,7,HL,0.068,0.09,0.11999999999999998,0.07
10,15,29,1,3,0.25000000000000006,2,3,59,73,49,81,0.5500000000000002,0.15,0.05,0.02,3,1,1,1,4,1,1,1,5,0,14,7,HL,0.1375,0.15,0.05,0.02
10,15,30,1,4,0.21000000000000005,2,3,23,94,72,108,0.5400000000000001,0.19000000000000003,0.07,0.01,3,3,1,1,4,4,1,1,2,0,15,7,HL,0.13500000000000004,0.0475,0.07,0.01
10,16,31,1,5,0.17,2,4,37,17,47,19,0.33,0.2800000000000001,0.04,0.2700000000000001,4,1,1,1,6,1,1,1,5,0,22,7,HL,0.055,0.2800000000000001,0.04,0.2700000000000001
10,16,32,1,1,0.21000000000000005,2,3,83,7,109,116,0.4100000000000001,0.22000000000000006,0.060000000000000005,0.060000000000000005,4,1,1,1,5,1,1,1,3,0,13,7,HL,0.082,0.22000000000000006,0.060000000000000005,0.060000000000000005
10,17,33,1,5,0.18000000000000002,2,3,39,83,78,3,0.32,0.15,0.07,0.09999999999999999,3,1,1,1,4,1,1,1,5,0,17,7,HL,0.08,0.15,0.07,0.09999999999999999
10,17,34,1,9,0.21000000000000005,2,3,28,102,26,87,0.9100000000000005,0.03,0.03,0.01,4,1,2,1,7,1,2,1,4,0,15,7,HL,0.13000000000000003,0.03,0.015,0.01
10,18,35,1,8,0.18000000000000002,2,3,42,1,110,59,0.6200000000000002,0.09,0.07,0.6800000000000004,3,1,1,2,4,1,1,2,2,0,17,7,HL,0.15500000000000005,0.09,0.07,0.3400000000000002
10,18,36,1,3,0.23000000000000007,3,4,108,28,100,24,0.6200000000000002,0.10999999999999999,0.09,0.060000000000000005,4,2,1,1,5,2,1,1,5,0,15,7,HL,0.12400000000000003,0.055,0.09,0.060000000000000005
10,19,37,1,9,0.2900000000000001,4,5,16,67,78,72,0.5000000000000001,0.09,0.18000000000000002,0.8100000000000005,5,1,1,3,6,1,1,4,4,0,17,7,HL,0.08333333333333334,0.09,0.18000000000000002,0.2025000000000001
10,19,38,1,10,0.3000000000000001,6,7,89,11,48,1,0.5700000000000002,0.19000000000000003,0.8000000000000005,0.01,8,2,2,1,9,2,2,1,3,0,20,7,HL,0.06333333333333334,0.095,0.40000000000000024,0.01
10,20,39,1,10,0.24000000000000007,2,4,96,88,16,95,0.5100000000000001,0.10999999999999999,0.07,0.09,3,1,1,1,5,1,1,1,3,0.5,24,7,HL,0.10200000000000001,0.10999999999999999,0.07,0.09
10,20,40,1,6,0.21000000000000005,2,3,80,71,9,101,0.5700000000000002,0.08,0.09,4.049999999999958,3,1,1,3,4,1,1,3,6,0,15,7,HL,0.14250000000000004,0.08,0.09,1.3499999999999959
10,21,41,1,5,0.2800000000000001,2,4,45,21,49,93,0.43000000000000005,0.24000000000000007,0.15,0.2800000000000001,4,1,2,2,6,1,3,2,5,0,18,7,HL,0.07166666666666667,0.24000000000000007,0.05,0.14000000000000004
10,21,42,1,9,0.5300000000000002,13,13,66,70,25,65,0.7900000000000003,0.15,0.09,0.9800000000000006,14,1,1,2,14,1,1,2,4,0.5,29,7,HL,0.05642857142857143,0.15,0.09,0.4900000000000003
10,22,43,1,3,0.26000000000000006,2,3,103,59,60,23,0.7100000000000003,0.11999999999999998,0.060000000000000005,0.02,4,1,1,1,5,1,1,1,5,0,16,7,HL,0.14200000000000002,0.11999999999999998,0.060000000000000005,0.02
10,22,44,1,10,0.3000000000000001,2,4,90,120,37,45,0.5500000000000002,0.25000000000000006,0.060000000000000005,0.03,4,1,2,1,6,1,2,1,3,0,15,7,HL,0.09166666666666667,0.25000000000000006,0.03,0.03
11,1,1,0,1,0.24000000000000007,2,4,53,79,73,83,1.0600000000000005,0.03,0.08,0.09999999999999999,4,1,1,2,11,1,1,2,3,0.5,13,7,HL,0.09636363636363637,0.03,0.08,0.05
11,1,2,0,10,0.17,2,3,10,96,95,2,1.0600000000000005,0.05,0.18000000000000002,0.21000000000000005,5,1,3,2,12,1,3,3,3,0,18,7,HL,0.08833333333333335,0.05,0.060000000000000005,0.07
11,2,3,0,5,0.16,2,5,48,78,2,7,0.9300000000000005,0.23000000000000007,0.12999999999999998,0.03,7,1,2,1,15,1,2,1,5,0,20,7,HL,0.062000000000000006,0.23000000000000007,0.065,0.03
11,2,4,0,3,0.20000000000000004,3,4,28,35,58,36,0.8400000000000004,0.17,0.07,0.34000000000000014,6,2,1,3,8,5,1,3,5,0.5,19,7,HL,0.10500000000000001,0.034,0.07,0.11333333333333334
11,3,5,0,2,0.13999999999999999,2,4,54,58,50,95,0.8300000000000004,0.18000000000000002,0.15,0.11999999999999998,4,2,2,2,13,3,2,4,4,0.5,15,7,HL,0.06384615384615386,0.06,0.075,0.030000000000000002
11,3,6,0,3,0.19000000000000003,2,5,29,35,26,84,0.9000000000000005,0.10999999999999999,0.13999999999999999,0.16,4,2,2,3,11,3,4,4,5,0.5,18,7,HL,0.08181818181818182,0.03666666666666667,0.035,0.04
11,4,7,0,4,0.12999999999999998,2,4,103,56,102,78,0.7400000000000003,0.6100000000000003,0.15,0.15,5,4,3,2,17,6,4,2,2,0,11,7,HL,0.043529411764705886,0.10166666666666667,0.0375,0.07499999999999998
11,4,8,0,10,0.16,2,3,87,96,1,90,0.9700000000000005,0.10999999999999999,0.07,0.060000000000000005,4,2,1,1,13,3,1,1,3,0.5,15,7,HL,0.07461538461538463,0.03666666666666667,0.07,0.060000000000000005
11,5,9,0,1,0.16,2,5,73,78,99,102,0.9300000000000005,0.12999999999999998,0.4100000000000002,0.11999999999999998,4,2,3,1,17,3,7,1,3,0,10,7,HL,0.054705882352941174,0.04333333333333333,0.05857142857142857,0.11999999999999998
11,5,10,0,7,0.20000000000000004,2,7,16,17,13,88,0.7900000000000004,0.09999999999999999,1.490000000000001,0.01,4,1,7,1,12,1,18,1,6,0.5,21,7,HL,0.06583333333333334,0.09999999999999999,0.08277777777777778,0.01
11,6,11,0,3,0.20000000000000004,2,3,59,98,58,92,0.7300000000000003,0.4300000000000002,0.15,0.04,4,3,2,1,8,7,2,1,5,0,13,7,HL,0.09125000000000003,0.06142857142857142,0.075,0.04
11,6,12,0,1,0.16,2,5,46,84,41,39,1.2800000000000007,0.060000000000000005,0.15,0.04,6,2,1,1,21,2,1,1,3,0.5,18,7,HL,0.06095238095238095,0.03,0.15,0.04
11,7,13,1,9,0.15,2,3,69,83,38,64,0.8100000000000004,0.17,0.13999999999999999,0.08,4,2,1,2,13,4,1,3,4,0,16,7,HL,0.06230769230769231,0.042499999999999996,0.13999999999999999,0.026666666666666665
11,7,14,1,8,0.17,2,6,114,3,27,94,1.2600000000000007,0.8800000000000006,0.48000000000000026,0.01,7,8,3,1,18,14,3,1,2,0,16,7,HL,0.07,0.06285714285714286,0.16000000000000006,0.01
11,8,15,1,3,0.11999999999999998,2,3,26,30,64,14,0.7000000000000003,0.15,0.4400000000000002,0.11999999999999998,4,1,2,1,7,1,4,1,5,0,20,7,HL,0.10000000000000002,0.15,0.10999999999999999,0.11999999999999998
11,8,16,1,5,0.24000000000000007,4,5,37,53,1,49,0.8700000000000004,0.3200000000000001,0.21000000000000005,0.01,7,2,2,1,12,4,4,1,5,0,19,7,HL,0.07250000000000001,0.08000000000000002,0.0525,0.01
11,9,17,1,4,0.10999999999999999,2,3,105,98,20,103,0.7100000000000003,0.15,0.2800000000000001,0.03,4,2,2,1,10,3,4,1,2,0.5,18,7,HL,0.07100000000000001,0.05,0.06999999999999999,0.03
11,9,18,1,8,0.10999999999999999,1,3,117,53,116,95,0.9100000000000005,0.19000000000000003,0.04,0.12999999999999998,3,2,1,1,13,3,1,1,2,0,11,7,HL,0.07,0.06333333333333334,0.04,0.12999999999999998
11,10,19,1,7,0.20000000000000004,3,3,15,18,98,92,1.2400000000000007,0.02,0.12999999999999998,0.01,5,1,1,1,15,1,1,1,6,0,17,7,HL,0.08266666666666668,0.02,0.12999999999999998,0.01
11,10,20,1,5,0.15,2,3,4,42,39,37,4.039999999999961,0.02,0.01,0.01,16,1,1,1,40,1,1,1,5,0.5,36,7,HL,0.101,0.02,0.01,0.01
11,11,21,1,8,0.21000000000000005,2,7,113,2,94,114,0.7300000000000003,0.2700000000000001,0.24000000000000007,0.03,4,2,2,1,11,3,5,1,2,0,13,7,HL,0.06636363636363637,0.09,0.048,0.03
11,11,22,1,4,0.17,2,4,72,99,23,62,0.8800000000000004,0.13999999999999999,0.22000000000000006,0.09,4,2,2,3,9,3,3,4,2,0,16,7,HL,0.0977777777777778,0.04666666666666667,0.07333333333333333,0.022500000000000003
11,12,23,1,9,0.20000000000000004,2,3,71,72,9,115,1.0000000000000004,0.08,0.08,0.11999999999999998,4,1,2,2,12,1,3,3,4,0,16,7,HL,0.08333333333333334,0.08,0.02666666666666667,0.04
11,12,24,1,1,0.16,2,8,84,13,51,19,0.7200000000000003,0.3900000000000002,0.09,0.24000000000000007,4,2,1,3,14,4,1,4,3,0,19,7,HL,0.05142857142857143,0.09750000000000002,0.09,0.06
11,13,25,1,5,0.17,2,3,44,19,39,111,0.9600000000000005,0.17,0.07,0.04,4,2,2,1,11,3,2,1,5,0,18,7,HL,0.08727272727272727,0.056666666666666664,0.035,0.04
11,13,26,1,4,0.15,2,3,106,9,3,25,0.9300000000000005,0.15,0.13999999999999999,0.05,5,2,2,1,15,2,4,1,2,0,19,7,HL,0.062,0.075,0.035,0.05
11,14,27,1,4,0.21000000000000005,3,4,100,32,104,16,0.6000000000000002,0.48000000000000026,0.11999999999999998,0.07,5,2,2,2,7,6,2,4,2,0,15,7,HL,0.08571428571428573,0.08,0.06,0.0175
11,14,28,1,1,0.18000000000000002,2,3,82,110,52,78,0.7300000000000003,0.38000000000000017,0.10999999999999999,0.10999999999999999,4,2,1,2,7,4,1,2,3,0,12,7,HL,0.1042857142857143,0.095,0.10999999999999999,0.055
11,15,29,1,4,0.25000000000000006,2,3,98,20,48,14,0.8300000000000003,0.2700000000000001,0.12999999999999998,0.2800000000000001,4,2,1,3,9,2,1,5,2,0,19,7,HL,0.09222222222222223,0.13499999999999998,0.12999999999999998,0.056
11,15,30,1,9,0.17,2,4,68,71,62,34,0.9400000000000005,0.15,0.16,0.02,4,2,2,1,11,4,2,1,4,0.5,29,7,HL,0.08545454545454546,0.0375,0.08,0.02
11,16,31,1,2,0.3100000000000001,6,8,53,44,9,5,1.0200000000000005,0.9700000000000006,0.08,3.4999999999999694,8,5,2,13,17,10,2,35,4,0,21,7,HL,0.06,0.097,0.04,0.1
11,16,32,1,1,0.20000000000000004,2,4,80,112,27,64,0.7300000000000003,0.47000000000000025,0.10999999999999999,0.03,5,2,1,1,10,6,1,1,3,0,14,7,HL,0.07300000000000001,0.07833333333333334,0.10999999999999999,0.03
11,17,33,1,1,0.10999999999999999,2,4,82,74,67,29,0.7500000000000003,0.10999999999999999,0.22000000000000006,0.09999999999999999,4,1,1,2,12,1,1,2,3,0,15,7,HL,0.0625,0.10999999999999999,0.22000000000000006,0.05
11,17,34,1,2,0.26000000000000006,4,6,58,37,55,103,1.0300000000000005,0.15,0.12999999999999998,0.08,7,2,2,1,12,3,3,1,4,0,15,7,HL,0.08583333333333334,0.05,0.043333333333333335,0.08
11,18,35,1,1,0.19000000000000003,3,5,82,74,2,34,0.7900000000000004,0.26000000000000006,0.16,0.04,5,2,2,1,11,3,2,1,3,0,17,7,HL,0.07181818181818182,0.08666666666666667,0.08,0.04
11,18,36,1,5,0.17,3,5,18,47,101,40,0.9900000000000005,0.10999999999999999,0.07,0.09,5,1,1,2,12,1,1,2,5,0,18,7,HL,0.0825,0.10999999999999999,0.07,0.045
11,19,37,1,6,0.19000000000000003,2,3,25,3,2,99,1.0800000000000005,0.13999999999999999,1.430000000000001,0.08,5,2,6,2,11,3,12,2,6,0,19,7,HL,0.0981818181818182,0.04666666666666667,0.11916666666666671,0.04
11,19,38,1,8,0.19000000000000003,3,8,111,39,61,18,0.8900000000000005,0.2800000000000001,0.03,0.09999999999999999,5,2,1,1,21,5,1,1,2,0,17,7,HL,0.04238095238095238,0.055999999999999994,0.03,0.09999999999999999
11,20,39,1,3,0.16,2,3,16,66,104,90,1.0100000000000005,0.09999999999999999,0.08,0.060000000000000005,5,2,2,1,16,3,2,1,5,0,15,7,HL,0.06312500000000001,0.03333333333333333,0.04,0.060000000000000005
11,20,40,1,2,0.13999999999999999,2,4,58,54,75,49,0.7400000000000003,0.37000000000000016,0.02,0.05,4,2,1,1,10,7,1,1,4,0.5,27,7,HL,0.07400000000000001,0.05285714285714285,0.02,0.05
11,21,41,1,9,0.17,3,6,65,44,79,70,0.8900000000000005,0.26000000000000006,0.05,0.09,7,2,1,2,14,4,1,2,4,0,16,7,HL,0.06357142857142857,0.065,0.05,0.045
11,21,42,1,2,0.11999999999999998,2,3,4,99,49,3,1.0000000000000004,0.10999999999999999,0.03,0.11999999999999998,4,2,1,2,14,2,1,2,4,0,18,7,HL,0.07142857142857142,0.055,0.03,0.06
11,22,43,1,3,0.22000000000000006,3,5,35,102,95,32,1.0900000000000005,0.07,0.13999999999999999,0.02,5,1,2,1,21,1,2,1,5,0,15,7,HL,0.051904761904761905,0.07,0.06999999999999999,0.02
11,22,44,1,8,0.17,2,4,40,115,9,47,0.6100000000000002,0.35000000000000014,0.3300000000000001,0.10999999999999999,4,2,2,2,6,3,3,2,2,0,18,7,HL,0.10166666666666671,0.11666666666666667,0.11000000000000001,0.05500000000000001
12,1,1,0,9,0.16,2,3,61,67,63,75,0.35000000000000003,0.10999999999999999,0.09,0.16,4,1,1,1,5,1,1,1,4,0.5,15,7,HL,0.07,0.10999999999999999,0.09,0.16
12,1,2,0,2,0.23000000000000007,2,4,51,120,1,34,0.5200000000000001,0.23000000000000007,0.08,0.07,4,1,1,1,6,1,1,1,4,0,17,7,HL,0.08666666666666668,0.23000000000000007,0.08,0.07
12,2,3,0,10,0.2800000000000001,10,12,87,86,37,39,0.5800000000000002,0.07,0.2900000000000001,0.6100000000000003,12,1,1,2,14,1,2,2,3,0,16,7,HL,0.04142857142857143,0.07,0.145,0.30500000000000016
12,2,4,0,3,0.20000000000000004,2,3,105,27,80,101,1.2300000000000006,0.01,0.01,0.05,3,1,1,1,4,1,1,1,5,0,12,7,HL,0.30750000000000016,0.01,0.01,0.05
12,3,5,0,2,0.18000000000000002,2,3,51,59,78,14,0.45000000000000007,0.10999999999999999,0.2800000000000001,0.09,4,1,2,1,5,1,2,1,4,0,17,7,HL,0.09,0.10999999999999999,0.13999999999999999,0.09
12,3,6,0,4,0.23000000000000007,2,3,108,29,103,106,0.5300000000000001,0.19000000000000003,0.07,0.03,4,1,1,1,5,1,1,1,2,0.5,11,7,HL,0.106,0.19000000000000003,0.07,0.03
12,4,7,0,10,0.15,1,2,87,97,42,85,0.39000000000000007,0.2700000000000001,0.22000000000000006,0.01,3,1,2,1,4,1,2,1,3,0,13,7,HL,0.0975,0.2700000000000001,0.11000000000000003,0.01
12,4,8,0,3,0.24000000000000007,5,6,32,27,115,19,0.5000000000000001,4.689999999999944,0.09,0.01,6,6,1,1,7,6,1,1,5,0,18,7,HL,0.07142857142857144,0.7816666666666637,0.09,0.01
12,5,9,0,4,5.739999999999922,9,19,14,92,108,107,5.749999999999922,0.01,3.6899999999999653,0.5600000000000003,10,1,8,2,20,1,10,2,2,0,13,7,HL,0.28750000000000014,0.01,0.36900000000000016,0.28000000000000014
12,5,10,0,1,0.19000000000000003,2,4,80,60,59,39,1.2300000000000006,0.01,0.01,0.01,4,1,1,1,6,1,1,1,3,0,16,7,HL,0.20500000000000013,0.01,0.01,0.01
12,6,11,0,2,0.25000000000000006,2,3,104,44,92,48,1.610000000000001,0.01,0.01,0.01,4,1,1,1,5,1,1,1,4,0,15,7,HL,0.3220000000000002,0.01,0.01,0.01
12,6,12,0,8,0.15,2,3,109,116,75,33,0.36000000000000004,0.07,0.12999999999999998,0.09999999999999999,3,1,1,1,4,1,1,1,2,0,12,7,HL,0.09000000000000001,0.07,0.12999999999999998,0.09999999999999999
12,7,13,1,9,0.18000000000000002,2,4,67,35,36,89,0.4600000000000001,0.05,0.07,0.08,4,1,1,1,7,1,1,1,4,0,17,7,HL,0.06571428571428571,0.05,0.07,0.08
12,7,14,1,8,0.3300000000000001,11,12,111,38,116,58,0.6000000000000002,1.0400000000000007,0.01,1.8800000000000014,13,2,1,2,15,2,1,2,2,0,13,7,HL,0.04,0.5200000000000002,0.01,0.9400000000000007
12,8,15,1,1,0.35000000000000014,3,5,73,34,29,27,0.7300000000000003,0.49000000000000027,0.7400000000000004,0.5600000000000003,6,2,2,2,9,2,2,2,3,0.5,33,7,HL,0.08111111111111112,0.24500000000000013,0.3700000000000002,0.28000000000000014
12,8,16,1,10,0.3200000000000001,13,15,92,18,13,65,0.6200000000000002,0.5500000000000003,3.889999999999961,0.4100000000000002,14,2,5,2,16,2,5,2,3,0,19,7,HL,0.03875000000000001,0.27500000000000013,0.7779999999999961,0.2050000000000001
12,9,17,1,6,0.17,2,3,8,5,75,33,0.5300000000000001,8.569999999999862,0.01,0.02,4,12,1,1,5,19,1,1,6,0,20,7,HL,0.10600000000000002,0.45105263157894765,0.01,0.02
12,9,18,1,7,0.37000000000000016,16,17,96,71,24,70,1.3800000000000008,0.02,0.2800000000000001,0.060000000000000005,18,1,2,1,19,1,2,1,6,0,17,7,HL,0.07263157894736846,0.02,0.14000000000000004,0.060000000000000005
12,10,19,1,9,0.47000000000000025,2,3,84,73,27,32,0.8800000000000004,0.17,0.24000000000000007,0.3200000000000001,5,1,2,2,6,1,2,2,4,0,16,7,HL,0.1466666666666667,0.17,0.12000000000000001,0.16000000000000006
12,10,20,1,7,0.25000000000000006,8,8,16,93,17,18,0.5500000000000002,0.13999999999999999,0.02,0.04,9,2,1,1,9,2,1,1,6,0.5,39,7,HL,0.06111111111111112,0.06999999999999999,0.02,0.04
12,11,21,1,6,0.3100000000000001,13,14,7,71,12,46,0.6000000000000002,0.05,7.449999999999886,0.01,15,1,7,1,16,1,13,1,6,0,21,7,HL,0.037500000000000006,0.05,0.5730769230769234,0.01
12,11,22,1,8,0.12999999999999998,2,3,116,111,17,119,0.41000000000000003,0.03,0.4200000000000002,3.0199999999999796,4,1,4,4,5,1,4,5,2,0.5,18,7,HL,0.08200000000000002,0.03,0.10500000000000001,0.6039999999999994
12,12,23,1,2,0.17,2,3,43,56,1,9,0.6400000000000002,0.01,0.060000000000000005,0.060000000000000005,3,1,1,1,4,1,1,1,4,0,21,7,HL,0.16000000000000006,0.01,0.060000000000000005,0.060000000000000005
12,12,24,1,7,0.17,2,3,17,16,19,116,0.4800000000000001,2.9799999999999804,0.01,0.01,4,4,1,1,5,6,1,1,6,0.5,38,7,HL,0.09600000000000002,0.4966666666666669,0.01,0.01
12,13,25,1,4,0.17,2,3,104,57,23,17,0.44000000000000006,0.3900000000000002,0.5100000000000002,4.519999999999948,4,2,2,11,5,2,2,12,2,0,18,7,HL,0.08800000000000001,0.1950000000000001,0.2550000000000001,0.37666666666666687
12,13,26,1,8,0.20000000000000004,2,3,111,4,64,6,0.6200000000000002,0.03,0.3900000000000002,0.12999999999999998,4,1,2,2,5,1,2,2,2,0,18,7,HL,0.12400000000000003,0.03,0.1950000000000001,0.065
12,14,27,1,1,0.10999999999999999,2,2,2,83,61,39,6.109999999999917,0.01,0.01,0.08,14,1,1,1,21,1,1,1,3,0,18,7,HL,0.2909523809523811,0.01,0.01,0.08
12,14,28,1,7,3.1299999999999772,13,20,15,20,23,51,3.4199999999999773,0.01,2.0500000000000003,0.01,14,1,6,1,21,1,9,1,6,0.5,40,7,HL,0.16285714285714292,0.01,0.22777777777777786,0.01
12,15,29,1,2,0.12999999999999998,2,3,49,56,47,9,0.34,0.08,0.25000000000000006,0.02,3,1,2,1,4,1,2,1,4,0,19,7,HL,0.08500000000000002,0.08,0.125,0.02
12,15,30,1,9,0.3000000000000001,7,8,97,61,31,24,1.9900000000000013,0.03,0.01,0.03,10,2,1,1,11,2,1,1,4,0,17,7,HL,0.18090909090909102,0.015,0.01,0.03
12,16,31,1,3,0.12999999999999998,2,3,5,28,58,111,0.38,0.03,0.3100000000000001,0.01,3,1,3,1,4,1,3,1,5,0,17,7,HL,0.09500000000000001,0.03,0.10333333333333333,0.01
12,16,32,1,4,0.17,2,3,48,47,41,42,0.9400000000000005,0.03,0.01,4.559999999999947,5,1,1,7,6,1,1,7,2,1,60,7,HL,0.1566666666666667,0.03,0.01,0.6514285714285719
12,17,33,1,6,0.20000000000000004,2,3,10,12,1,9,0.37000000000000005,0.21000000000000005,7.6899999999998805,4.299999999999953,4,1,11,7,5,1,15,9,6,1,72,7,HL,0.074,0.21000000000000005,0.5126666666666669,0.477777777777778
12,17,34,1,4,0.36000000000000015,2,3,99,26,14,104,0.5100000000000001,0.09999999999999999,0.2800000000000001,0.03,4,1,1,1,5,1,1,1,2,0,15,7,HL,0.10200000000000002,0.09999999999999999,0.2800000000000001,0.03
12,18,35,1,8,0.19000000000000003,2,3,118,110,51,89,0.4800000000000001,0.05,0.2900000000000001,0.7300000000000004,3,1,3,4,4,1,3,4,2,0,11,7,HL,0.12000000000000002,0.05,0.09666666666666666,0.18250000000000005
12,18,36,1,9,2.2199999999999966,6,11,29,99,68,28,2.459999999999997,1.0100000000000007,0.01,0.2800000000000001,7,1,1,3,12,1,1,3,4,0,16,7,HL,0.2050000000000001,1.0100000000000007,0.01,0.09333333333333335
12,19,37,1,4,0.16,2,3,101,103,42,45,0.39000000000000007,0.07,0.35000000000000014,0.05,3,1,3,1,4,1,3,1,2,0,14,7,HL,0.09750000000000002,0.07,0.11666666666666668,0.05
12,19,38,1,2,0.22000000000000006,4,6,17,111,26,25,0.9700000000000005,0.060000000000000005,0.20000000000000004,0.01,7,1,1,1,9,1,1,1,4,0,18,7,HL,0.10777777777777782,0.060000000000000005,0.20000000000000004,0.01
12,20,39,1,2,0.2700000000000001,2,3,116,5,109,120,2.2300000000000018,0.02,0.02,0.01,6,1,1,1,8,1,1,1,4,0.5,18,7,HL,0.27875000000000016,0.02,0.02,0.01
12,20,40,1,7,0.19000000000000003,2,3,24,22,72,43,0.8500000000000004,0.01,0.060000000000000005,0.02,4,1,1,1,5,1,1,1,6,0,21,7,HL,0.17000000000000007,0.01,0.060000000000000005,0.02
12,21,41,1,10,0.17,2,3,94,92,111,12,0.36000000000000004,0.19000000000000003,0.02,0.49000000000000027,3,2,1,3,4,3,1,3,3,0,14,7,HL,0.09000000000000001,0.06333333333333332,0.02,0.16333333333333339
12,21,42,1,9,0.2700000000000001,8,8,68,15,61,47,0.4700000000000001,0.4300000000000002,0.01,0.01,9,2,1,1,9,2,1,1,4,0,19,7,HL,0.052222222222222225,0.2150000000000001,0.01,0.01
12,22,43,1,6,0.15,2,3,7,10,66,46,0.39000000000000007,0.05,0.20000000000000004,3.619999999999967,3,1,1,5,4,1,1,5,6,0,21,7,HL,0.09750000000000002,0.05,0.20000000000000004,0.7240000000000004
12,22,44,1,3,0.9400000000000006,4,5,34,19,16,14,1.1600000000000006,0.060000000000000005,0.07,0.05,6,1,1,2,7,1,1,2,5,0.5,41,7,HL,0.16571428571428581,0.060000000000000005,0.07,0.025
13,1,1,0,3,0.16,2,3,32,25,2,63,0.4600000000000001,0.16,0.18000000000000002,0.9100000000000006,4,2,1,2,5,2,1,2,5,0,20,7,HL,0.092,0.07999999999999999,0.18000000000000002,0.4550000000000003
13,1,2,0,8,0.16,2,3,81,20,116,21,0.7700000000000004,0.18000000000000002,0.01,0.13999999999999999,3,1,1,2,4,1,1,2,2,0,17,7,HL,0.1925000000000001,0.18000000000000002,0.01,0.06999999999999999
13,2,3,0,1,0.15,2,3,83,77,2,28,0.4900000000000001,0.04,1.0900000000000007,0.01,4,1,3,1,5,1,3,1,3,0,17,7,HL,0.09800000000000002,0.04,0.3633333333333335,0.01
13,2,4,0,5,0.16,2,3,42,119,115,114,0.5400000000000001,0.24000000000000007,0.09,0.05,4,2,1,1,5,2,1,1,5,0.5,11,7,HL,0.10800000000000003,0.12000000000000004,0.09,0.05
