Subject,Round,Phase,afterbreak,Schema,Schema_RT,Schema_OB,Schema_AS,Cho_1,Cho_2,Cho_3,Cho_4,RT_1,RT_2,RT_3,RT_4,OB_1,OB_2,OB_3,OB_4,AS_1,AS_2,AS_3,AS_4,schema_payoff,AC,performance,breakR,type,dwellmean_1,dwellmean_2,dwellmean_3,dwellmean_4
1,1,1,0,5,0.5500000000000003,2,9,1,2,91,98,1.9800000000000013,0.16,0.8100000000000005,0.3100000000000001,5,2,5,2,21,4,10,2,6,0,17,7,LH,0.09428571428571429,0.04,0.08100000000000002,0.15500000000000003
1,1,2,0,2,0.8000000000000005,2,11,75,77,74,37,1.8300000000000012,0.9300000000000006,0.17,0.5800000000000003,6,3,2,3,23,9,3,6,3,0.5,23,7,LH,0.07956521739130436,0.10333333333333333,0.05666666666666667,0.09666666666666668
1,2,3,0,3,0.4400000000000002,2,5,42,89,20,15,1.9400000000000013,0.9900000000000007,0.34000000000000014,1.2400000000000009,5,3,2,6,29,7,4,21,5,0,20,7,LH,0.06689655172413793,0.14142857142857143,0.08500000000000002,0.05904761904761905
1,2,4,0,8,0.4300000000000002,4,7,118,4,83,74,2.49,0.22000000000000006,0.3900000000000002,0.49000000000000027,7,2,2,5,33,5,2,7,2,0,14,7,LH,0.07545454545454545,0.044,0.19500000000000006,0.07
1,3,5,0,8,0.4000000000000002,2,5,114,115,16,44,2.989999999999989,0.9600000000000006,0.02,0.22000000000000006,10,8,1,2,33,15,1,2,2,0,15,7,LH,0.09060606060606062,0.064,0.02,0.10999999999999999
1,3,6,0,6,0.2900000000000001,2,4,2,105,5,99,7.639999999999888,0.01,0.07,0.01,20,1,4,1,98,1,4,1,4,0,16,7,LH,0.07795918367346939,0.01,0.0175,0.01
1,4,7,0,1,0.5400000000000003,2,7,101,107,34,28,1.8800000000000012,0.5200000000000002,0.3000000000000001,0.07,6,4,3,1,18,10,5,1,5,0,14,7,LH,0.10444444444444448,0.052000000000000005,0.06,0.07
1,4,8,0,2,0.15,3,3,2,70,77,110,7.779999999999882,0.02,0.01,0.04,20,1,1,1,87,1,1,1,3,0,15,7,LH,0.08942528735632185,0.02,0.01,0.04
1,5,9,0,1,0.8900000000000006,3,12,34,4,25,10,1.8800000000000012,0.4000000000000002,0.5500000000000003,0.07,5,3,3,1,26,5,8,1,5,0,22,7,LH,0.07230769230769231,0.08,0.06875,0.07
1,5,10,0,9,0.34000000000000014,2,3,69,46,37,111,2.42,0.6800000000000004,0.09,0.3900000000000002,6,3,2,6,20,6,3,7,4,0,16,7,LH,0.12100000000000002,0.11333333333333334,0.030000000000000002,0.055714285714285716
1,6,11,0,2,0.6900000000000004,2,6,80,46,37,112,1.5000000000000009,0.8700000000000006,0.20000000000000004,0.2900000000000001,4,4,1,2,12,15,1,7,3,0,15,7,LH,0.125,0.057999999999999996,0.20000000000000004,0.04142857142857143
1,6,12,0,4,0.4300000000000002,3,6,100,15,18,98,1.8900000000000012,0.8200000000000005,0.24000000000000007,0.05,5,4,2,1,21,10,2,1,2,0,16,7,LH,0.09000000000000001,0.082,0.12000000000000002,0.05
1,7,13,1,10,0.5700000000000003,2,10,20,84,17,30,1.540000000000001,0.5300000000000002,0.4300000000000002,2.0000000000000013,4,2,4,10,18,5,8,20,6,0,20,7,LH,0.08555555555555555,0.10600000000000002,0.05375,0.10000000000000002
1,7,14,1,9,0.6200000000000003,2,10,66,65,104,68,2.4400000000000017,0.35000000000000014,0.3000000000000001,0.05,6,3,3,1,27,5,9,1,4,0.5,14,7,LH,0.09037037037037038,0.07,0.03333333333333333,0.05
1,8,15,1,9,0.6600000000000004,3,10,67,83,70,68,1.8300000000000012,0.5300000000000002,0.3900000000000002,0.11999999999999998,8,4,4,2,20,8,6,3,4,0.5,15,7,LH,0.09150000000000001,0.06625,0.06499999999999999,0.04
1,8,16,1,6,0.7800000000000005,3,5,59,52,50,27,1.8100000000000012,0.6800000000000004,0.9300000000000006,0.18000000000000002,5,2,2,2,19,6,11,2,4,0.5,17,7,LH,0.09526315789473686,0.11333333333333334,0.08454545454545455,0.09
1,9,17,1,9,0.3100000000000001,3,5,72,18,22,64,1.590000000000001,0.6800000000000004,0.07,0.23000000000000007,6,3,1,4,23,7,1,6,4,0,20,7,LH,0.0691304347826087,0.09714285714285713,0.07,0.03833333333333334
1,9,18,1,1,0.34000000000000014,2,7,112,36,53,51,3.0499999999999865,0.060000000000000005,0.49000000000000027,0.17,10,2,2,3,37,2,4,3,5,0,15,7,LH,0.08243243243243244,0.030000000000000002,0.12250000000000003,0.056666666666666664
1,10,19,1,8,1.1300000000000008,15,22,4,112,63,72,2.3400000000000016,0.09,0.8500000000000005,0.12999999999999998,20,2,3,1,32,2,11,1,2,0,16,7,LH,0.07312500000000001,0.045,0.07727272727272727,0.12999999999999998
1,10,20,1,6,0.7300000000000004,2,9,52,14,60,59,2.4600000000000017,0.6300000000000003,0.2900000000000001,0.10999999999999999,5,5,2,2,29,12,4,2,4,0.5,18,7,LH,0.08482758620689657,0.0525,0.0725,0.05500000000000001
1,11,21,1,8,0.9200000000000006,16,22,116,72,84,78,1.8400000000000012,1.2000000000000008,0.17,0.15,20,4,2,1,36,18,3,1,2,0,12,7,LH,0.05111111111111111,0.06666666666666667,0.056666666666666664,0.15
1,11,22,1,6,0.9700000000000006,2,18,56,58,50,100,1.650000000000001,1.9300000000000015,0.3900000000000002,0.16,6,11,3,2,25,26,6,3,4,0.5,14,7,LH,0.066,0.07423076923076924,0.065,0.05333333333333333
1,12,23,1,5,0.5300000000000002,2,7,8,3,63,5,1.8200000000000012,0.6900000000000004,0.9400000000000006,0.5400000000000003,7,6,8,4,19,7,17,5,6,0.5,22,7,LH,0.09578947368421054,0.09857142857142859,0.05529411764705883,0.108
1,12,24,1,8,0.8200000000000005,16,21,59,60,58,112,3.629999999999985,0.03,0.02,1.0500000000000007,20,1,1,5,70,1,1,8,2,0.5,14,7,LH,0.05185714285714286,0.03,0.02,0.13125000000000003
1,13,25,1,6,1.7300000000000013,10,30,31,57,117,73,6.079999999999953,0.01,0.09999999999999999,0.01,20,1,2,1,74,1,2,1,4,0,14,7,LH,0.08216216216216217,0.01,0.049999999999999996,0.01
1,13,26,1,10,0.8700000000000006,18,21,90,87,22,62,4.34999999999997,0.8300000000000005,0.01,0.25000000000000006,20,5,1,4,61,9,1,4,6,0,16,7,LH,0.07131147540983607,0.09222222222222223,0.01,0.0625
1,14,27,1,10,1.5300000000000011,19,38,32,81,23,35,2.790000000000002,0.3000000000000001,0.07,0.2800000000000001,20,2,1,2,50,2,1,3,6,0,19,7,LH,0.0558,0.15,0.07,0.09333333333333332
1,14,28,1,6,0.6300000000000003,2,14,51,96,117,113,2.070000000000001,0.5100000000000002,0.4000000000000002,0.04,4,2,2,1,32,7,4,1,4,0,11,7,LH,0.0646875,0.07285714285714286,0.09999999999999999,0.04
1,15,29,1,10,0.38000000000000017,2,5,23,110,22,84,2.0500000000000016,0.38000000000000017,0.20000000000000004,0.9900000000000007,7,3,2,8,25,5,3,10,6,0,17,7,LH,0.082,0.076,0.06666666666666667,0.09900000000000002
1,15,30,1,6,0.5200000000000002,6,12,60,57,92,36,2.1600000000000015,0.09,0.9400000000000006,0.6000000000000003,8,1,4,5,46,1,8,6,4,0,16,7,LH,0.04695652173913044,0.09,0.11750000000000002,0.1
1,16,31,1,5,0.2900000000000001,2,3,6,5,11,26,1.4700000000000009,0.9300000000000006,0.02,0.6600000000000004,4,2,1,7,21,15,2,11,6,0.5,23,7,LH,0.07,0.062000000000000006,0.01,0.06
1,16,32,1,2,0.8200000000000005,3,12,50,19,18,22,2.640000000000002,0.2900000000000001,1.1600000000000008,0.02,6,3,7,1,35,4,19,1,3,0.5,22,7,LH,0.07542857142857143,0.0725,0.06105263157894737,0.02
1,17,33,1,3,0.21000000000000005,2,5,16,69,44,78,4.559999999999952,0.04,0.01,0.03,11,1,1,1,57,1,1,1,5,0,18,7,LH,0.08,0.04,0.01,0.03
1,17,34,1,6,0.45000000000000023,11,11,92,88,90,97,4.089999999999967,1.330000000000001,0.34000000000000014,2.9199999999999817,20,9,6,15,47,11,6,34,4,0.5,11,7,LH,0.0870212765957447,0.12090909090909094,0.056666666666666664,0.08588235294117648
1,18,35,1,9,0.8700000000000006,2,11,67,64,104,2,1.8800000000000012,0.8000000000000005,0.6200000000000003,0.10999999999999999,5,4,4,1,27,11,6,1,4,0,16,7,LH,0.06962962962962964,0.07272727272727272,0.10333333333333335,0.10999999999999999
1,18,36,1,6,0.7500000000000004,13,16,49,50,33,53,1.590000000000001,0.7700000000000005,0.7100000000000004,0.37000000000000016,15,4,4,6,25,9,9,8,4,0.5,17,7,LH,0.0636,0.08555555555555555,0.0788888888888889,0.04625
1,19,37,1,1,1.270000000000001,3,17,31,55,52,26,3.1700000000000026,0.4300000000000002,0.09,1.2400000000000009,8,4,2,5,33,8,2,11,5,0,18,7,LH,0.09606060606060607,0.05375,0.045,0.11272727272727273
1,19,38,1,5,0.7500000000000004,13,15,8,1,37,105,1.740000000000001,1.0800000000000007,0.7700000000000005,0.26000000000000006,16,4,6,1,23,17,10,1,6,0,19,7,LH,0.07565217391304348,0.06352941176470588,0.077,0.26000000000000006
1,20,39,1,3,0.5900000000000003,2,7,39,43,37,58,1.550000000000001,0.23000000000000007,0.21000000000000005,1.0200000000000007,5,1,1,9,17,2,1,15,5,0.5,19,7,LH,0.0911764705882353,0.11500000000000003,0.21000000000000005,0.06799999999999999
1,20,40,1,9,0.6700000000000004,2,9,70,102,73,101,1.4700000000000009,1.2200000000000009,1.300000000000001,0.01,5,7,9,1,13,13,13,1,4,0,11,7,LH,0.11307692307692309,0.09384615384615386,0.1,0.01
1,21,41,1,7,0.5200000000000002,2,5,93,96,59,90,1.0600000000000005,0.9900000000000007,0.34000000000000014,0.07,4,4,2,1,9,15,4,1,3,0.5,13,7,LH,0.1177777777777778,0.066,0.08499999999999999,0.07
1,21,42,1,9,37.30000000000115,8,429,18,78,82,104,38.33000000000115,1.8800000000000014,0.060000000000000005,0.01,12,5,2,1,439,19,2,1,4,0,14,7,LH,0.0873120728929385,0.09894736842105264,0.030000000000000002,0.01
2,1,1,0,8,1.2000000000000008,2,12,114,23,16,44,5.779999999999948,2.7299999999999858,0.48000000000000026,0.24000000000000007,11,5,1,1,33,11,1,1,2,0,19,7,LH,0.1751515151515152,0.24818181818181828,0.48000000000000026,0.24000000000000007
2,1,2,0,1,0.5400000000000003,2,6,107,99,26,97,7.039999999999906,0.4100000000000002,0.18000000000000002,0.3000000000000001,15,1,2,1,40,1,2,1,5,0.5,17,7,LH,0.17600000000000005,0.4100000000000002,0.09,0.3000000000000001
2,2,3,0,10,0.34000000000000014,2,3,14,120,115,17,8.689999999999866,0.7900000000000005,0.04,0.6900000000000004,14,5,1,2,41,6,1,2,6,0,16,7,LH,0.2119512195121952,0.1316666666666667,0.04,0.3450000000000002
2,2,4,0,5,0.13999999999999999,2,2,2,37,10,75,4.479999999999952,4.059999999999958,0.7000000000000004,0.8100000000000005,7,8,3,3,22,14,6,6,6,0,20,7,LH,0.2036363636363637,0.2900000000000001,0.1166666666666667,0.135
2,3,5,0,8,0.6300000000000003,3,4,43,120,44,112,7.309999999999903,0.2800000000000001,1.300000000000001,1.5800000000000012,15,2,4,6,38,3,5,9,2,0,14,7,LH,0.19236842105263163,0.09333333333333332,0.2600000000000001,0.1755555555555556
2,3,6,0,9,0.34000000000000014,2,4,62,68,12,81,4.189999999999962,1.5900000000000012,0.4100000000000002,0.7500000000000004,9,5,1,4,22,12,1,8,4,0,17,7,LH,0.19045454545454552,0.13250000000000003,0.4100000000000002,0.09375000000000001
2,4,7,0,7,0.3100000000000001,2,3,110,114,4,92,8.099999999999879,0.4300000000000002,0.9100000000000006,0.5200000000000002,14,3,3,2,44,4,6,2,3,0,13,7,LH,0.18409090909090917,0.10750000000000003,0.1516666666666667,0.2600000000000001
2,4,8,0,4,0.6600000000000004,2,4,40,103,24,67,7.409999999999901,0.45000000000000023,0.7900000000000005,0.26000000000000006,13,2,2,2,30,8,5,3,2,0,17,7,LH,0.2470000000000001,0.05625,0.158,0.08666666666666668
2,5,9,0,7,0.3000000000000001,1,2,87,98,95,15,5.279999999999938,1.400000000000001,0.6400000000000003,1.8700000000000014,11,5,4,5,25,11,5,9,3,0,14,7,LH,0.21120000000000005,0.1272727272727273,0.128,0.20777777777777784
2,5,10,0,2,0.7600000000000005,2,9,81,74,6,44,6.919999999999914,0.3100000000000001,0.2800000000000001,0.4000000000000002,14,2,1,2,43,2,2,3,3,0,17,7,LH,0.16093023255813957,0.155,0.14,0.13333333333333333
2,6,11,0,3,0.47000000000000025,2,6,43,42,85,96,4.9999999999999485,0.9600000000000006,0.7600000000000005,0.2900000000000001,7,4,2,3,24,8,7,3,5,0,16,7,LH,0.2083333333333334,0.12000000000000002,0.10857142857142858,0.09666666666666669
2,6,12,0,2,0.4000000000000002,2,4,83,82,7,113,7.079999999999902,1.6700000000000013,2.2299999999999964,2.869999999999983,13,8,6,6,39,11,10,13,3,0,14,7,LH,0.1815384615384616,0.15181818181818185,0.2230000000000001,0.22076923076923086
2,7,13,1,4,0.3900000000000002,2,4,97,56,76,107,6.24999999999992,2.909999999999982,2.429999999999992,0.4100000000000002,13,7,8,5,43,9,14,6,2,0,11,7,LH,0.14534883720930236,0.3233333333333335,0.17357142857142863,0.06833333333333334
2,7,14,1,3,0.47000000000000025,2,6,41,44,111,47,4.539999999999958,1.5800000000000012,2.1799999999999975,0.07,12,6,7,1,30,12,11,1,5,0.5,17,7,LH,0.15133333333333338,0.1316666666666667,0.19818181818181824,0.07
2,8,15,1,4,1.7800000000000014,3,10,48,43,42,6,7.899999999999915,0.24000000000000007,2.389999999999993,0.5100000000000002,15,1,5,3,43,1,10,5,2,0.5,21,7,LH,0.1837209302325582,0.24000000000000007,0.23900000000000007,0.10200000000000001
2,8,16,1,9,0.2700000000000001,3,4,65,76,79,74,5.239999999999939,2.719999999999986,2.2799999999999954,1.8100000000000014,13,9,8,4,31,18,13,6,4,0.5,13,7,LH,0.1690322580645162,0.15111111111111114,0.17538461538461544,0.3016666666666668
2,9,17,1,9,0.8800000000000006,3,8,84,64,71,63,6.499999999999925,0.7800000000000005,0.19000000000000003,0.4400000000000002,13,3,1,3,32,4,1,3,4,0.5,15,7,LH,0.20312500000000006,0.19500000000000003,0.19000000000000003,0.1466666666666667
2,9,18,1,10,0.4200000000000002,2,5,16,14,24,113,3.249999999999984,4.90999999999994,2.569999999999989,0.2800000000000001,7,11,11,1,16,23,16,1,6,0.5,20,7,LH,0.20312500000000008,0.2134782608695653,0.16062500000000005,0.2800000000000001
2,10,19,1,1,0.5600000000000003,2,5,32,117,115,52,5.759999999999934,2.53999999999999,0.37000000000000016,0.7300000000000004,11,6,1,3,29,9,1,4,5,0,13,7,LH,0.19862068965517246,0.2822222222222223,0.37000000000000016,0.18250000000000008
2,10,20,1,5,0.3200000000000001,2,5,9,11,44,42,5.829999999999927,0.18000000000000002,0.6000000000000003,4.079999999999957,13,2,2,11,35,2,3,16,6,0,22,7,LH,0.16657142857142862,0.09,0.20000000000000007,0.2550000000000001
2,11,21,1,4,0.3000000000000001,2,4,102,78,35,80,4.949999999999945,2.010000000000001,0.45000000000000023,0.26000000000000006,13,4,2,2,29,14,3,2,2,0,13,7,LH,0.17068965517241383,0.1435714285714286,0.15000000000000002,0.13000000000000003
2,11,22,1,8,0.4200000000000002,2,6,64,1,119,11,7.1799999999999,0.25000000000000006,0.34000000000000014,1.0800000000000007,14,1,3,4,43,2,3,8,2,0,18,7,LH,0.16697674418604655,0.12500000000000003,0.11333333333333333,0.135
2,12,23,1,3,0.5300000000000002,2,4,40,114,111,6,5.479999999999939,1.370000000000001,0.24000000000000007,0.8900000000000006,10,4,1,5,25,6,1,7,5,0,15,7,LH,0.21920000000000006,0.2283333333333334,0.24000000000000007,0.12714285714285717
2,12,24,1,10,1.350000000000001,3,10,28,20,17,80,9.16999999999988,0.3100000000000001,0.6900000000000004,2.159999999999998,15,2,3,5,43,2,4,9,6,0,20,7,LH,0.21325581395348844,0.155,0.17250000000000004,0.24000000000000007
2,13,25,1,3,0.7100000000000004,3,8,9,75,40,115,8.589999999999877,0.45000000000000023,0.10999999999999999,2.5999999999999885,16,1,1,8,52,1,1,12,5,0,16,7,LH,0.16519230769230772,0.45000000000000023,0.10999999999999999,0.21666666666666676
2,13,26,1,4,0.9100000000000006,2,7,104,108,98,17,5.449999999999948,1.0600000000000007,0.49000000000000027,1.0500000000000007,10,6,2,3,40,8,4,8,2,0.5,12,7,LH,0.13625,0.13250000000000003,0.12250000000000001,0.13125000000000003
2,14,27,1,2,0.20000000000000004,2,3,17,76,74,19,6.119999999999918,0.6000000000000003,0.38000000000000017,0.9700000000000006,11,3,2,2,22,4,4,3,3,0,18,7,LH,0.2781818181818183,0.15000000000000002,0.095,0.3233333333333335
2,14,28,1,3,0.7500000000000004,2,7,38,6,48,103,4.579999999999963,2.5899999999999888,0.17,0.8700000000000006,8,5,2,2,28,11,2,2,5,0,18,7,LH,0.16357142857142862,0.23545454545454556,0.08499999999999999,0.4350000000000003
2,15,29,1,5,0.5700000000000003,3,6,4,42,108,72,5.679999999999936,3.039999999999979,3.6699999999999657,0.23000000000000007,12,7,6,2,35,13,12,2,6,0,17,7,LH,0.16228571428571434,0.23384615384615393,0.3058333333333335,0.11500000000000003
2,15,30,1,6,0.6300000000000003,2,6,82,56,118,73,5.939999999999932,1.2000000000000008,1.5500000000000012,0.8200000000000005,11,4,5,3,29,5,6,3,4,0,12,7,LH,0.20482758620689662,0.24000000000000005,0.2583333333333334,0.27333333333333343
2,16,31,1,8,0.7900000000000005,2,7,52,38,57,111,8.869999999999873,0.9000000000000006,0.3200000000000001,0.09,14,3,1,1,33,6,1,1,2,0,15,7,LH,0.2687878787878789,0.15000000000000002,0.3200000000000001,0.09
2,16,32,1,10,0.7200000000000004,2,7,23,14,28,104,6.209999999999928,1.7900000000000014,0.7700000000000005,1.0300000000000007,10,4,3,3,31,11,5,7,6,0,19,7,LH,0.20032258064516134,0.1627272727272728,0.15400000000000003,0.1471428571428572
2,17,33,1,4,0.3200000000000001,2,4,105,108,28,81,6.869999999999905,0.21000000000000005,5.979999999999917,0.09999999999999999,15,1,14,2,25,1,22,2,2,0,12,7,LH,0.2748000000000001,0.21000000000000005,0.2718181818181819,0.049999999999999996
2,17,34,1,3,0.15,2,3,44,43,39,114,2.999999999999983,0.8300000000000005,2.5499999999999896,0.6600000000000004,6,5,8,2,20,5,11,5,5,0.5,17,7,LH,0.15000000000000002,0.16600000000000004,0.23181818181818192,0.132
2,18,35,1,7,0.22000000000000006,4,4,12,40,113,88,32.87000000000207,0.01,1.7800000000000014,0.4100000000000002,20,1,4,3,161,1,4,3,3,0,16,7,LH,0.2041614906832299,0.01,0.44500000000000023,0.1366666666666667
2,18,36,1,2,0.4100000000000002,2,4,74,73,75,104,6.189999999999921,1.290000000000001,1.0200000000000007,1.0300000000000007,13,3,3,3,40,7,5,5,3,0.5,11,7,LH,0.15475000000000003,0.18428571428571433,0.20400000000000007,0.20600000000000007
2,19,37,1,5,0.3900000000000002,4,5,41,100,94,2,11.829999999999801,0.01,0.060000000000000005,0.01,18,1,1,1,49,1,1,1,6,0,16,7,LH,0.24142857142857135,0.01,0.060000000000000005,0.01
2,19,38,1,8,0.38000000000000017,2,3,119,109,22,116,5.679999999999931,1.8500000000000014,1.390000000000001,0.5100000000000002,11,9,7,3,30,12,8,4,2,0.5,12,7,LH,0.1893333333333334,0.1541666666666667,0.17375000000000004,0.12750000000000006
2,20,39,1,2,0.46000000000000024,2,3,78,18,21,83,2.7599999999999953,2.4699999999999913,2.4999999999999907,0.9000000000000006,6,4,5,5,10,7,14,6,3,0,18,7,LH,0.27600000000000013,0.35285714285714304,0.17857142857142866,0.15000000000000002
2,20,40,1,4,0.5100000000000002,2,7,99,108,2,45,16.769999999999744,0.5800000000000003,2.8399999999999834,0.01,20,4,12,1,79,4,20,1,2,0,15,7,LH,0.2122784810126583,0.14500000000000005,0.14200000000000002,0.01
3,1,1,0,10,0.8000000000000005,2,7,24,22,16,21,5.859999999999937,0.5100000000000002,0.8500000000000005,0.48000000000000026,5,3,3,2,50,6,8,3,6,1,72,7,LH,0.11720000000000001,0.085,0.10625,0.16000000000000003
3,1,2,0,1,0.9100000000000006,2,10,30,31,93,33,8.429999999999884,1.6900000000000013,1.6400000000000012,0.04,16,6,3,1,60,12,11,1,5,0.5,33,7,LH,0.14050000000000004,0.14083333333333337,0.1490909090909091,0.04
3,2,3,0,8,1.0000000000000007,2,8,116,44,86,110,8.439999999999886,1.0300000000000007,0.9300000000000006,0.060000000000000005,13,3,3,1,68,6,6,1,2,0,12,7,LH,0.12411764705882355,0.17166666666666672,0.15500000000000005,0.060000000000000005
3,2,4,0,4,0.6500000000000004,2,9,103,104,29,32,6.309999999999924,2.53999999999999,2.3099999999999947,0.5300000000000002,14,10,7,2,41,19,14,2,2,0,14,7,LH,0.1539024390243903,0.13368421052631582,0.16500000000000004,0.26500000000000007
3,3,5,0,3,1.2200000000000009,2,11,39,41,9,98,9.41999999999987,1.5600000000000012,9.969999999999832,0.01,20,7,18,1,69,13,67,1,5,0,18,7,LH,0.1365217391304348,0.12000000000000002,0.14880597014925376,0.01
3,3,6,0,1,0.9200000000000006,2,8,29,36,26,93,8.979999999999873,0.8400000000000005,0.20000000000000004,1.430000000000001,14,3,2,6,62,4,3,13,5,0.5,33,7,LH,0.14483870967741938,0.21000000000000008,0.06666666666666667,0.11000000000000001
3,4,7,0,6,0.6700000000000004,2,6,54,50,30,60,5.10999999999995,3.559999999999968,0.6600000000000004,0.20000000000000004,8,10,3,3,38,26,3,3,4,0.5,29,7,LH,0.13447368421052636,0.13692307692307695,0.22000000000000008,0.06666666666666667
3,4,8,0,4,0.6200000000000003,4,8,101,47,104,89,6.769999999999913,2.8899999999999824,0.22000000000000006,0.4100000000000002,11,3,2,2,56,25,2,3,2,0,12,7,LH,0.12089285714285716,0.11560000000000001,0.10999999999999999,0.13666666666666666
3,5,9,0,3,0.4300000000000002,2,5,2,43,81,40,15.589999999999721,0.02,0.09999999999999999,0.01,19,1,2,1,107,1,2,1,5,0,19,7,LH,0.14570093457943928,0.02,0.05,0.01
3,5,10,0,1,0.6100000000000003,2,7,32,30,25,35,6.979999999999909,1.1200000000000008,0.8400000000000005,0.3100000000000001,14,7,3,2,55,7,7,2,5,1,60,7,LH,0.12690909090909094,0.16000000000000003,0.12000000000000001,0.15500000000000003
3,6,11,0,2,0.3900000000000002,2,3,83,75,44,116,5.77999999999993,1.9400000000000015,1.480000000000001,2.2799999999999954,6,5,6,7,41,10,10,13,3,0,13,7,LH,0.1409756097560976,0.19400000000000003,0.14800000000000005,0.17538461538461544
3,6,12,0,1,0.5700000000000003,2,5,35,1,8,33,6.259999999999923,2.439999999999992,1.0100000000000007,0.25000000000000006,14,4,4,2,44,17,6,2,5,0,22,7,LH,0.1422727272727273,0.1435294117647059,0.16833333333333336,0.125
3,7,13,1,3,0.7100000000000004,2,6,89,45,12,85,8.789999999999873,1.280000000000001,0.7300000000000004,0.45000000000000023,14,4,2,2,49,6,7,3,5,0,17,7,LH,0.17938775510204086,0.2133333333333334,0.1042857142857143,0.15
3,7,14,1,8,0.5100000000000002,2,3,109,113,73,111,5.809999999999931,3.1599999999999766,0.18000000000000002,0.4000000000000002,11,10,2,2,41,15,3,5,2,0.5,9,7,LH,0.14170731707317077,0.21066666666666672,0.05999999999999999,0.08
3,8,15,1,5,0.49000000000000027,2,7,38,1,51,4,7.329999999999899,3.799999999999963,1.330000000000001,0.08,13,13,4,2,44,28,13,2,6,0,21,7,LH,0.16659090909090915,0.13571428571428576,0.10230769230769232,0.04
3,8,16,1,9,0.4000000000000002,2,3,61,71,88,35,6.059999999999924,4.709999999999944,0.34000000000000014,0.5300000000000002,14,10,2,5,39,26,3,7,4,0,16,7,LH,0.15538461538461543,0.18115384615384622,0.11333333333333333,0.07571428571428572
3,9,17,1,4,0.47000000000000025,2,6,49,60,5,56,6.289999999999921,2.020000000000001,0.6300000000000003,0.12999999999999998,12,3,2,1,37,18,10,1,2,0.5,18,7,LH,0.17000000000000004,0.11222222222222222,0.063,0.12999999999999998
3,9,18,1,8,0.25000000000000006,2,4,120,110,46,48,4.579999999999952,1.8400000000000014,0.25000000000000006,0.23000000000000007,7,4,1,1,42,14,1,1,2,0,14,7,LH,0.10904761904761906,0.13142857142857145,0.25000000000000006,0.23000000000000007
3,10,19,1,4,0.2800000000000001,2,6,101,97,103,87,4.559999999999953,1.270000000000001,1.8400000000000014,2.149999999999998,9,6,7,8,36,11,12,15,2,0.5,9,7,LH,0.12666666666666668,0.11545454545454548,0.15333333333333338,0.14333333333333337
3,10,20,1,3,0.9500000000000006,2,9,37,47,59,51,6.1099999999999355,1.270000000000001,0.7000000000000004,0.47000000000000025,10,3,5,1,40,11,7,1,5,0,18,7,LH,0.15275000000000002,0.11545454545454546,0.10000000000000002,0.47000000000000025
3,11,21,1,5,0.060000000000000005,2,2,2,6,12,75,11.409999999999803,0.01,0.02,0.7400000000000004,18,1,1,3,85,1,1,3,6,0.5,21,7,LH,0.1342352941176471,0.01,0.02,0.24666666666666676
3,11,22,1,7,0.7000000000000004,2,6,44,39,50,49,5.61999999999994,2.1299999999999986,0.8700000000000006,0.25000000000000006,12,8,4,1,36,16,6,1,3,0,18,7,LH,0.15611111111111114,0.13312500000000002,0.14500000000000005,0.25000000000000006
3,12,23,1,2,0.7700000000000005,2,10,39,83,78,42,6.349999999999926,0.3100000000000001,0.48000000000000026,0.15,11,2,3,2,49,3,6,3,3,0,16,7,LH,0.1295918367346939,0.10333333333333336,0.08,0.049999999999999996
3,12,24,1,8,0.22000000000000006,2,4,111,113,116,26,5.679999999999928,0.25000000000000006,0.15,2.0799999999999996,10,2,1,8,31,2,1,12,2,0.5,11,7,LH,0.18322580645161296,0.125,0.15,0.17333333333333337
3,13,25,1,7,1.350000000000001,14,20,86,1,90,71,6.459999999999937,0.45000000000000023,0.3200000000000001,1.1600000000000008,18,2,1,2,52,2,1,10,3,0,16,7,LH,0.12423076923076926,0.22500000000000003,0.3200000000000001,0.11600000000000002
3,13,26,1,6,0.8800000000000006,3,14,107,55,81,101,5.159999999999954,0.9900000000000007,1.2100000000000009,0.6800000000000004,11,3,5,4,48,5,7,6,4,0,11,7,LH,0.10750000000000003,0.19800000000000006,0.1728571428571429,0.11333333333333337
3,14,27,1,8,0.49000000000000027,2,6,111,44,1,113,5.229999999999944,0.3200000000000001,0.3900000000000002,0.24000000000000007,8,2,4,1,48,2,5,1,2,0,15,7,LH,0.10895833333333335,0.16000000000000003,0.078,0.24000000000000007
3,14,28,1,1,1.0800000000000007,5,11,25,99,72,71,6.459999999999931,1.6500000000000012,0.3900000000000002,0.34000000000000014,11,5,3,2,43,10,5,3,5,0,15,7,LH,0.15023255813953493,0.16500000000000004,0.078,0.11333333333333333
3,15,29,1,7,1.0300000000000007,4,11,93,6,38,11,5.249999999999956,0.8500000000000005,0.5500000000000003,0.3200000000000001,8,2,2,4,40,5,3,4,3,0,20,7,LH,0.13125000000000003,0.17,0.18333333333333338,0.07999999999999999
3,15,30,1,10,1.2400000000000009,4,13,71,63,30,24,6.439999999999935,0.38000000000000017,2.3099999999999947,0.21000000000000005,9,1,6,2,59,1,18,2,6,0,19,7,LH,0.10915254237288137,0.38000000000000017,0.12833333333333335,0.10499999999999998
3,16,31,1,6,1.9000000000000015,5,22,93,58,52,48,8.7799999999999,0.49000000000000027,0.34000000000000014,0.08,12,3,2,1,66,4,3,1,4,0,16,7,LH,0.13303030303030305,0.12250000000000003,0.11333333333333333,0.08
3,16,32,1,2,0.9800000000000006,2,11,80,75,35,13,3.5199999999999907,6.529999999999905,1.0700000000000007,0.2900000000000001,6,9,5,2,27,41,15,4,3,0,17,7,LH,0.13037037037037041,0.15926829268292686,0.07133333333333333,0.0725
3,17,33,1,5,1.9700000000000015,12,21,27,25,97,6,6.699999999999945,1.5200000000000011,1.460000000000001,0.8000000000000005,19,5,4,3,46,11,7,4,6,0,18,7,LH,0.1456521739130435,0.1381818181818182,0.20857142857142863,0.20000000000000004
3,17,34,1,6,0.2900000000000001,2,4,53,56,117,113,5.799999999999927,0.38000000000000017,0.13999999999999999,1.5300000000000011,8,2,1,5,47,2,1,14,4,0,12,7,LH,0.12340425531914895,0.19000000000000006,0.13999999999999999,0.10928571428571429
3,18,35,1,10,0.2700000000000001,2,3,24,15,105,79,6.8099999999999055,1.7400000000000013,0.10999999999999999,0.13999999999999999,11,3,2,1,55,11,2,1,6,0,17,7,LH,0.12381818181818184,0.15818181818181823,0.05499999999999999,0.13999999999999999
3,18,36,1,5,0.5900000000000003,2,4,113,4,2,5,5.369999999999942,1.350000000000001,0.5300000000000002,0.8800000000000006,8,3,3,4,37,3,6,6,6,0.5,20,7,LH,0.14513513513513518,0.45000000000000023,0.08833333333333333,0.14666666666666667
3,19,37,1,3,0.48000000000000026,2,5,38,19,16,48,6.279999999999921,0.2900000000000001,1.5500000000000012,0.25000000000000006,13,1,7,2,44,1,9,2,5,0,22,7,LH,0.14272727272727276,0.2900000000000001,0.17222222222222228,0.12500000000000003
3,19,38,1,2,1.1500000000000008,4,14,10,3,109,12,7.229999999999915,6.7799999999999,0.01,0.08,10,9,1,2,64,45,1,2,3,0.5,20,7,LH,0.11296875000000002,0.1506666666666667,0.01,0.04
3,20,39,1,10,0.5700000000000003,3,5,13,67,65,64,5.94999999999993,0.20000000000000004,0.9800000000000006,0.35000000000000014,13,1,2,2,40,2,6,2,6,0.5,18,7,LH,0.14875000000000002,0.1,0.16333333333333339,0.17500000000000004
3,20,40,1,3,0.3300000000000001,3,3,4,41,56,40,11.079999999999815,0.060000000000000005,0.08,0.09,14,1,2,1,69,1,2,1,5,0,20,7,LH,0.16057971014492758,0.060000000000000005,0.04,0.09
4,1,1,0,4,0.6900000000000004,2,5,108,13,87,90,8.969999999999867,2.0899999999999994,0.11999999999999998,0.09999999999999999,14,8,1,1,40,12,1,1,2,0,14,7,LH,0.2242500000000001,0.17416666666666672,0.11999999999999998,0.09999999999999999
4,1,2,0,6,0.3900000000000002,2,6,51,52,53,42,5.369999999999939,0.6000000000000003,1.5400000000000011,1.2000000000000008,11,2,6,3,28,4,8,4,4,0.5,29,7,LH,0.19178571428571434,0.15000000000000002,0.19250000000000006,0.3000000000000001
4,2,3,0,3,0.3300000000000001,2,3,41,42,11,38,8.07999999999988,0.18000000000000002,1.310000000000001,1.9400000000000015,15,1,2,6,38,1,4,11,5,0.5,36,7,LH,0.2126315789473685,0.18000000000000002,0.3275000000000001,0.17636363636363642
4,2,4,0,6,0.3200000000000001,2,6,49,24,100,53,6.0499999999999226,1.1400000000000008,0.5800000000000003,0.4300000000000002,9,2,3,3,30,2,3,4,4,0,16,7,LH,0.20166666666666674,0.5700000000000003,0.19333333333333336,0.10749999999999998
4,3,5,0,9,0.4200000000000002,2,4,62,46,63,38,8.369999999999875,2.1199999999999988,0.05,0.2700000000000001,16,8,1,2,39,16,1,2,4,0,18,7,LH,0.21461538461538468,0.1325,0.05,0.13500000000000004
4,3,6,0,8,0.5000000000000002,2,5,13,116,52,110,7.419999999999897,0.17,0.8300000000000005,0.47000000000000025,13,1,3,4,33,1,4,5,2,0,14,7,LH,0.22484848484848494,0.17,0.20750000000000007,0.09400000000000001
4,4,7,0,2,0.48000000000000026,4,5,81,13,120,69,4.739999999999954,0.8100000000000005,1.9300000000000015,0.7800000000000005,10,2,4,2,22,3,14,3,3,0,15,7,LH,0.21545454545454554,0.27000000000000013,0.13785714285714287,0.2600000000000001
4,4,8,0,7,0.17,2,3,55,89,91,97,4.719999999999947,1.7700000000000014,1.420000000000001,1.0600000000000007,8,5,4,5,27,10,9,6,3,0,12,7,LH,0.17481481481481487,0.17700000000000005,0.15777777777777782,0.1766666666666667
4,5,9,0,10,1.420000000000001,16,21,13,110,116,117,8.139999999999903,0.2800000000000001,0.36000000000000015,0.26000000000000006,20,2,1,2,59,2,1,2,6,0.5,18,7,LH,0.1379661016949153,0.14000000000000004,0.36000000000000015,0.13
4,5,10,0,2,0.2800000000000001,2,3,61,75,63,81,8.219999999999875,0.5200000000000002,0.25000000000000006,0.09,14,4,2,1,44,4,2,1,3,0,14,7,LH,0.18681818181818188,0.13,0.125,0.09
4,6,11,0,1,0.6400000000000003,7,9,31,28,27,25,5.789999999999935,1.0900000000000007,0.48000000000000026,0.8800000000000006,15,4,2,3,29,6,2,5,5,1,60,7,LH,0.19965517241379319,0.1816666666666667,0.24000000000000005,0.17600000000000007
4,6,12,0,3,1.0000000000000007,8,10,45,54,44,23,7.609999999999904,0.3100000000000001,0.23000000000000007,1.9200000000000015,20,1,1,5,36,1,1,13,5,0,20,7,LH,0.21138888888888896,0.3100000000000001,0.23000000000000007,0.1476923076923077
4,7,13,1,3,0.7200000000000004,4,5,50,88,91,104,10.34999999999984,0.47000000000000025,1.6200000000000012,1.8500000000000014,17,3,3,5,46,4,6,6,5,0,12,7,LH,0.2250000000000001,0.11750000000000001,0.27000000000000013,0.30833333333333346
4,7,14,1,8,0.24000000000000007,2,3,3,110,76,119,6.889999999999903,0.4400000000000002,0.36000000000000015,0.5400000000000003,11,2,1,2,29,3,1,5,2,0,13,7,LH,0.23758620689655183,0.14666666666666667,0.36000000000000015,0.10799999999999998
4,8,15,1,8,0.5900000000000003,8,8,51,21,109,79,6.319999999999922,6.8899999999998975,0.04,0.3200000000000001,17,11,1,4,36,41,1,6,2,0,15,7,LH,0.1755555555555556,0.16804878048780492,0.04,0.05333333333333334
4,8,16,1,3,0.3100000000000001,2,6,103,46,104,61,6.64999999999991,0.6900000000000004,0.26000000000000006,1.5400000000000011,14,4,1,5,38,4,1,9,5,0,13,7,LH,0.17500000000000004,0.17250000000000001,0.26000000000000006,0.17111111111111113
4,9,17,1,7,0.25000000000000006,2,4,89,62,85,19,3.71999999999997,2.1199999999999988,1.7200000000000013,1.0400000000000007,8,5,6,3,19,7,7,5,3,0,16,7,LH,0.1957894736842106,0.302857142857143,0.2457142857142858,0.20800000000000007
4,9,18,1,5,0.2700000000000001,2,3,2,1,111,109,4.18999999999996,8.069999999999872,0.02,0.4200000000000002,6,13,1,2,23,41,1,2,6,0,16,7,LH,0.1821739130434783,0.196829268292683,0.02,0.21000000000000008
4,10,19,1,8,0.6600000000000004,2,8,12,118,87,4,6.849999999999913,0.6000000000000003,0.7100000000000004,0.3300000000000001,12,3,2,2,42,5,3,2,2,0,17,7,LH,0.16309523809523813,0.12000000000000001,0.23666666666666675,0.16500000000000004
4,10,20,1,4,1.1300000000000008,10,13,15,14,20,84,13.169999999999789,3.00999999999998,8.479999999999864,0.02,20,9,16,1,65,15,42,1,2,0.5,21,7,LH,0.2026153846153847,0.20066666666666672,0.20190476190476198,0.02
4,11,21,1,5,0.5400000000000003,2,7,58,7,76,104,7.3099999999999,0.7500000000000004,2.759999999999985,4.089999999999957,14,2,5,10,46,8,17,21,6,0,15,7,LH,0.1589130434782609,0.09375,0.16235294117647062,0.19476190476190483
4,11,22,1,8,0.7200000000000004,13,14,69,38,120,86,11.77999999999981,3.039999999999979,0.15,0.15,20,7,2,1,60,15,2,1,2,0,14,7,LH,0.1963333333333334,0.20266666666666674,0.075,0.15
4,12,23,1,1,0.9600000000000006,12,12,74,115,75,13,9.799999999999857,0.3900000000000002,2.0500000000000003,0.9900000000000007,20,2,5,3,55,4,9,5,5,0,14,7,LH,0.17818181818181822,0.09749999999999999,0.22777777777777786,0.19800000000000006
4,12,24,1,3,0.19000000000000003,2,3,48,70,65,96,7.679999999999885,0.49000000000000027,1.360000000000001,0.09999999999999999,15,1,3,1,30,1,5,1,5,0,16,7,LH,0.2560000000000001,0.49000000000000027,0.27200000000000013,0.09999999999999999
4,13,25,1,10,0.45000000000000023,2,3,22,13,83,23,7.70999999999989,3.1599999999999766,2.0400000000000005,0.34000000000000014,14,8,6,2,26,19,12,2,6,0.5,21,7,LH,0.29653846153846164,0.16631578947368425,0.17000000000000004,0.17000000000000004
4,13,26,1,5,0.6100000000000003,2,4,10,4,5,59,7.519999999999897,3.849999999999962,2.0899999999999994,0.11999999999999998,11,8,8,1,38,26,13,1,6,0.5,22,7,LH,0.19789473684210535,0.1480769230769231,0.1607692307692308,0.11999999999999998
4,14,27,1,9,0.3000000000000001,2,6,67,72,62,95,4.849999999999947,1.7700000000000014,0.6900000000000004,1.280000000000001,10,3,4,4,28,12,5,7,4,0.5,15,7,LH,0.17321428571428577,0.14750000000000002,0.138,0.1828571428571429
4,14,28,1,2,0.8300000000000005,11,13,103,76,57,55,6.069999999999933,1.1500000000000008,1.9200000000000015,0.5200000000000002,20,3,4,4,37,3,9,6,3,0,13,7,LH,0.1640540540540541,0.3833333333333335,0.2133333333333334,0.08666666666666667
4,15,29,1,3,0.9900000000000007,8,9,107,72,37,66,6.949999999999918,1.1800000000000008,0.7600000000000005,1.0700000000000007,19,5,4,5,41,6,7,10,5,0,15,7,LH,0.16951219512195126,0.19666666666666674,0.10857142857142858,0.10700000000000003
4,15,30,1,1,0.11999999999999998,2,2,2,11,60,52,20.030000000000314,0.01,0.01,0.01,20,1,1,1,82,1,1,1,5,0,20,7,LH,0.24426829268292694,0.01,0.01,0.01
4,16,31,1,2,0.22000000000000006,2,3,77,82,50,76,5.4599999999999325,0.21000000000000005,2.819999999999984,0.04,17,1,6,1,30,1,17,1,3,0.5,13,7,LH,0.18200000000000005,0.21000000000000005,0.1658823529411765,0.04
4,16,32,1,10,0.5000000000000002,2,7,13,24,16,102,6.379999999999919,1.0000000000000007,0.18000000000000002,2.869999999999983,13,4,2,6,31,6,2,11,6,0.5,20,7,LH,0.20580645161290329,0.1666666666666667,0.09,0.26090909090909103
4,17,33,1,10,0.8800000000000006,2,8,89,116,114,20,7.179999999999911,0.38000000000000017,0.7600000000000005,1.9700000000000015,14,2,3,7,29,2,4,11,6,0,13,7,LH,0.2475862068965518,0.19000000000000009,0.19000000000000006,0.17909090909090913
4,17,34,1,4,0.4100000000000002,3,4,4,8,100,84,7.109999999999902,0.4200000000000002,1.330000000000001,0.04,13,3,6,1,29,4,9,1,2,0,17,7,LH,0.24517241379310353,0.10500000000000001,0.1477777777777778,0.04
4,18,35,1,6,0.3100000000000001,2,4,17,23,18,57,5.929999999999925,1.7800000000000014,0.6700000000000004,1.1100000000000008,10,5,2,3,32,11,2,4,4,0.5,22,7,LH,0.18531250000000005,0.16181818181818183,0.33500000000000013,0.2775000000000001
4,18,36,1,9,0.2800000000000001,2,3,67,107,62,63,5.839999999999926,1.7100000000000013,0.36000000000000015,0.20000000000000004,11,5,2,2,36,8,3,2,4,0.5,14,7,LH,0.16222222222222227,0.21375000000000008,0.11999999999999998,0.09999999999999999
4,19,37,1,10,0.6300000000000003,2,5,16,116,112,54,19.56000000000016,0.060000000000000005,0.38000000000000017,0.01,20,2,2,1,91,2,2,1,6,0,14,7,LH,0.21494505494505503,0.030000000000000002,0.19000000000000009,0.01
4,19,38,1,2,0.22000000000000006,2,3,73,82,63,2,2.240000000000001,1.8900000000000015,2.629999999999988,0.3300000000000001,6,4,5,2,10,15,14,3,3,0,16,7,LH,0.2240000000000001,0.126,0.18785714285714292,0.11000000000000003
4,20,39,1,9,0.6900000000000004,2,7,10,68,1,6,6.819999999999914,0.7900000000000005,0.3100000000000001,0.5800000000000003,10,2,3,2,38,3,3,4,4,0.5,22,7,LH,0.17947368421052637,0.2633333333333334,0.10333333333333335,0.14500000000000002
4,20,40,1,3,0.3300000000000001,2,5,40,42,98,58,4.899999999999947,1.1300000000000008,0.47000000000000025,1.1100000000000008,14,4,1,4,23,5,2,4,5,0,16,7,LH,0.21304347826086964,0.22600000000000006,0.23500000000000007,0.2775000000000001
5,1,1,0,7,0.3100000000000001,2,3,90,13,92,112,2.9999999999999867,1.1300000000000008,0.2900000000000001,0.3200000000000001,8,4,2,2,18,9,2,3,3,0,14,7,LH,0.1666666666666667,0.12555555555555556,0.14500000000000005,0.10666666666666667
5,1,2,0,9,0.45000000000000023,2,9,103,38,98,39,2.98999999999999,0.45000000000000023,0.5800000000000003,0.09999999999999999,6,2,2,1,30,4,7,1,4,0,14,7,LH,0.0996666666666667,0.11249999999999999,0.08285714285714285,0.09999999999999999
5,2,3,0,1,0.4200000000000002,2,4,30,29,9,105,3.4499999999999797,0.35000000000000014,0.9400000000000006,0.8200000000000005,10,3,3,5,31,4,11,5,5,0,18,7,LH,0.11129032258064518,0.0875,0.08545454545454546,0.16400000000000003
5,2,4,0,7,0.5800000000000003,2,7,86,92,38,45,2.5900000000000016,1.1400000000000008,0.3300000000000001,0.4400000000000002,6,3,3,3,22,7,3,4,3,0,16,7,LH,0.11772727272727274,0.1628571428571429,0.11,0.11000000000000001
5,3,5,0,8,0.9800000000000006,13,17,113,109,117,115,1.8500000000000012,0.7500000000000004,0.5300000000000002,0.4200000000000002,15,2,2,2,22,7,4,3,2,1,24,7,LH,0.0840909090909091,0.10714285714285715,0.1325,0.14
5,3,6,0,2,0.6700000000000004,2,9,31,100,1,34,3.919999999999975,0.3000000000000001,0.09999999999999999,0.25000000000000006,10,3,1,2,29,3,1,2,3,0,18,7,LH,0.13517241379310346,0.1,0.09999999999999999,0.12500000000000003
5,4,7,0,3,0.3200000000000001,2,6,40,111,51,60,4.369999999999958,0.9300000000000006,0.18000000000000002,0.16,12,5,1,2,38,7,1,2,5,0,15,7,LH,0.11500000000000002,0.13285714285714287,0.18000000000000002,0.08
5,4,8,0,9,0.3000000000000001,2,3,64,31,30,4,3.2899999999999805,0.3900000000000002,0.35000000000000014,0.4400000000000002,13,2,3,2,17,3,4,3,4,0,20,7,LH,0.19352941176470592,0.13,0.0875,0.1466666666666667
5,5,9,0,10,0.2800000000000001,2,3,15,14,109,92,2.3300000000000005,1.300000000000001,0.18000000000000002,0.4300000000000002,6,5,2,2,11,9,2,2,6,0,17,7,LH,0.21181818181818188,0.1444444444444445,0.09,0.21500000000000005
5,5,10,0,2,1.0900000000000007,16,20,79,63,68,11,3.889999999999985,0.5300000000000002,0.10999999999999999,0.09,20,2,1,1,42,4,1,1,3,0,17,7,LH,0.09261904761904764,0.1325,0.10999999999999999,0.09
5,6,11,0,6,0.3200000000000001,2,6,2,12,56,35,2.5099999999999976,1.1300000000000008,0.10999999999999999,0.4000000000000002,8,5,2,1,18,12,2,1,4,0,21,7,LH,0.13944444444444448,0.09416666666666668,0.05500000000000001,0.4000000000000002
5,6,12,0,7,0.3900000000000002,2,7,85,114,63,117,2.8599999999999914,0.7300000000000004,0.34000000000000014,2.0500000000000003,7,3,2,6,18,4,2,11,3,0,11,7,LH,0.15888888888888894,0.18250000000000005,0.17000000000000004,0.18636363636363643
5,7,13,1,6,0.3200000000000001,2,3,34,53,88,106,3.049999999999986,0.5200000000000002,0.09,0.5000000000000002,9,2,1,2,17,4,1,2,4,0,14,7,LH,0.1794117647058824,0.13,0.09,0.25000000000000006
5,7,14,1,3,0.6200000000000003,5,9,37,42,61,72,3.6299999999999804,0.13999999999999999,0.13999999999999999,0.12999999999999998,12,1,1,1,32,1,1,1,5,0,18,7,LH,0.11343750000000001,0.13999999999999999,0.13999999999999999,0.12999999999999998
5,8,15,1,4,0.9100000000000006,3,11,2,34,107,32,4.529999999999967,0.22000000000000006,0.12999999999999998,0.21000000000000005,17,1,2,1,39,1,2,1,2,0,18,7,LH,0.11615384615384618,0.22000000000000006,0.065,0.21000000000000005
5,8,16,1,7,0.5000000000000002,2,6,114,70,87,120,3.429999999999982,0.22000000000000006,0.07,0.17,6,1,1,2,26,1,1,2,3,0,11,7,LH,0.13192307692307695,0.22000000000000006,0.07,0.08499999999999999
5,9,17,1,7,0.5500000000000003,7,10,95,39,62,64,2.4700000000000015,1.300000000000001,0.17,0.24000000000000007,11,5,1,2,30,6,1,2,3,0,16,7,LH,0.08233333333333334,0.21666666666666679,0.17,0.12000000000000001
5,9,18,1,2,0.4100000000000002,2,3,4,8,83,53,4.139999999999965,0.060000000000000005,0.10999999999999999,0.24000000000000007,10,1,2,2,28,1,2,4,3,0,19,7,LH,0.14785714285714288,0.060000000000000005,0.05500000000000001,0.05999999999999999
5,10,19,1,10,0.4300000000000002,2,5,51,108,103,101,7.149999999999902,0.21000000000000005,0.060000000000000005,0.02,15,2,1,1,45,2,1,1,6,0.5,10,7,LH,0.15888888888888894,0.10499999999999998,0.060000000000000005,0.02
5,10,20,1,5,0.2700000000000001,4,4,3,12,4,110,1.9700000000000013,0.5400000000000003,0.5700000000000003,0.37000000000000016,6,2,3,1,15,3,4,2,6,0.5,20,7,LH,0.13133333333333336,0.18000000000000005,0.14250000000000002,0.18500000000000005
5,11,21,1,1,0.6100000000000003,2,9,29,109,25,27,4.05999999999997,0.07,0.8400000000000005,0.11999999999999998,12,1,6,2,40,1,7,2,5,0.5,17,7,LH,0.1015,0.07,0.12000000000000001,0.06
5,11,22,1,2,0.3900000000000002,2,3,82,53,84,43,1.8800000000000012,2.959999999999981,0.02,0.18000000000000002,5,9,1,2,13,18,1,3,3,0,15,7,LH,0.14461538461538465,0.1644444444444445,0.02,0.06
5,12,23,1,6,0.3200000000000001,2,3,54,79,82,73,2.9899999999999873,0.38000000000000017,0.13999999999999999,0.38000000000000017,8,2,1,3,29,5,1,6,4,0.5,13,7,LH,0.10310344827586207,0.07600000000000001,0.13999999999999999,0.06333333333333332
5,12,24,1,3,0.3000000000000001,2,3,46,44,71,99,3.349999999999979,0.07,1.0500000000000007,0.12999999999999998,15,1,8,3,30,1,11,3,5,0,16,7,LH,0.11166666666666669,0.07,0.09545454545454547,0.043333333333333335
5,13,25,1,3,0.23000000000000007,2,5,45,8,83,2,2.949999999999986,0.4000000000000002,0.6700000000000004,0.20000000000000004,7,2,3,2,17,3,3,2,5,0,20,7,LH,0.17352941176470593,0.1333333333333334,0.22333333333333338,0.1
5,13,26,1,7,0.16,2,3,85,34,91,95,1.710000000000001,3.4899999999999696,0.6700000000000004,0.01,5,9,3,1,15,24,4,1,3,0.5,14,7,LH,0.11400000000000002,0.1454166666666667,0.16750000000000004,0.01
5,14,27,1,2,0.5800000000000003,2,6,69,83,27,112,3.519999999999982,0.16,0.23000000000000007,0.17,7,1,2,2,18,1,2,2,3,0,14,7,LH,0.19555555555555562,0.16,0.11500000000000002,0.085
5,14,28,1,7,0.3000000000000001,2,8,88,89,94,103,1.8900000000000012,1.1700000000000008,1.280000000000001,2.209999999999997,5,4,4,10,13,9,8,18,3,0.5,11,7,LH,0.14538461538461545,0.13,0.16000000000000003,0.1227777777777778
5,15,29,1,1,0.6900000000000004,2,10,92,110,120,93,3.059999999999994,0.7900000000000005,0.10999999999999999,0.12999999999999998,8,6,2,2,23,7,3,4,5,0,10,7,LH,0.1330434782608696,0.11285714285714286,0.03666666666666667,0.0325
5,15,30,1,2,0.4400000000000002,2,7,78,99,101,22,3.91999999999997,0.6400000000000003,0.05,0.15,16,5,1,2,31,5,1,2,3,0,13,7,LH,0.12645161290322585,0.128,0.05,0.07500000000000001
5,16,31,1,5,0.3000000000000001,2,6,12,5,10,75,2.84999999999999,0.17,3.3999999999999715,0.20000000000000004,10,1,9,2,24,1,26,4,6,0.5,21,7,LH,0.11875000000000002,0.17,0.1307692307692308,0.05
5,16,32,1,6,1.6200000000000012,14,21,49,13,23,17,2.0500000000000016,1.6000000000000012,1.2200000000000009,1.500000000000001,17,6,3,4,25,13,9,4,4,0.5,22,7,LH,0.08200000000000002,0.12307692307692311,0.13555555555555557,0.37500000000000017
5,17,33,1,10,0.5300000000000002,5,6,78,20,77,16,2.9499999999999926,0.45000000000000023,0.4400000000000002,1.9600000000000015,8,2,2,7,27,3,2,18,6,0,18,7,LH,0.10925925925925926,0.15,0.22000000000000003,0.10888888888888891
5,17,34,1,9,0.34000000000000014,2,6,40,111,47,109,3.0099999999999874,0.18000000000000002,0.6200000000000003,0.3900000000000002,7,2,2,2,22,2,4,2,4,0,14,7,LH,0.13681818181818184,0.09,0.15500000000000003,0.19500000000000006
5,18,35,1,1,0.3100000000000001,2,4,34,120,116,82,2.7299999999999924,0.3300000000000001,0.2900000000000001,0.3000000000000001,9,2,3,4,14,3,4,4,5,0,12,7,LH,0.19500000000000006,0.11000000000000001,0.0725,0.075
5,18,36,1,4,0.8200000000000005,18,22,92,99,101,21,5.689999999999941,0.01,0.01,0.04,20,1,1,1,48,1,1,1,2,0,13,7,LH,0.1185416666666667,0.01,0.01,0.04
5,19,37,1,3,0.25000000000000006,2,3,80,40,41,2,3.7799999999999687,3.8099999999999627,0.8600000000000005,0.01,14,9,6,1,25,17,6,1,5,0,19,7,LH,0.15120000000000003,0.22411764705882362,0.14333333333333337,0.01
5,19,38,1,10,0.15,2,3,14,95,28,110,9.73999999999984,0.01,0.01,0.20000000000000004,20,1,1,2,64,1,1,2,6,0,16,7,LH,0.15218750000000003,0.01,0.01,0.10000000000000002
5,20,39,1,9,1.1100000000000008,5,13,68,45,61,91,2.2000000000000015,0.5400000000000003,0.7800000000000005,0.5600000000000003,7,2,2,3,15,4,7,5,4,0,16,7,LH,0.14666666666666672,0.135,0.11142857142857143,0.11200000000000002
5,20,40,1,6,0.23000000000000007,3,4,34,51,118,36,2.2600000000000007,0.22000000000000006,0.6100000000000003,0.12999999999999998,7,1,3,1,11,1,8,2,4,0,16,7,LH,0.20545454545454553,0.22000000000000006,0.07625000000000001,0.065
5,21,41,1,8,0.4200000000000002,2,8,67,44,18,39,3.619999999999976,0.22000000000000006,0.46000000000000024,0.04,7,3,3,1,28,5,3,1,2,0,20,7,LH,0.1292857142857143,0.044000000000000004,0.15333333333333338,0.04
5,21,42,1,4,0.12999999999999998,2,3,103,97,36,54,1.3100000000000007,1.0100000000000007,0.37000000000000016,0.36000000000000015,5,4,2,2,11,9,2,2,2,0,13,7,LH,0.11909090909090911,0.11222222222222224,0.18500000000000005,0.18000000000000002
6,1,1,0,2,0.21000000000000005,2,4,78,15,19,98,3.159999999999981,1.5700000000000012,0.35000000000000014,0.07,7,5,2,1,20,9,2,1,3,0,17,7,LH,0.15800000000000003,0.17444444444444449,0.17500000000000004,0.07
6,1,2,0,8,0.16,2,2,5,115,43,47,14.559999999999738,0.01,0.01,0.01,19,1,1,1,61,1,1,1,2,0,18,7,LH,0.23868852459016404,0.01,0.01,0.01
6,2,3,0,4,0.6800000000000004,2,8,99,100,105,37,3.539999999999983,0.4200000000000002,1.430000000000001,0.8000000000000005,8,2,6,3,23,2,7,4,2,0.5,17,7,LH,0.1539130434782609,0.21000000000000002,0.20428571428571435,0.20000000000000007
6,2,4,0,1,0.20000000000000004,2,3,31,8,52,83,4.479999999999953,0.2800000000000001,1.0900000000000007,0.060000000000000005,10,2,3,1,18,3,6,1,5,0,18,7,LH,0.248888888888889,0.09333333333333334,0.18166666666666673,0.060000000000000005
6,3,5,0,2,0.24000000000000007,2,3,3,8,47,73,3.2799999999999794,0.3200000000000001,0.7300000000000004,0.09,8,1,4,1,14,1,6,1,3,0,20,7,LH,0.23428571428571435,0.3200000000000001,0.12166666666666669,0.09
6,3,6,0,8,0.2900000000000001,2,5,119,30,29,32,3.7799999999999696,0.38000000000000017,0.5700000000000003,0.4200000000000002,9,1,2,2,21,1,4,2,2,0.5,32,7,LH,0.18000000000000005,0.38000000000000017,0.14250000000000002,0.21000000000000005
6,4,7,0,9,0.3300000000000001,2,5,64,22,115,74,2.6499999999999946,2.819999999999984,0.5900000000000003,0.060000000000000005,8,8,2,2,18,9,2,2,4,0,15,7,LH,0.14722222222222225,0.31333333333333346,0.2950000000000001,0.030000000000000002
6,4,8,0,4,0.3200000000000001,2,5,1,106,9,26,2.85999999999999,0.8800000000000006,0.5300000000000002,0.2900000000000001,5,3,3,1,18,5,4,1,2,0,19,7,LH,0.15888888888888894,0.17600000000000005,0.1325,0.2900000000000001
6,5,9,0,7,0.5600000000000003,10,10,14,47,120,19,5.799999999999933,0.2800000000000001,0.08,0.060000000000000005,19,2,1,1,33,2,1,1,3,0,19,7,LH,0.1757575757575758,0.14000000000000004,0.08,0.060000000000000005
6,5,10,0,9,0.2900000000000001,2,3,105,27,65,70,3.999999999999965,0.9000000000000006,0.060000000000000005,0.08,11,4,1,1,21,6,1,1,4,0,15,7,LH,0.19047619047619052,0.15000000000000002,0.060000000000000005,0.08
6,6,11,0,5,0.5300000000000002,6,7,114,2,42,90,3.6999999999999766,2.6099999999999883,0.01,0.11999999999999998,14,5,1,1,23,9,1,1,6,0,16,7,LH,0.16086956521739135,0.29000000000000015,0.01,0.11999999999999998
6,6,12,0,2,0.4300000000000002,2,5,63,102,16,77,3.6099999999999763,0.2700000000000001,0.2700000000000001,0.19000000000000003,7,1,1,1,19,1,1,1,3,0,15,7,LH,0.19000000000000006,0.2700000000000001,0.2700000000000001,0.19000000000000003
6,7,13,1,1,0.3300000000000001,2,3,25,32,98,80,3.3999999999999786,1.7100000000000013,0.11999999999999998,0.6400000000000003,8,7,2,2,19,11,2,2,5,0,15,7,LH,0.1789473684210527,0.15545454545454548,0.06,0.3200000000000002
6,7,14,1,7,0.8300000000000005,2,10,17,46,41,19,4.689999999999962,0.09999999999999999,0.13999999999999999,0.2700000000000001,10,1,2,2,34,2,2,2,3,0,22,7,LH,0.13794117647058826,0.05,0.06999999999999999,0.13500000000000004
6,8,15,1,6,0.34000000000000014,2,4,57,54,98,12,3.119999999999985,0.6900000000000004,0.23000000000000007,1.0400000000000007,7,3,2,2,16,5,2,2,4,0,16,7,LH,0.19500000000000006,0.138,0.11500000000000002,0.5200000000000002
6,8,16,1,9,0.38000000000000017,5,6,14,116,68,16,5.9999999999999245,0.060000000000000005,0.02,0.05,13,1,1,1,35,1,1,1,4,0,18,7,LH,0.17142857142857146,0.060000000000000005,0.02,0.05
6,9,17,1,4,0.3100000000000001,2,3,13,17,92,57,8.359999999999873,0.01,0.01,0.02,18,1,1,1,35,1,1,1,2,0,19,7,LH,0.23885714285714293,0.01,0.01,0.02
6,9,18,1,1,0.19000000000000003,2,3,63,35,8,31,3.379999999999976,0.17,0.8100000000000005,0.19000000000000003,6,1,2,2,15,1,6,2,5,0,20,7,LH,0.2253333333333334,0.17,0.135,0.095
6,10,19,1,8,0.2700000000000001,2,6,34,115,116,27,3.0499999999999847,2.6999999999999864,0.03,0.08,6,8,1,1,14,17,1,1,2,0,14,7,LH,0.21785714285714297,0.15882352941176475,0.03,0.08
6,10,20,1,5,0.3000000000000001,2,4,1,66,71,106,5.20999999999994,0.10999999999999999,0.3000000000000001,0.08,9,1,2,1,24,2,4,1,6,0,16,7,LH,0.2170833333333334,0.055,0.075,0.08
6,11,21,1,6,0.5500000000000003,9,9,100,103,2,58,5.559999999999938,1.6200000000000012,1.7700000000000014,0.3100000000000001,20,8,5,2,33,9,8,2,4,0,14,7,LH,0.16848484848484854,0.18000000000000005,0.22125000000000006,0.15500000000000005
6,11,22,1,9,0.5900000000000003,2,5,62,115,109,13,3.419999999999984,0.3300000000000001,0.3100000000000001,0.36000000000000015,6,1,2,2,15,1,2,4,4,0,14,7,LH,0.2280000000000001,0.3300000000000001,0.15500000000000003,0.09
6,12,23,1,3,1.1500000000000008,14,18,46,70,16,48,3.9899999999999842,1.8300000000000014,0.22000000000000006,0.03,20,5,2,1,34,8,2,1,5,0,20,7,LH,0.11735294117647062,0.2287500000000001,0.10999999999999999,0.03
6,12,24,1,7,0.48000000000000026,6,7,87,92,103,32,2.3800000000000017,1.330000000000001,2.109999999999999,0.19000000000000003,9,4,5,2,12,7,13,2,3,0,13,7,LH,0.19833333333333342,0.19000000000000006,0.16230769230769235,0.095
6,13,25,1,5,0.25000000000000006,2,4,11,105,92,103,1.730000000000001,2.020000000000001,0.23000000000000007,0.26000000000000006,4,3,1,2,7,10,1,2,6,0,13,7,LH,0.24714285714285725,0.20200000000000004,0.23000000000000007,0.13
6,13,26,1,2,0.2900000000000001,2,4,118,44,54,110,3.9299999999999664,0.07,0.3300000000000001,0.05,9,1,1,1,26,1,1,1,3,0,13,7,LH,0.1511538461538462,0.07,0.3300000000000001,0.05
6,14,27,1,2,0.23000000000000007,2,4,98,76,81,97,3.1499999999999817,0.22000000000000006,0.3000000000000001,0.4400000000000002,7,1,2,2,23,1,3,2,3,0,10,7,LH,0.13695652173913048,0.22000000000000006,0.09999999999999999,0.22000000000000003
6,14,28,1,1,0.21000000000000005,2,4,35,117,109,59,2.2999999999999994,1.8200000000000014,0.36000000000000015,0.5300000000000002,6,5,2,2,18,7,3,3,5,0,13,7,LH,0.1277777777777778,0.2600000000000001,0.12,0.1766666666666667
6,15,29,1,3,0.38000000000000017,2,3,80,43,76,97,5.2499999999999405,0.37000000000000016,0.5300000000000002,0.03,10,3,2,1,24,3,2,1,5,0,13,7,LH,0.21875000000000008,0.12333333333333336,0.26500000000000007,0.03
6,15,30,1,5,0.26000000000000006,2,3,50,87,10,3,2.659999999999993,0.7500000000000004,0.22000000000000006,2.0000000000000013,5,1,1,7,7,1,1,10,6,0,19,7,LH,0.38000000000000017,0.7500000000000004,0.22000000000000006,0.20000000000000007
6,16,31,1,9,0.3900000000000002,2,6,69,12,103,47,3.4699999999999784,0.4100000000000002,0.4100000000000002,0.4100000000000002,7,2,1,1,20,3,1,1,4,0,17,7,LH,0.17350000000000007,0.1366666666666667,0.4100000000000002,0.4100000000000002
6,16,32,1,6,0.4400000000000002,2,3,17,120,13,57,3.0599999999999885,0.7500000000000004,0.45000000000000023,0.5800000000000003,5,2,3,2,14,4,4,6,4,0,18,7,LH,0.21857142857142864,0.18750000000000006,0.11250000000000002,0.09666666666666666
6,17,33,1,8,0.4100000000000002,2,4,120,61,65,114,3.1999999999999846,0.35000000000000014,0.3200000000000001,1.2000000000000008,8,1,2,3,15,1,4,4,2,0,12,7,LH,0.21333333333333343,0.35000000000000014,0.07999999999999999,0.3000000000000001
6,17,34,1,4,0.8800000000000006,2,7,76,22,75,50,5.269999999999952,0.3000000000000001,0.12999999999999998,0.9900000000000007,11,2,2,4,22,2,3,6,2,0,16,7,LH,0.23954545454545464,0.15,0.04333333333333333,0.16500000000000004
6,18,35,1,7,0.3100000000000001,5,5,2,64,100,92,12.889999999999777,0.01,0.01,0.01,20,1,1,1,50,1,1,1,3,0,15,7,LH,0.2578000000000001,0.01,0.01,0.01
6,18,36,1,10,0.18000000000000002,2,3,15,46,20,57,8.229999999999873,0.01,0.060000000000000005,0.01,14,1,1,1,37,1,1,1,6,0,21,7,LH,0.2224324324324325,0.01,0.060000000000000005,0.01
6,19,37,1,1,0.8700000000000006,12,13,33,28,16,17,3.619999999999986,0.37000000000000016,4.769999999999943,0.01,17,3,9,1,28,4,23,1,5,0,22,7,LH,0.1292857142857143,0.0925,0.20739130434782616,0.01
6,19,38,1,6,1.1200000000000008,15,17,45,51,11,41,6.359999999999934,0.10999999999999999,1.1900000000000008,0.01,20,2,3,1,43,2,5,1,4,0,20,7,LH,0.1479069767441861,0.05500000000000001,0.2380000000000001,0.01
6,20,39,1,5,0.17,2,2,1,118,117,56,12.309999999999786,0.01,0.02,0.01,17,1,2,1,54,1,2,1,6,0,14,7,LH,0.22796296296296306,0.01,0.01,0.01
6,20,40,1,4,0.16,2,2,14,98,43,90,12.049999999999791,0.38000000000000017,0.01,0.01,20,3,1,1,61,4,1,1,2,0,16,7,LH,0.19754098360655742,0.09500000000000001,0.01,0.01
6,21,41,1,10,1.0100000000000007,18,21,23,24,14,29,2.4000000000000017,0.7600000000000005,2.3699999999999934,1.2300000000000009,20,2,7,5,26,2,7,5,6,0.5,23,7,LH,0.09230769230769233,0.38000000000000017,0.33857142857142875,0.24600000000000008
6,21,42,1,7,0.6600000000000004,2,4,91,38,96,9,3.409999999999986,0.6600000000000004,0.9400000000000006,0.17,8,2,4,1,15,2,7,1,3,0,17,7,LH,0.22733333333333341,0.3300000000000001,0.13428571428571429,0.17
7,1,1,0,10,0.5100000000000002,2,6,18,15,16,17,13.35999999999977,2.899999999999982,1.280000000000001,1.6900000000000013,15,4,2,7,123,21,11,18,6,1,72,6,LH,0.1086178861788618,0.1380952380952381,0.11636363636363638,0.0938888888888889
7,1,2,0,8,1.1400000000000008,2,15,119,111,43,38,13.769999999999776,4.399999999999951,1.2200000000000009,1.0400000000000007,17,11,2,3,112,42,14,11,2,0,14,6,LH,0.1229464285714286,0.10476190476190476,0.08714285714285715,0.09454545454545456
7,2,3,0,3,0.7800000000000005,2,9,39,42,117,43,14.67999999999975,2.2699999999999956,5.4399999999999284,0.5800000000000003,17,5,10,3,127,23,46,7,5,0.5,32,6,LH,0.11559055118110238,0.09869565217391305,0.1182608695652174,0.08285714285714285
7,2,4,0,1,0.3900000000000002,2,5,26,98,29,34,15.359999999999726,2.959999999999981,0.12999999999999998,1.1900000000000008,18,6,1,4,146,18,1,10,5,0.5,32,6,LH,0.10520547945205481,0.16444444444444448,0.12999999999999998,0.11900000000000001
7,3,5,0,4,1.320000000000001,2,16,105,48,87,108,18.099999999999824,4.599999999999946,2.3699999999999934,0.5500000000000003,19,7,6,3,157,31,27,6,2,0,12,6,LH,0.11528662420382167,0.14838709677419357,0.08777777777777779,0.09166666666666667
7,3,6,0,2,0.47000000000000025,7,8,75,73,82,77,14.129999999999754,1.7600000000000013,0.6100000000000003,1.9600000000000015,20,3,3,4,129,16,7,19,3,1,36,6,LH,0.10953488372093025,0.11,0.08714285714285715,0.10315789473684212
7,4,7,0,4,0.8600000000000005,2,6,107,106,101,93,15.569999999999732,4.609999999999946,1.6100000000000012,1.310000000000001,17,8,4,3,123,39,13,16,2,0.5,15,6,LH,0.12658536585365857,0.11820512820512823,0.12384615384615388,0.081875
7,4,8,0,2,0.48000000000000026,2,7,77,78,44,43,12.089999999999797,1.7300000000000013,2.159999999999998,1.430000000000001,14,3,5,5,106,18,21,7,3,0,16,6,LH,0.11405660377358492,0.09611111111111112,0.10285714285714287,0.20428571428571435
7,5,9,0,6,0.4400000000000002,2,5,51,43,94,100,14.519999999999744,4.0299999999999585,5.759999999999922,1.8000000000000014,18,5,8,4,130,29,48,20,4,0,14,6,LH,0.11169230769230772,0.13896551724137934,0.12000000000000002,0.09000000000000001
7,5,10,0,1,0.3100000000000001,6,7,3,36,27,29,41.82000000000031,0.01,0.07,0.07,20,1,3,3,357,1,3,3,5,0.5,36,6,LH,0.11714285714285716,0.01,0.023333333333333334,0.023333333333333334
7,6,11,1,9,0.5300000000000002,2,5,66,107,71,105,13.43999999999977,5.6699999999999235,0.24000000000000007,0.8500000000000005,14,8,2,4,111,46,4,6,4,0,12,6,LH,0.12108108108108111,0.12326086956521741,0.06,0.1416666666666667
7,6,12,1,8,0.22000000000000006,2,4,2,8,96,90,35.94000000000146,0.01,0.01,0.01,20,1,1,1,294,1,1,1,2,0,18,6,LH,0.1222448979591837,0.01,0.01,0.01
7,7,13,1,10,0.5200000000000002,5,8,49,108,85,99,30.78000000000193,0.9800000000000006,3.099999999999978,0.09,20,4,5,2,227,9,30,2,6,0,11,6,LH,0.1355947136563877,0.10888888888888891,0.10333333333333335,0.045
7,7,14,1,9,1.0000000000000007,14,17,11,63,69,40,24.200000000000827,0.09999999999999999,1.0000000000000007,0.46000000000000024,20,2,4,2,219,2,10,4,4,0,19,6,LH,0.11050228310502286,0.049999999999999996,0.10000000000000002,0.11500000000000002
7,8,15,1,1,0.5800000000000003,2,9,29,34,32,30,13.079999999999778,0.5000000000000002,3.8699999999999615,2.669999999999987,18,3,11,8,124,5,36,21,5,1,60,6,LH,0.10548387096774195,0.1,0.10750000000000003,0.12714285714285714
7,8,16,1,7,1.1400000000000008,4,12,85,88,68,67,15.269999999999744,3.4099999999999713,0.5200000000000002,3.699999999999965,15,9,2,7,131,30,2,34,3,0,14,6,LH,0.11656488549618323,0.11366666666666668,0.2600000000000001,0.10882352941176472
7,9,17,1,10,0.4200000000000002,2,6,18,21,19,56,22.060000000000585,0.08,0.09999999999999999,0.22000000000000006,19,2,2,2,195,3,3,2,6,0.5,22,6,LH,0.11312820512820515,0.02666666666666667,0.03333333333333333,0.10999999999999999
7,9,18,1,4,0.5700000000000003,2,8,102,98,61,71,17.869999999999905,0.3200000000000001,1.2400000000000009,1.7200000000000013,19,1,5,7,164,2,12,13,2,0,12,6,LH,0.10896341463414635,0.16000000000000003,0.10333333333333336,0.13230769230769232
7,10,19,1,10,0.2800000000000001,2,4,15,17,18,99,14.05999999999975,1.0100000000000007,0.5200000000000002,2.0000000000000013,18,4,4,6,119,8,6,18,6,0.5,20,6,LH,0.1181512605042017,0.12625000000000003,0.08666666666666667,0.11111111111111113
7,10,20,1,8,0.8500000000000005,14,18,29,3,114,117,25.630000000001075,5.069999999999936,1.0200000000000007,0.34000000000000014,20,10,4,2,220,42,12,6,2,0,15,6,LH,0.11650000000000002,0.12071428571428573,0.085,0.056666666666666664
7,11,21,1,5,2.020000000000001,18,31,2,3,9,12,15.159999999999766,0.6000000000000003,1.2400000000000009,2.4999999999999907,20,3,5,5,145,6,11,18,6,1,72,6,LH,0.10455172413793105,0.09999999999999999,0.11272727272727275,0.1388888888888889
7,11,22,1,1,1.340000000000001,4,20,63,33,35,36,15.999999999999734,0.6900000000000004,0.4300000000000002,1.7200000000000013,17,2,2,2,148,2,3,13,5,0.5,19,6,LH,0.10810810810810813,0.34500000000000014,0.14333333333333337,0.13230769230769232
7,12,23,1,10,0.34000000000000014,2,5,22,13,19,24,10.87999999999982,4.43999999999995,4.709999999999944,0.6700000000000004,15,13,8,4,93,41,40,9,6,1,72,6,LH,0.11698924731182798,0.10829268292682928,0.11775000000000002,0.07444444444444445
7,12,24,1,5,0.35000000000000014,2,4,6,8,11,71,11.489999999999807,12.249999999999783,0.03,0.6400000000000003,13,12,1,4,95,94,1,7,6,0.5,22,6,LH,0.12094736842105265,0.13031914893617025,0.03,0.09142857142857144
7,13,25,1,7,0.36000000000000015,2,4,91,93,107,85,10.549999999999827,8.749999999999858,0.4400000000000002,0.49000000000000027,14,13,1,5,83,80,2,7,3,0.5,11,6,LH,0.1271084337349398,0.10937500000000001,0.22000000000000008,0.07
7,13,26,1,5,0.45000000000000023,7,8,72,47,39,3,14.31999999999975,1.310000000000001,0.9400000000000006,0.12999999999999998,20,4,3,1,117,17,7,1,6,0,20,6,LH,0.12239316239316242,0.07705882352941176,0.1342857142857143,0.12999999999999998
7,14,27,1,2,0.3900000000000002,2,7,64,62,115,72,15.929999999999714,2.439999999999992,0.5300000000000002,0.4200000000000002,17,4,2,2,155,20,3,3,3,0.5,14,6,LH,0.10277419354838711,0.12200000000000003,0.1766666666666667,0.14
7,14,28,1,7,2.709999999999986,20,39,85,86,48,88,12.089999999999831,1.1200000000000008,13.459999999999757,3.189999999999976,20,2,15,8,127,9,106,29,3,0.5,14,6,LH,0.0951968503937008,0.12444444444444445,0.12698113207547174,0.11000000000000001
7,15,29,1,9,0.3900000000000002,2,4,71,64,113,41,14.389999999999747,1.500000000000001,1.0500000000000007,8.979999999999853,19,5,2,15,108,12,3,77,4,0,15,6,LH,0.13324074074074077,0.12500000000000003,0.3500000000000002,0.11662337662337664
7,15,30,1,2,1.1300000000000008,2,15,60,76,79,51,14.359999999999763,2.8899999999999824,3.6299999999999666,0.13999999999999999,18,6,11,1,127,26,32,2,3,0,14,6,LH,0.1130708661417323,0.11115384615384617,0.11343750000000002,0.06999999999999999
7,16,31,1,3,0.45000000000000023,3,5,60,46,59,58,12.679999999999785,2.259999999999996,0.9500000000000006,1.8500000000000014,12,4,2,6,105,22,13,16,5,0.5,17,6,LH,0.12076190476190478,0.10272727272727274,0.07307692307692308,0.11562500000000002
7,16,32,1,10,0.34000000000000014,2,5,16,13,18,75,14.279999999999747,2.809999999999984,0.6100000000000003,1.1700000000000008,15,11,2,2,130,22,4,13,6,0.5,21,6,LH,0.10984615384615386,0.12772727272727274,0.15250000000000002,0.09
7,17,33,1,10,0.7100000000000004,2,10,20,13,21,22,14.699999999999747,0.34000000000000014,1.2100000000000009,2.3099999999999947,15,2,5,7,127,2,14,15,6,1,72,6,LH,0.11574803149606301,0.17000000000000004,0.08642857142857144,0.15400000000000005
7,17,34,1,1,1.0200000000000007,2,13,32,84,54,76,13.789999999999774,3.2499999999999747,1.370000000000001,0.4100000000000002,12,7,5,2,107,32,10,6,5,0,15,6,LH,0.12887850467289722,0.10156250000000001,0.137,0.06833333333333334
7,18,35,1,9,0.8600000000000005,2,13,70,68,72,29,15.879999999999725,1.1600000000000008,0.26000000000000006,1.440000000000001,19,5,1,2,144,12,1,8,4,0.5,17,6,LH,0.1102777777777778,0.09666666666666668,0.26000000000000006,0.18000000000000005
7,18,36,1,6,1.360000000000001,16,23,53,79,54,52,16.419999999999725,1.5800000000000012,1.6700000000000013,2.679999999999987,20,7,6,11,163,11,15,21,4,0.5,15,6,LH,0.10073619631901841,0.14363636363636367,0.11133333333333335,0.12761904761904763
8,1,1,0,2,0.20000000000000004,2,3,77,117,63,118,2.829999999999988,0.7800000000000005,0.45000000000000023,0.49000000000000027,8,4,3,4,27,6,5,6,3,0,11,7,LH,0.10481481481481483,0.13,0.09,0.08166666666666668
8,1,2,0,6,0.36000000000000015,2,5,52,48,50,97,2.579999999999997,0.4300000000000002,0.2900000000000001,0.5900000000000003,6,2,2,3,19,5,3,8,4,0,15,7,LH,0.13578947368421054,0.08600000000000001,0.09666666666666666,0.07375
8,2,3,0,3,0.45000000000000023,2,6,68,48,65,37,2.9199999999999915,0.34000000000000014,0.34000000000000014,0.08,7,2,2,1,26,5,6,1,5,0,18,7,LH,0.11230769230769233,0.068,0.05666666666666667,0.08
8,2,4,0,2,0.25000000000000006,2,3,74,59,53,83,2.7999999999999896,0.3100000000000001,0.5200000000000002,0.11999999999999998,8,2,2,2,32,2,7,2,3,0,14,7,LH,0.08750000000000001,0.15500000000000003,0.07428571428571429,0.060000000000000005
8,3,5,0,6,0.7600000000000005,14,17,53,55,106,95,2.700000000000002,0.6600000000000004,0.2700000000000001,0.9600000000000006,17,2,1,6,28,7,1,8,4,0,13,7,LH,0.09642857142857145,0.09428571428571429,0.2700000000000001,0.12
8,3,6,0,10,0.7600000000000005,7,10,21,120,68,67,2.6300000000000017,1.1800000000000008,0.36000000000000015,0.05,9,2,2,2,30,7,5,2,6,0,16,7,LH,0.08766666666666667,0.16857142857142862,0.07200000000000001,0.025
8,4,7,0,5,0.18000000000000002,2,3,4,87,86,7,5.52999999999993,0.01,0.01,0.01,13,1,1,1,40,1,1,1,6,0,18,7,LH,0.13825000000000004,0.01,0.01,0.01
8,4,8,0,2,0.24000000000000007,3,5,75,38,115,15,1.560000000000001,0.9700000000000006,0.6000000000000003,0.3200000000000001,5,3,2,2,15,6,7,5,3,0,16,7,LH,0.10400000000000004,0.16166666666666668,0.08571428571428572,0.064
8,5,9,0,4,0.20000000000000004,2,4,101,99,76,13,2.4399999999999964,0.20000000000000004,0.7500000000000004,0.15,7,2,4,1,19,3,6,1,2,0,13,7,LH,0.12842105263157896,0.06666666666666667,0.125,0.15
8,5,10,0,8,0.37000000000000016,2,7,117,114,41,115,2.1800000000000015,1.0700000000000007,0.35000000000000014,0.19000000000000003,7,4,3,2,26,8,6,2,2,0.5,17,7,LH,0.08384615384615386,0.13375,0.058333333333333334,0.095
8,6,11,0,4,0.4300000000000002,2,4,103,101,63,4,3.3299999999999823,0.5300000000000002,0.09999999999999999,0.3100000000000001,7,3,2,2,38,7,2,3,2,0,14,7,LH,0.08763157894736844,0.07571428571428572,0.049999999999999996,0.10333333333333333
8,6,12,0,6,0.5100000000000002,6,8,50,16,51,114,2.2600000000000016,0.4200000000000002,0.20000000000000004,0.36000000000000015,11,1,1,2,17,2,1,4,4,0,16,7,LH,0.13294117647058828,0.21000000000000005,0.20000000000000004,0.09000000000000001
8,7,13,1,1,0.22000000000000006,2,4,99,50,106,29,2.9299999999999864,0.8400000000000005,0.17,0.03,10,4,3,1,28,5,4,1,5,0,13,7,LH,0.10464285714285716,0.16800000000000007,0.042499999999999996,0.03
8,7,14,1,3,0.47000000000000025,3,7,41,18,21,110,2.290000000000002,1.450000000000001,0.07,0.5200000000000002,7,4,1,4,24,16,1,8,5,0,19,7,LH,0.09541666666666668,0.09062500000000001,0.07,0.06500000000000002
8,8,15,1,8,0.5300000000000002,2,7,109,16,44,66,2.9099999999999935,0.3300000000000001,0.5600000000000003,0.25000000000000006,6,3,3,2,29,5,4,6,2,0,17,7,LH,0.1003448275862069,0.066,0.14000000000000004,0.041666666666666664
8,8,16,1,5,0.9800000000000006,15,18,9,6,4,98,2.530000000000002,0.5100000000000002,0.22000000000000006,0.7000000000000004,18,2,2,3,32,8,2,7,6,0.5,20,7,LH,0.07906250000000001,0.06375,0.10999999999999999,0.10000000000000002
8,9,17,1,10,0.6800000000000004,2,10,38,44,24,13,3.2499999999999893,0.5400000000000003,0.08,0.9700000000000006,6,2,1,3,32,6,1,6,6,0,22,7,LH,0.10156250000000001,0.08999999999999998,0.08,0.16166666666666674
8,9,18,1,1,0.25000000000000006,5,5,7,28,103,88,5.6899999999999284,0.01,0.01,0.01,15,1,1,1,48,1,1,1,5,0,16,7,LH,0.11854166666666668,0.01,0.01,0.01
8,10,19,1,9,0.25000000000000006,2,4,1,111,86,34,9.289999999999852,0.05,0.01,0.01,19,2,1,1,75,2,1,1,4,0,16,7,LH,0.1238666666666667,0.025,0.01,0.01
8,10,20,1,10,0.12999999999999998,1,3,16,14,46,107,2.9599999999999835,0.38000000000000017,0.3200000000000001,0.060000000000000005,6,4,2,1,23,6,4,1,6,0,19,7,LH,0.12869565217391307,0.06333333333333332,0.08,0.060000000000000005
8,11,21,1,10,0.3200000000000001,2,3,24,106,18,15,3.149999999999984,0.36000000000000015,0.19000000000000003,1.0200000000000007,8,2,2,3,24,5,2,3,6,0.5,20,7,LH,0.13125000000000003,0.072,0.09500000000000001,0.3400000000000002
8,11,22,1,5,0.22000000000000006,2,3,7,116,111,85,2.619999999999993,0.6900000000000004,0.07,0.16,5,3,1,2,24,10,1,2,6,0,13,7,LH,0.10916666666666668,0.06899999999999999,0.07,0.07999999999999999
8,12,23,1,1,0.6600000000000004,11,12,34,28,27,12,2.849999999999998,1.2400000000000009,0.6100000000000003,0.8900000000000006,15,6,5,8,34,14,5,13,5,0.5,21,7,LH,0.08382352941176471,0.08857142857142858,0.12200000000000005,0.06846153846153846
8,12,24,1,4,0.7300000000000004,7,10,107,102,51,20,2.7400000000000015,0.3200000000000001,0.4200000000000002,0.2700000000000001,9,2,2,2,33,3,5,3,2,0,14,7,LH,0.08303030303030304,0.10666666666666669,0.08399999999999999,0.09
8,13,25,1,1,0.3100000000000001,2,4,35,107,50,26,2.1500000000000017,1.2500000000000009,0.45000000000000023,0.26000000000000006,4,2,2,2,22,10,6,2,5,0,16,7,LH,0.09772727272727273,0.125,0.075,0.13000000000000003
8,13,26,1,5,0.8200000000000005,15,16,9,10,37,96,2.290000000000002,0.5100000000000002,2.5499999999999896,0.35000000000000014,17,2,9,3,24,4,22,3,6,0,20,7,LH,0.09541666666666668,0.1275,0.11590909090909092,0.1166666666666667
8,14,27,1,8,0.23000000000000007,2,4,119,59,111,56,1.9700000000000013,1.2000000000000008,0.08,0.5500000000000003,7,3,1,5,14,11,1,7,2,0,12,7,LH,0.14071428571428574,0.10909090909090911,0.08,0.07857142857142858
8,14,28,1,7,0.8600000000000005,12,14,108,7,105,38,2.7700000000000022,0.6500000000000004,0.19000000000000003,0.13999999999999999,16,2,1,1,25,4,1,1,3,0,15,7,LH,0.11080000000000002,0.16250000000000003,0.19000000000000003,0.13999999999999999
8,15,29,1,6,0.2900000000000001,2,5,57,12,8,4,3.0899999999999843,0.2800000000000001,0.11999999999999998,0.04,11,3,3,1,24,3,4,1,4,0.5,22,7,LH,0.12875000000000003,0.09333333333333334,0.030000000000000002,0.04
8,15,30,1,3,0.2900000000000001,4,5,47,74,42,21,2.1600000000000015,1.8300000000000014,0.5300000000000002,0.02,8,6,5,1,18,16,8,1,5,0,19,7,LH,0.12000000000000002,0.11437500000000002,0.06625,0.02
8,16,31,1,9,0.35000000000000014,2,7,68,15,63,66,2.609999999999996,0.6200000000000003,0.07,0.6200000000000003,7,2,2,6,27,5,2,10,4,0.5,18,7,LH,0.09666666666666669,0.12400000000000001,0.035,0.062000000000000006
8,16,32,1,2,0.5200000000000002,10,13,73,81,2,76,2.639999999999999,0.8200000000000005,0.7800000000000005,0.060000000000000005,13,5,4,2,31,13,6,2,3,0.5,15,7,LH,0.08516129032258066,0.06307692307692307,0.13000000000000003,0.030000000000000002
8,17,33,1,10,0.26000000000000006,2,4,19,22,16,68,1.8000000000000012,1.270000000000001,1.500000000000001,0.38000000000000017,6,2,7,3,18,14,11,5,6,0.5,22,7,LH,0.10000000000000002,0.0907142857142857,0.13636363636363638,0.076
8,17,34,1,5,0.6800000000000004,12,14,1,12,5,6,2.7799999999999994,0.24000000000000007,0.2700000000000001,3.1099999999999777,16,2,3,9,30,2,5,18,6,1,72,7,LH,0.09266666666666669,0.12000000000000001,0.054,0.1727777777777778
8,18,35,1,8,0.25000000000000006,4,5,119,110,90,63,2.2900000000000005,1.6200000000000012,0.6600000000000004,0.03,9,7,2,1,19,13,3,1,2,0,11,7,LH,0.1205263157894737,0.12461538461538464,0.22000000000000008,0.03
8,18,36,1,2,0.24000000000000007,2,3,80,107,24,81,3.0799999999999836,1.0900000000000007,0.02,0.05,7,5,1,1,27,12,1,1,3,0,14,7,LH,0.11407407407407409,0.09083333333333334,0.02,0.05
8,19,37,1,8,0.6900000000000004,13,17,118,72,65,79,2.2100000000000017,1.1500000000000008,2.4999999999999907,0.01,16,3,4,1,28,7,21,1,2,0,13,7,LH,0.07892857142857145,0.16428571428571434,0.11904761904761907,0.01
8,19,38,1,1,0.2700000000000001,5,5,3,104,97,28,6.359999999999915,0.060000000000000005,0.01,0.19000000000000003,14,2,1,3,62,2,1,3,5,0,15,7,LH,0.10258064516129034,0.030000000000000002,0.01,0.06333333333333334
8,20,39,1,9,0.5600000000000003,2,9,63,77,62,72,2.1300000000000017,0.8600000000000005,0.6100000000000003,0.11999999999999998,5,2,5,1,26,7,7,1,4,0.5,15,7,LH,0.08192307692307693,0.1228571428571429,0.08714285714285713,0.11999999999999998
8,20,40,1,3,0.2700000000000001,4,5,88,38,99,89,2.899999999999988,0.07,0.24000000000000007,0.16,11,1,2,1,27,1,2,1,5,0,13,7,LH,0.10740740740740742,0.07,0.12000000000000002,0.16
8,21,41,1,6,0.35000000000000014,2,6,59,80,75,44,2.3400000000000016,1.280000000000001,0.2800000000000001,0.03,5,4,2,1,24,12,3,1,4,0,15,7,LH,0.0975,0.10666666666666666,0.09333333333333332,0.03
8,21,42,1,7,0.23000000000000007,2,3,86,88,89,106,2.0900000000000016,0.2800000000000001,0.7000000000000004,0.8200000000000005,5,1,2,2,25,1,6,8,3,0.5,11,7,LH,0.08360000000000001,0.2800000000000001,0.1166666666666667,0.1025
9,1,1,0,3,2.06,2,17,103,90,37,87,12.549999999999821,6.009999999999916,0.17,0.9800000000000006,16,10,2,5,82,42,2,11,5,0,13,7,LH,0.1530487804878049,0.14309523809523814,0.08499999999999999,0.0890909090909091
9,1,2,0,2,0.3300000000000001,2,4,73,75,112,77,9.95999999999984,4.579999999999947,0.6000000000000003,0.09,17,12,2,1,62,33,3,1,3,0.5,20,7,LH,0.1606451612903226,0.13878787878787882,0.20000000000000007,0.09
9,2,3,0,7,0.3000000000000001,2,3,90,94,2,89,13.029999999999774,0.3000000000000001,5.269999999999932,0.060000000000000005,16,2,11,2,78,3,40,2,3,0.5,24,7,LH,0.16705128205128209,0.09999999999999999,0.13175000000000003,0.03
9,2,4,0,8,0.3300000000000001,2,4,111,113,120,45,12.569999999999784,0.9500000000000006,2.1399999999999983,0.9500000000000006,20,5,8,6,92,8,13,8,2,0.5,17,7,LH,0.13663043478260872,0.11875000000000001,0.16461538461538466,0.11875000000000001
9,3,5,0,2,0.3300000000000001,2,5,77,82,84,8,10.86999999999982,0.4300000000000002,1.430000000000001,0.9600000000000006,14,3,6,3,83,5,12,4,3,0.5,24,7,LH,0.13096385542168676,0.08600000000000001,0.11916666666666668,0.24000000000000007
9,3,6,0,6,0.35000000000000014,5,6,56,44,58,48,10.959999999999818,2.07,0.18000000000000002,0.2700000000000001,18,7,2,2,75,15,3,2,4,0,18,7,LH,0.14613333333333337,0.13800000000000004,0.06,0.13500000000000004
9,4,7,0,7,0.48000000000000026,2,7,41,90,95,115,11.109999999999818,5.319999999999931,0.46000000000000024,2.299999999999995,15,9,3,5,69,30,6,25,3,0,13,7,LH,0.16101449275362323,0.1773333333333334,0.07666666666666667,0.09200000000000001
9,4,8,0,5,0.7800000000000005,2,9,1,11,3,12,10.379999999999841,1.370000000000001,0.37000000000000016,1.9300000000000015,13,7,2,4,79,12,2,10,6,1,72,7,LH,0.13139240506329117,0.11416666666666668,0.18500000000000003,0.19300000000000003
9,5,9,0,5,0.5700000000000003,2,8,12,9,2,8,11.649999999999809,0.4100000000000002,2.1399999999999983,7.529999999999884,16,2,8,15,83,2,16,59,6,1,72,7,LH,0.14036144578313256,0.20500000000000002,0.13375000000000004,0.12762711864406784
9,5,10,0,7,0.5100000000000002,2,3,44,86,41,95,11.289999999999814,1.0700000000000007,0.2800000000000001,1.1900000000000008,18,5,2,3,78,9,3,7,3,0,16,7,LH,0.14474358974358978,0.1188888888888889,0.09333333333333335,0.17000000000000004
9,6,11,0,3,0.7000000000000004,8,10,23,75,44,13,28.940000000001614,0.6900000000000004,0.01,0.7600000000000005,20,4,1,4,198,5,1,5,5,0,20,7,LH,0.1461616161616162,0.138,0.01,0.15200000000000002
9,6,12,0,8,0.5400000000000003,2,8,111,117,110,89,10.969999999999823,3.899999999999961,0.25000000000000006,0.25000000000000006,17,11,2,1,77,29,4,1,2,0.5,15,7,LH,0.1424675324675325,0.13448275862068967,0.0625,0.25000000000000006
9,7,13,1,3,1.460000000000001,2,16,94,38,89,111,16.149999999999732,0.3200000000000001,0.9300000000000006,2.6099999999999883,17,2,3,5,116,2,13,24,5,0,13,7,LH,0.13922413793103453,0.16000000000000003,0.07153846153846154,0.10875000000000001
9,7,14,1,4,0.16,2,3,1,103,108,76,23.860000000000905,0.4200000000000002,0.15,1.1800000000000008,20,3,2,6,152,3,3,12,2,0,13,7,LH,0.15697368421052635,0.14,0.05,0.09833333333333334
9,8,15,1,8,1.430000000000001,13,22,91,116,118,38,10.209999999999859,1.8200000000000014,0.38000000000000017,0.5000000000000002,20,2,1,2,76,15,1,2,2,0,12,7,LH,0.13434210526315793,0.12133333333333335,0.38000000000000017,0.25000000000000006
9,8,16,1,1,0.4300000000000002,2,7,75,27,23,25,7.859999999999887,1.6500000000000012,6.489999999999906,0.11999999999999998,14,6,9,2,56,18,44,2,5,0,19,7,LH,0.1403571428571429,0.09166666666666667,0.14750000000000005,0.06
9,9,17,1,6,0.2800000000000001,2,3,88,49,87,55,7.619999999999888,4.239999999999954,0.9400000000000006,0.23000000000000007,12,10,4,2,44,32,9,2,4,0,14,7,LH,0.17318181818181824,0.13250000000000003,0.10444444444444445,0.115
9,9,18,1,3,1.1900000000000008,7,11,117,78,17,19,13.299999999999788,0.22000000000000006,2.1299999999999986,1.0500000000000007,20,1,5,4,95,1,10,11,5,0,17,7,LH,0.14000000000000004,0.22000000000000006,0.21300000000000005,0.09545454545454546
9,10,19,1,5,0.5800000000000003,2,5,5,7,49,87,10.399999999999835,7.6899999999998805,0.08,0.18000000000000002,17,13,1,2,67,52,1,2,6,0,19,7,LH,0.15522388059701495,0.14788461538461542,0.08,0.09
9,10,20,1,8,0.3100000000000001,2,3,81,110,111,112,11.599999999999804,0.6800000000000004,0.6500000000000004,1.5700000000000012,16,2,3,4,77,5,9,14,2,0.5,9,7,LH,0.15064935064935067,0.136,0.07222222222222222,0.11214285714285716
9,11,21,1,10,0.3900000000000002,2,5,23,13,51,20,7.629999999999891,1.7200000000000013,3.7199999999999647,1.7000000000000013,12,3,7,6,71,9,26,14,6,0.5,22,7,LH,0.10746478873239439,0.19111111111111118,0.1430769230769231,0.12142857142857146
9,11,22,1,9,0.3200000000000001,2,5,72,9,3,11,8.259999999999875,4.319999999999952,0.7400000000000004,0.47000000000000025,15,7,2,1,45,38,5,1,4,0.5,22,7,LH,0.1835555555555556,0.11368421052631582,0.14800000000000002,0.47000000000000025
9,12,23,1,7,0.26000000000000006,2,3,93,91,14,23,10.649999999999823,0.24000000000000007,5.069999999999936,2.3199999999999945,20,1,12,8,57,1,31,15,3,0,18,7,LH,0.18684210526315795,0.24000000000000007,0.16354838709677424,0.1546666666666667
9,12,24,1,1,0.5200000000000002,2,4,27,29,31,53,10.249999999999837,1.320000000000001,0.9600000000000006,1.500000000000001,16,4,4,5,62,9,7,11,5,0.5,19,7,LH,0.16532258064516134,0.1466666666666667,0.13714285714285715,0.13636363636363638
9,13,25,1,4,0.24000000000000007,2,3,24,102,104,14,10.249999999999831,3.0599999999999787,3.659999999999966,0.5200000000000002,16,8,9,4,54,20,19,5,2,0,16,7,LH,0.18981481481481488,0.15300000000000002,0.1926315789473685,0.104
9,13,26,1,2,0.4000000000000002,2,4,76,73,80,60,9.239999999999856,1.5900000000000012,0.5600000000000003,2.479999999999991,13,4,4,5,72,12,6,18,3,0.5,13,7,LH,0.12833333333333335,0.1325,0.09333333333333334,0.1377777777777778
9,14,27,1,9,0.4300000000000002,2,5,66,21,24,67,10.989999999999819,2.5599999999999894,1.7900000000000014,0.38000000000000017,17,6,9,2,77,11,22,7,4,0,20,7,LH,0.14272727272727276,0.2327272727272728,0.08136363636363637,0.054285714285714284
9,14,28,1,6,1.1200000000000008,2,8,57,106,59,97,15.089999999999748,0.26000000000000006,0.9300000000000006,0.23000000000000007,18,2,3,2,106,3,5,3,4,0,12,7,LH,0.14235849056603778,0.08666666666666668,0.18600000000000005,0.07666666666666666
9,15,29,1,10,0.34000000000000014,5,5,13,111,110,14,32.24000000000219,0.01,0.01,0.01,20,1,1,1,225,1,1,1,6,0,16,7,LH,0.14328888888888894,0.01,0.01,0.01
9,15,30,1,7,0.8000000000000005,2,9,67,71,95,99,12.819999999999789,2.9799999999999804,0.8000000000000005,0.3900000000000002,17,8,4,3,90,27,7,5,3,0,13,7,LH,0.14244444444444448,0.11037037037037038,0.1142857142857143,0.07800000000000001
9,16,31,1,6,0.5000000000000002,2,5,90,39,95,52,9.959999999999843,2.8799999999999826,0.26000000000000006,0.15,14,5,2,1,64,22,2,1,4,0,15,7,LH,0.15562500000000004,0.13090909090909095,0.13,0.15
9,16,32,1,2,0.37000000000000016,5,6,76,84,82,69,9.749999999999845,0.9700000000000006,1.490000000000001,1.7100000000000013,19,4,4,4,53,6,15,8,3,0.5,13,7,LH,0.18396226415094344,0.1616666666666667,0.09933333333333334,0.21375000000000008
9,17,33,1,1,0.35000000000000014,2,5,36,92,25,52,8.679999999999866,1.9600000000000015,1.330000000000001,1.7700000000000014,11,4,2,3,68,12,9,12,5,0,17,7,LH,0.12764705882352945,0.16333333333333339,0.14777777777777779,0.14750000000000002
9,17,34,1,5,0.7500000000000004,2,7,47,8,11,3,12.69999999999979,0.4000000000000002,0.8300000000000005,3.619999999999967,18,2,4,8,95,2,10,26,6,0.5,23,7,LH,0.13368421052631582,0.20000000000000004,0.08300000000000002,0.13923076923076927
9,18,35,1,8,1.8200000000000014,3,21,110,118,50,54,11.369999999999843,1.1900000000000008,2.99999999999998,0.3200000000000001,19,4,6,2,94,9,25,2,2,0,12,7,LH,0.12095744680851066,0.13222222222222224,0.12000000000000002,0.16000000000000003
9,18,36,1,9,0.38000000000000017,2,4,70,61,43,99,11.709999999999804,0.9200000000000006,2.6499999999999875,2.3599999999999937,18,4,9,10,74,8,16,15,4,0,15,7,LH,0.1582432432432433,0.11500000000000003,0.16562500000000005,0.15733333333333338
9,19,37,1,6,1.500000000000001,13,21,57,108,105,60,10.099999999999863,2.9799999999999804,0.5200000000000002,0.36000000000000015,20,6,3,2,69,25,3,3,4,0,12,7,LH,0.14637681159420293,0.11920000000000003,0.17333333333333342,0.12
9,19,38,1,1,0.36000000000000015,2,7,25,32,62,119,7.119999999999901,2.629999999999988,2.6599999999999873,2.5599999999999894,16,8,6,8,45,18,16,15,5,0,16,7,LH,0.15822222222222226,0.14611111111111114,0.16625000000000004,0.17066666666666672
10,1,1,0,4,0.38000000000000017,2,3,105,106,36,4,3.2399999999999833,1.2400000000000009,2.010000000000001,0.09,6,5,5,1,24,5,9,1,2,0,15,7,LH,0.13500000000000004,0.24800000000000005,0.2233333333333334,0.09
10,1,2,0,9,0.3300000000000001,2,4,70,88,44,41,3.049999999999986,0.7500000000000004,0.49000000000000027,0.3200000000000001,8,1,2,2,14,2,3,2,4,0,17,7,LH,0.21785714285714294,0.3750000000000002,0.16333333333333336,0.16
10,2,3,0,1,0.35000000000000014,2,3,35,88,24,87,4.27999999999996,0.5500000000000003,0.35000000000000014,0.35000000000000014,9,2,2,1,19,3,2,1,5,0,17,7,LH,0.22526315789473694,0.1833333333333334,0.17500000000000004,0.35000000000000014
10,2,4,0,5,0.6200000000000003,2,7,6,1,114,38,2.3200000000000016,8.909999999999854,0.01,0.01,6,14,1,1,15,44,1,1,6,0,19,7,LH,0.1546666666666667,0.20250000000000007,0.01,0.01
10,3,5,0,4,0.36000000000000015,2,3,66,35,93,86,4.119999999999964,0.18000000000000002,0.6100000000000003,0.25000000000000006,7,2,2,1,21,2,5,1,2,0,15,7,LH,0.19619047619047625,0.09000000000000001,0.12200000000000003,0.25000000000000006
10,3,6,0,2,0.5100000000000002,2,6,116,112,37,83,4.569999999999958,0.7800000000000005,0.16,0.21000000000000005,9,2,1,2,20,4,1,2,3,0,12,7,LH,0.22850000000000006,0.19500000000000006,0.16,0.10500000000000001
10,4,7,0,9,0.49000000000000027,2,4,119,62,30,115,3.599999999999978,0.6900000000000004,0.9300000000000006,0.08,11,2,4,1,17,3,7,1,4,0,13,7,LH,0.21176470588235302,0.23000000000000007,0.13285714285714287,0.08
10,4,8,0,7,0.3000000000000001,2,3,38,94,93,1,4.219999999999961,0.16,0.05,0.49000000000000027,9,2,1,1,19,2,1,1,3,0,17,7,LH,0.2221052631578948,0.08,0.05,0.49000000000000027
10,5,9,0,9,0.7900000000000005,8,11,95,102,100,4,5.449999999999946,6.849999999999898,0.38000000000000017,3.00999999999998,17,14,3,12,30,31,3,14,4,0,13,7,LH,0.18166666666666673,0.22096774193548396,0.1266666666666667,0.21500000000000008
10,5,10,0,8,0.48000000000000026,2,5,118,40,39,20,3.8999999999999715,1.2100000000000009,0.13999999999999999,0.6900000000000004,10,4,1,3,20,8,1,3,2,0,18,7,LH,0.19500000000000006,0.15125000000000002,0.13999999999999999,0.2300000000000001
10,6,11,0,5,0.6100000000000003,2,6,8,72,10,6,2.9099999999999953,0.5500000000000003,1.6200000000000012,0.07,6,2,5,1,19,3,8,1,6,0.5,40,7,LH,0.15315789473684213,0.1833333333333334,0.20250000000000007,0.07
10,6,12,0,6,0.34000000000000014,3,4,38,39,59,50,2.689999999999994,1.310000000000001,0.09999999999999999,0.10999999999999999,8,5,1,1,15,6,1,1,4,0,18,7,LH,0.1793333333333334,0.2183333333333334,0.09999999999999999,0.10999999999999999
10,7,13,1,10,0.3000000000000001,2,4,17,18,21,68,2.2600000000000016,5.269999999999932,0.01,0.01,7,12,1,1,13,26,1,1,6,0.5,22,7,LH,0.1738461538461539,0.20269230769230775,0.01,0.01
10,7,14,1,4,0.37000000000000016,2,3,105,96,49,91,3.799999999999971,0.4300000000000002,0.26000000000000006,0.36000000000000015,10,2,2,2,17,2,2,2,2,0,12,7,LH,0.22352941176470595,0.21500000000000005,0.13,0.18000000000000002
10,8,15,1,1,0.4100000000000002,2,4,26,67,36,28,3.0199999999999885,0.49000000000000027,0.5900000000000003,0.2900000000000001,7,1,3,2,13,1,6,2,5,0.5,19,7,LH,0.23230769230769238,0.49000000000000027,0.09833333333333334,0.14500000000000002
10,8,16,1,3,0.09,2,3,43,42,49,47,1.6000000000000012,1.0700000000000007,0.5400000000000003,0.6100000000000003,6,4,1,4,11,8,1,7,5,0.5,19,7,LH,0.14545454545454548,0.13375000000000004,0.5400000000000003,0.08714285714285716
10,9,17,1,8,0.21000000000000005,2,3,111,116,118,109,2.4299999999999966,0.5100000000000002,0.19000000000000003,1.1100000000000008,6,5,1,4,15,5,1,5,2,1,24,7,LH,0.16200000000000003,0.10200000000000001,0.19000000000000003,0.2220000000000001
10,9,18,1,4,0.49000000000000027,3,5,103,105,100,90,2.0100000000000016,3.0299999999999794,0.7100000000000004,0.5500000000000003,5,9,4,2,11,17,4,2,2,0.5,9,7,LH,0.1827272727272728,0.1782352941176471,0.17750000000000005,0.2750000000000001
10,10,19,1,6,0.3100000000000001,2,4,116,51,53,112,3.7999999999999696,0.13999999999999999,0.16,1.7300000000000013,11,1,1,4,22,1,1,5,4,0,12,7,LH,0.17272727272727278,0.13999999999999999,0.16,0.34600000000000014
10,10,20,1,7,0.9300000000000006,3,7,105,66,103,94,4.6199999999999655,0.8300000000000005,0.8700000000000006,0.18000000000000002,11,4,5,2,25,4,6,2,3,0,11,7,LH,0.18480000000000005,0.20750000000000007,0.14500000000000005,0.09
10,11,21,1,8,0.46000000000000024,3,8,119,3,76,12,1.4400000000000008,1.6300000000000012,0.48000000000000026,0.26000000000000006,5,6,1,1,10,7,1,1,2,0,17,7,LH,0.14400000000000007,0.23285714285714296,0.48000000000000026,0.26000000000000006
10,11,22,1,3,0.24000000000000007,2,3,108,44,42,39,2.639999999999993,0.23000000000000007,1.330000000000001,1.2000000000000008,5,1,6,7,8,1,6,9,5,0.5,17,7,LH,0.3300000000000001,0.23000000000000007,0.22166666666666676,0.13333333333333336
10,12,23,1,1,0.34000000000000014,2,4,27,34,32,120,2.3900000000000006,0.3300000000000001,1.500000000000001,0.8600000000000005,7,1,4,4,12,1,6,5,5,0.5,17,7,LH,0.19916666666666674,0.3300000000000001,0.25000000000000006,0.17200000000000004
10,12,24,1,9,0.09,1,2,66,100,12,45,0.5800000000000003,4.019999999999959,0.4100000000000002,0.23000000000000007,3,8,2,3,4,17,2,3,4,0,17,7,LH,0.14500000000000007,0.2364705882352942,0.20500000000000004,0.07666666666666666
10,13,25,1,10,0.5000000000000002,3,5,22,73,14,81,2.490000000000002,1.1400000000000008,0.8000000000000005,0.5700000000000003,6,5,4,2,11,12,5,2,6,0,18,7,LH,0.22636363636363646,0.09500000000000001,0.16000000000000003,0.2850000000000001
10,13,26,1,6,0.2900000000000001,4,5,56,108,51,100,4.24999999999996,0.6900000000000004,0.08,0.8000000000000005,15,2,1,5,20,3,1,5,4,0,12,7,LH,0.21250000000000008,0.23000000000000007,0.08,0.16000000000000003
10,14,27,1,5,0.6500000000000004,2,6,8,1,49,12,4.479999999999963,3.569999999999968,0.02,0.01,6,6,1,1,19,14,1,1,6,0.5,22,7,LH,0.2357894736842106,0.2550000000000001,0.02,0.01
10,14,28,1,7,0.22000000000000006,2,4,90,17,63,40,1.530000000000001,1.420000000000001,0.18000000000000002,0.6100000000000003,6,3,2,3,12,8,2,6,3,0,18,7,LH,0.12750000000000003,0.17750000000000005,0.09,0.10166666666666666
10,15,29,1,2,0.5000000000000002,2,5,80,84,116,77,2.859999999999994,2.4599999999999915,0.5900000000000003,0.8400000000000005,8,4,5,3,16,8,5,5,3,0.5,11,7,LH,0.17875000000000005,0.30750000000000016,0.11800000000000004,0.16800000000000007
10,15,30,1,7,0.45000000000000023,2,3,46,55,58,85,3.4699999999999798,0.3300000000000001,0.2800000000000001,0.3100000000000001,9,2,2,2,20,2,2,3,3,0,16,7,LH,0.17350000000000004,0.165,0.13999999999999999,0.10333333333333332
10,16,31,1,9,0.13999999999999999,2,3,87,65,62,18,3.059999999999982,2.299999999999995,0.060000000000000005,0.07,10,6,2,1,21,10,2,1,4,0,17,7,LH,0.14571428571428577,0.2300000000000001,0.03,0.07
10,16,32,1,2,1.2100000000000009,2,3,57,52,74,43,2.840000000000002,0.3200000000000001,1.1500000000000008,0.20000000000000004,7,1,4,1,15,2,8,1,3,0,16,7,LH,0.1893333333333334,0.16,0.14375000000000002,0.20000000000000004
10,17,33,1,10,0.8200000000000005,3,6,89,53,50,51,2.7700000000000022,0.9200000000000006,0.7500000000000004,0.20000000000000004,6,3,3,2,15,4,3,2,6,0.5,15,7,LH,0.1846666666666667,0.2300000000000001,0.2500000000000001,0.10000000000000002
10,17,34,1,3,0.21000000000000005,2,3,44,62,38,75,2.5799999999999934,0.21000000000000005,0.34000000000000014,2.1199999999999988,7,1,3,5,17,1,4,11,5,0,17,7,LH,0.15176470588235297,0.21000000000000005,0.085,0.1927272727272728
10,18,35,1,4,0.13999999999999999,2,3,66,100,25,70,1.8500000000000012,1.330000000000001,1.430000000000001,0.4000000000000002,6,6,4,4,10,12,4,4,2,0,15,7,LH,0.18500000000000005,0.11083333333333335,0.35750000000000015,0.1
10,18,36,1,2,0.4400000000000002,2,7,78,81,74,117,3.599999999999977,0.8400000000000005,0.15,1.1600000000000008,9,5,2,5,23,7,2,6,3,0.5,11,7,LH,0.15652173913043482,0.12000000000000004,0.075,0.19333333333333338
10,19,37,1,5,0.22000000000000006,2,4,26,4,61,33,3.5299999999999736,2.0000000000000013,0.8400000000000005,0.13999999999999999,10,5,3,1,16,8,3,1,6,0,20,7,LH,0.2206250000000001,0.2500000000000001,0.28000000000000014,0.13999999999999999
10,19,38,1,10,0.3000000000000001,2,3,43,20,13,17,2.1200000000000014,0.48000000000000026,3.6299999999999666,7.009999999999895,6,1,8,15,11,1,15,35,6,0.5,23,7,LH,0.19272727272727277,0.48000000000000026,0.24200000000000008,0.20028571428571434
10,20,39,1,7,0.3200000000000001,2,5,93,89,99,98,2.1200000000000014,0.3100000000000001,1.7200000000000013,0.5800000000000003,5,1,5,2,15,1,6,3,3,0,10,7,LH,0.14133333333333337,0.3100000000000001,0.2866666666666668,0.19333333333333338
10,20,40,1,8,0.34000000000000014,2,6,118,112,120,113,3.35999999999998,0.11999999999999998,0.26000000000000006,0.5500000000000003,8,1,1,2,20,1,1,2,2,1,24,7,LH,0.16800000000000007,0.11999999999999998,0.26000000000000006,0.27500000000000013
10,21,41,1,4,0.23000000000000007,2,3,102,14,99,98,2.1200000000000014,2.4699999999999913,0.34000000000000014,0.12999999999999998,7,4,2,2,16,11,2,2,2,0.5,12,7,LH,0.13250000000000003,0.22454545454545463,0.17000000000000004,0.065
10,21,42,1,5,0.24000000000000007,2,4,12,8,7,10,3.019999999999985,0.4100000000000002,0.20000000000000004,0.9100000000000006,5,2,2,4,20,5,3,5,6,1,72,7,LH,0.15100000000000002,0.082,0.06666666666666667,0.18200000000000005
11,1,1,0,10,1.430000000000001,2,12,14,29,105,51,51.59999999999859,0.12999999999999998,0.02,0.4400000000000002,20,1,1,2,315,1,1,2,6,0,17,6,LH,0.16380952380952385,0.12999999999999998,0.02,0.22000000000000003
11,1,2,0,5,1.1100000000000008,2,10,40,47,6,86,19.240000000000034,1.380000000000001,6.629999999999903,1.9400000000000015,9,3,5,2,131,5,41,12,6,0,19,6,LH,0.14687022900763363,0.27600000000000013,0.16170731707317076,0.16166666666666668
11,2,3,0,1,2.569999999999989,3,24,102,106,16,25,23.540000000000468,2.719999999999986,0.5100000000000002,0.24000000000000007,15,2,2,1,121,17,3,1,5,0,15,6,LH,0.1945454545454546,0.16000000000000003,0.17000000000000004,0.24000000000000007
11,2,4,0,5,1.5200000000000011,2,8,47,43,8,5,17.63999999999972,3.6799999999999655,0.6300000000000003,16.23999999999974,8,3,2,10,111,26,5,102,6,0,22,6,LH,0.15891891891891896,0.14153846153846156,0.12600000000000003,0.15921568627450985
11,3,5,0,9,0.7900000000000005,2,7,70,64,36,34,17.629999999999832,8.4399999999998645,1.9300000000000015,1.5300000000000011,11,8,2,2,104,58,6,10,4,0,18,6,LH,0.1695192307692308,0.14551724137931038,0.3216666666666668,0.15300000000000002
11,3,6,0,8,1.6000000000000012,2,15,109,113,44,23,18.59999999999986,0.9000000000000006,2.7399999999999856,2.569999999999989,11,2,6,5,133,6,16,17,2,0,15,6,LH,0.13984962406015042,0.15000000000000002,0.17125000000000004,0.15117647058823533
11,4,7,0,7,1.2300000000000009,2,8,96,95,19,22,17.28999999999971,1.6800000000000013,2.4599999999999915,1.1000000000000008,8,3,2,2,93,7,23,7,3,0,18,6,LH,0.1859139784946237,0.2400000000000001,0.10695652173913045,0.1571428571428572
11,4,8,0,6,0.9700000000000006,2,6,53,29,28,27,11.949999999999811,14.579999999999734,0.3100000000000001,0.3900000000000002,8,15,1,2,59,83,1,3,4,0.5,34,6,LH,0.202542372881356,0.17566265060240968,0.3100000000000001,0.13000000000000003
11,5,9,0,8,2.6899999999999866,16,29,113,119,110,17,16.099999999999746,5.279999999999932,2.8799999999999826,3.229999999999975,20,7,5,5,97,35,22,14,2,0.5,18,6,LH,0.16597938144329902,0.15085714285714288,0.13090909090909092,0.2307142857142858
11,5,10,0,7,3.93999999999996,2,30,92,89,42,95,22.70000000000009,0.7900000000000005,2.4099999999999926,1.1700000000000008,6,2,3,2,139,7,17,6,3,0.5,23,6,LH,0.16330935251798565,0.11285714285714286,0.141764705882353,0.19500000000000006
11,6,11,1,10,0.35000000000000014,3,3,17,24,110,89,51.9799999999983,0.02,0.03,0.04,20,1,1,2,321,1,1,2,6,0,17,6,LH,0.16193146417445486,0.02,0.03,0.02
11,6,12,1,5,1.6000000000000012,2,10,11,3,10,4,19.009999999999923,2.6399999999999877,1.7800000000000014,6.899999999999897,13,3,5,9,126,16,15,47,6,1,72,6,LH,0.1508730158730159,0.16500000000000004,0.11866666666666668,0.1468085106382979
11,7,13,1,2,0.9700000000000006,2,10,84,82,77,81,17.539999999999793,3.0599999999999787,3.5899999999999674,5.499999999999927,14,10,9,14,119,20,22,29,3,1,36,6,LH,0.14739495798319333,0.15300000000000005,0.1631818181818182,0.18965517241379315
11,7,14,1,9,1.280000000000001,15,19,67,95,63,85,13.22999999999979,5.6699999999999235,0.9400000000000006,1.5100000000000011,20,5,2,2,80,36,9,11,4,0,14,6,LH,0.16537500000000005,0.15750000000000003,0.10444444444444444,0.1372727272727273
11,8,15,1,6,0.9700000000000006,2,9,55,50,40,38,16.279999999999717,1.280000000000001,7.859999999999877,0.5600000000000003,11,5,7,2,90,7,57,2,4,0,18,6,LH,0.18088888888888893,0.1828571428571429,0.1378947368421053,0.28000000000000014
11,8,16,1,9,0.6900000000000004,2,7,70,66,69,87,17.919999999999895,6.29999999999991,0.6100000000000003,2.9899999999999802,16,9,4,9,105,24,5,20,4,0.5,15,6,LH,0.17066666666666672,0.2625000000000001,0.122,0.14950000000000002
11,9,17,1,4,1.5200000000000011,2,11,66,67,65,98,20.480000000000164,0.6400000000000003,0.6900000000000004,1.300000000000001,12,3,2,2,137,3,3,8,2,0.5,14,6,LH,0.14948905109489055,0.2133333333333334,0.2300000000000001,0.16250000000000003
11,9,18,1,10,0.9100000000000006,2,11,16,14,57,38,13.879999999999768,28.260000000001618,0.01,0.060000000000000005,5,11,1,2,95,181,1,2,6,0,21,6,LH,0.14610526315789477,0.15613259668508292,0.01,0.03
11,10,19,1,3,0.19000000000000003,2,2,3,88,63,66,23.65000000000087,0.36000000000000015,0.3100000000000001,0.17,14,3,2,1,115,3,2,1,5,0,17,6,LH,0.20565217391304355,0.12000000000000002,0.15500000000000003,0.17
11,10,20,1,10,1.6200000000000012,2,10,21,14,22,23,23.700000000000653,20.760000000000446,0.03,0.16,17,13,1,3,140,116,1,3,6,1,72,6,LH,0.16928571428571434,0.17896551724137935,0.03,0.05333333333333332
11,11,21,1,1,0.2800000000000001,5,5,2,29,58,28,52.20999999999824,0.01,0.01,0.02,20,1,1,2,289,1,1,2,5,0,20,6,LH,0.18065743944636684,0.01,0.01,0.01
11,11,22,1,8,0.5700000000000003,2,6,116,65,112,44,13.719999999999764,4.809999999999942,7.629999999999882,2.1899999999999973,5,2,4,2,90,31,54,15,2,0,13,6,LH,0.1524444444444445,0.1551612903225807,0.14129629629629634,0.14600000000000002
11,12,23,1,6,0.8600000000000005,2,5,53,50,58,8,18.45999999999995,1.2400000000000009,5.229999999999933,3.3099999999999734,12,3,7,6,99,10,36,19,4,0.5,18,6,LH,0.18646464646464653,0.12400000000000003,0.1452777777777778,0.17421052631578954
11,12,24,1,4,1.1400000000000008,3,13,98,103,71,108,19.6800000000001,1.6500000000000012,2.259999999999996,5.0599999999999365,9,3,3,6,114,10,15,29,2,0.5,10,6,LH,0.17263157894736847,0.16500000000000006,0.1506666666666667,0.1744827586206897
11,13,25,1,7,2.3099999999999947,3,15,93,72,69,65,17.69999999999971,1.7000000000000013,2.4499999999999917,1.1100000000000008,11,4,2,2,103,10,19,7,3,0.5,15,6,LH,0.1718446601941748,0.17000000000000004,0.12894736842105264,0.1585714285714286
11,13,26,1,4,3.5999999999999672,2,29,107,37,51,50,13.769999999999795,12.579999999999776,1.9400000000000015,2.289999999999995,6,7,3,5,97,86,14,11,2,0,15,6,LH,0.14195876288659798,0.1462790697674419,0.1385714285714286,0.20818181818181825
11,14,27,1,10,2.429999999999992,3,18,16,13,15,67,16.78999999999973,4.769999999999943,5.34999999999993,1.300000000000001,9,4,5,2,100,28,32,7,6,0.5,22,6,LH,0.16790000000000005,0.1703571428571429,0.16718750000000004,0.18571428571428575
11,14,28,1,5,0.3000000000000001,2,4,12,3,5,6,12.519999999999785,0.4400000000000002,2.489999999999991,6.199999999999912,19,1,6,16,70,1,13,43,6,1,72,6,LH,0.1788571428571429,0.4400000000000002,0.1915384615384616,0.14418604651162795
11,15,29,1,6,0.6200000000000003,2,7,52,55,39,13,15.209999999999734,5.969999999999917,0.8200000000000005,1.1700000000000008,8,6,3,2,95,35,6,4,4,0,19,6,LH,0.16010526315789478,0.17057142857142862,0.1366666666666667,0.29250000000000015
11,15,30,1,7,1.9200000000000015,2,16,35,86,85,71,24.80000000000078,0.7800000000000005,0.34000000000000014,0.9100000000000006,15,3,2,2,143,3,2,3,3,0,15,6,LH,0.17342657342657347,0.2600000000000001,0.17000000000000004,0.30333333333333345
11,16,31,1,2,0.9400000000000006,2,9,77,74,73,49,17.589999999999804,0.45000000000000023,1.9900000000000015,0.8100000000000005,7,2,3,3,106,3,16,7,3,0.5,13,6,LH,0.16594339622641513,0.15000000000000005,0.12437500000000001,0.11571428571428573
11,16,32,1,7,1.270000000000001,2,12,32,2,28,90,22.920000000000584,0.3900000000000002,0.47000000000000025,0.2900000000000001,10,2,2,1,155,3,3,1,3,0,19,6,LH,0.1478709677419355,0.13,0.1566666666666667,0.2900000000000001
11,17,33,1,4,2.199999999999997,2,22,62,105,65,87,24.140000000000626,1.1200000000000008,1.0200000000000007,1.8600000000000014,12,3,2,3,148,11,9,7,2,0,13,6,LH,0.16310810810810814,0.10181818181818182,0.11333333333333334,0.2657142857142858
11,17,34,1,1,1.9200000000000015,2,14,33,56,25,49,16.779999999999728,8.14999999999987,0.6400000000000003,0.46000000000000024,6,10,3,2,97,52,6,4,5,0,18,6,LH,0.17298969072164952,0.15673076923076926,0.10666666666666667,0.11500000000000002
12,1,1,0,10,0.9200000000000006,2,8,18,14,93,24,3.319999999999993,4.239999999999954,0.04,0.02,4,7,1,1,34,20,1,1,6,0.5,39,7,LH,0.09764705882352942,0.21200000000000008,0.04,0.02
12,1,2,0,5,0.46000000000000024,2,3,42,9,1,47,3.8899999999999713,1.330000000000001,0.4000000000000002,2.3599999999999937,8,4,2,5,22,7,4,12,6,0,22,7,LH,0.17681818181818187,0.19000000000000006,0.10000000000000002,0.19666666666666674
12,2,3,0,1,0.5200000000000002,2,4,32,2,34,29,3.3199999999999843,2.6499999999999875,0.4300000000000002,0.02,8,8,3,1,22,17,3,1,5,0.5,36,7,LH,0.15090909090909094,0.1558823529411765,0.1433333333333334,0.02
12,2,4,0,9,0.6900000000000004,2,5,65,70,104,72,2.600000000000002,0.47000000000000025,2.909999999999982,0.08,4,2,5,2,11,3,23,2,4,0.5,26,7,LH,0.23636363636363644,0.1566666666666667,0.1265217391304348,0.04
12,3,5,0,8,0.6700000000000004,2,6,120,112,40,43,1.740000000000001,2.679999999999987,0.9000000000000006,0.6600000000000004,4,6,2,2,9,11,2,3,2,0,14,7,LH,0.1933333333333334,0.24363636363636373,0.4500000000000002,0.22000000000000003
12,3,6,0,2,0.4400000000000002,8,8,17,14,62,100,7.639999999999891,5.189999999999934,0.01,0.01,15,17,1,1,50,36,1,1,3,0,18,7,LH,0.15280000000000005,0.1441666666666667,0.01,0.01
12,4,7,0,6,1.0600000000000007,10,13,56,60,20,57,3.729999999999988,0.46000000000000024,0.8500000000000005,0.10999999999999999,12,2,4,1,27,5,10,1,4,0.5,30,7,LH,0.13814814814814816,0.092,0.08499999999999999,0.10999999999999999
12,4,8,0,5,0.6000000000000003,2,6,10,12,7,43,2.5000000000000018,0.7600000000000005,2.239999999999996,2.819999999999984,6,2,6,8,16,4,12,13,6,0.5,41,7,LH,0.15625000000000006,0.19000000000000006,0.18666666666666673,0.216923076923077
12,5,9,0,3,0.5800000000000003,2,7,39,42,120,38,3.0199999999999925,1.260000000000001,2.099999999999999,0.03,4,4,6,1,21,5,13,1,5,0.5,32,7,LH,0.14380952380952383,0.25200000000000006,0.16153846153846158,0.03
12,5,10,0,5,1.1100000000000008,17,19,12,4,50,108,2.760000000000002,1.6500000000000012,1.300000000000001,0.7500000000000004,19,4,2,2,27,12,7,8,6,0,18,7,LH,0.10222222222222224,0.13750000000000004,0.18571428571428575,0.09375
12,6,11,0,3,0.4100000000000002,2,3,60,50,14,92,4.689999999999953,0.5700000000000003,0.4200000000000002,0.09999999999999999,7,3,2,1,31,6,5,1,5,0,17,7,LH,0.1512903225806452,0.095,0.084,0.09999999999999999
12,6,12,0,5,0.2700000000000001,3,4,100,105,104,2,9.35999999999985,0.02,0.03,0.7600000000000005,16,1,2,5,49,1,2,6,6,0.5,18,7,LH,0.19102040816326538,0.02,0.015,0.1266666666666667
12,7,13,1,2,0.5500000000000003,2,5,82,80,52,27,3.09999999999999,1.8300000000000014,0.3000000000000001,0.5900000000000003,6,4,2,3,25,11,2,4,3,0,15,7,LH,0.12400000000000001,0.1663636363636364,0.15000000000000002,0.14750000000000002
12,7,14,1,7,1.500000000000001,17,28,24,44,19,21,5.069999999999969,0.9400000000000006,0.10999999999999999,0.11999999999999998,20,2,1,1,52,7,1,1,3,0.5,23,7,LH,0.09750000000000002,0.13428571428571429,0.10999999999999999,0.11999999999999998
12,8,15,1,4,1.0500000000000007,13,14,103,50,25,84,2.740000000000002,1.9900000000000015,1.260000000000001,0.6000000000000003,15,4,3,2,22,12,3,3,2,0,14,7,LH,0.12454545454545457,0.16583333333333336,0.4200000000000002,0.20000000000000007
12,8,16,1,9,0.6000000000000003,2,5,61,45,65,47,4.879999999999954,0.6700000000000004,0.18000000000000002,0.8000000000000005,7,1,2,3,30,1,2,8,4,0,18,7,LH,0.1626666666666667,0.6700000000000004,0.09,0.09999999999999999
12,9,17,1,1,0.7600000000000005,2,5,69,35,27,62,3.9899999999999753,0.2700000000000001,1.480000000000001,0.36000000000000015,5,1,5,3,24,1,7,3,5,0,18,7,LH,0.16625000000000004,0.2700000000000001,0.21142857142857152,0.12000000000000002
12,9,18,1,6,1.1600000000000008,10,12,58,79,55,99,3.339999999999998,2.099999999999999,0.15,0.04,12,3,2,1,24,14,2,1,4,0,13,7,LH,0.1391666666666667,0.15000000000000002,0.075,0.04
12,10,19,1,3,1.9300000000000015,14,23,41,9,74,5,5.339999999999973,1.9200000000000015,2.07,0.09,20,6,7,2,46,10,9,2,5,0,20,7,LH,0.11608695652173916,0.19200000000000006,0.2300000000000001,0.045
12,10,20,1,7,0.8100000000000005,10,10,14,91,88,55,6.609999999999921,0.02,0.05,0.08,17,2,2,2,29,2,2,2,3,0,16,7,LH,0.22793103448275873,0.01,0.025,0.04
12,11,21,1,10,0.8900000000000006,16,16,64,13,63,46,4.299999999999972,3.1299999999999772,0.01,0.05,20,6,1,2,39,13,1,2,6,0,19,7,LH,0.11025641025641028,0.24076923076923087,0.01,0.025
12,11,22,1,6,2.109999999999999,3,12,4,105,78,75,9.439999999999888,0.01,0.02,0.01,10,1,1,1,58,1,1,1,4,0,14,7,LH,0.16275862068965521,0.01,0.02,0.01
12,12,23,1,2,1.1900000000000008,7,11,76,84,74,43,3.5499999999999945,0.5000000000000002,0.8500000000000005,0.7500000000000004,9,2,2,2,21,3,4,6,3,0.5,14,7,LH,0.16904761904761909,0.1666666666666667,0.21250000000000008,0.125
12,12,24,1,10,1.0300000000000007,19,21,13,24,21,50,3.9799999999999818,0.22000000000000006,0.6900000000000004,1.7100000000000013,20,1,3,3,37,1,7,5,6,0.5,22,7,LH,0.10756756756756758,0.22000000000000006,0.09857142857142859,0.34200000000000014
12,13,25,1,3,0.4400000000000002,2,4,48,104,39,22,2.9299999999999913,1.320000000000001,0.37000000000000016,0.5900000000000003,6,2,2,3,22,13,3,4,5,0,18,7,LH,0.1331818181818182,0.10153846153846155,0.12333333333333335,0.14750000000000002
12,13,26,1,2,1.0600000000000007,15,18,66,32,1,81,5.389999999999953,2.099999999999999,0.4000000000000002,1.1200000000000008,19,4,2,4,37,9,2,6,3,0,18,7,LH,0.14567567567567571,0.23333333333333342,0.20000000000000007,0.18666666666666673
12,14,27,1,8,1.0300000000000007,4,8,110,116,69,75,3.409999999999994,0.8100000000000005,0.34000000000000014,0.26000000000000006,6,2,3,3,25,5,3,5,2,0,11,7,LH,0.13640000000000002,0.162,0.11333333333333333,0.052
