Subject,Round,Phase,afterbreak,Schema,Schema_RT,Schema_OB,Schema_AS,Cho_1,Cho_2,Cho_3,Cho_4,RT_1,RT_2,RT_3,RT_4,OB_1,OB_2,OB_3,OB_4,AS_1,AS_2,AS_3,AS_4,schema_payoff,AC,performance,breakR,type,dwellmean_1,dwellmean_2,dwellmean_3,dwellmean_4
1,1,1,0,8,0.6700000000000004,2,6,113,30,22,119,2.450000000000002,0.7600000000000005,0.5000000000000002,0.36000000000000015,4,2,1,2,14,2,1,2,2,0,15,7,HL,0.17500000000000004,0.38000000000000017,0.5000000000000002,0.18000000000000002
1,1,2,0,4,0.6800000000000004,2,3,3,44,60,48,2.660000000000002,0.5300000000000002,0.38000000000000017,0.34000000000000014,5,1,1,2,6,1,1,2,2,0,20,7,HL,0.4433333333333335,0.5300000000000002,0.38000000000000017,0.17000000000000004
1,2,3,0,1,1.350000000000001,2,8,109,111,11,69,4.169999999999985,0.34000000000000014,0.26000000000000006,0.48000000000000026,4,1,2,1,13,1,2,1,5,0,14,7,HL,0.3207692307692309,0.34000000000000014,0.12999999999999998,0.48000000000000026
1,2,4,0,10,0.4400000000000002,1,2,23,13,51,14,1.8000000000000012,0.8400000000000005,0.5000000000000002,0.3300000000000001,3,2,1,1,6,5,1,1,6,0.5,22,7,HL,0.3000000000000001,0.16800000000000004,0.5000000000000002,0.3300000000000001
1,3,5,0,4,0.8400000000000005,3,7,97,83,31,3,2.730000000000002,1.1200000000000008,0.6600000000000004,0.49000000000000027,5,2,2,2,13,2,3,2,2,0,16,7,HL,0.21000000000000005,0.5600000000000003,0.22000000000000006,0.24500000000000005
1,3,6,0,3,0.3300000000000001,2,3,16,120,89,116,2.7399999999999927,0.6700000000000004,0.3300000000000001,0.19000000000000003,5,2,1,1,10,2,1,1,5,0,13,7,HL,0.27400000000000013,0.33500000000000013,0.3300000000000001,0.19000000000000003
1,4,7,0,5,0.6400000000000003,2,3,10,71,7,86,2.989999999999994,0.8100000000000005,0.8300000000000005,1.9600000000000015,5,2,2,3,11,4,2,4,6,0,19,7,HL,0.2718181818181819,0.20250000000000007,0.4150000000000002,0.49000000000000027
1,4,8,0,4,0.6900000000000004,5,7,23,99,14,16,2.520000000000002,0.5200000000000002,0.6600000000000004,5.089999999999936,7,1,1,4,12,1,1,7,2,0.5,20,7,HL,0.21000000000000008,0.5200000000000002,0.6600000000000004,0.7271428571428549
1,5,9,0,1,0.5300000000000002,2,3,69,92,89,64,3.219999999999987,0.8900000000000006,0.19000000000000003,0.3900000000000002,5,2,1,1,7,2,1,1,5,0,14,7,HL,0.46000000000000024,0.44500000000000023,0.19000000000000003,0.3900000000000002
1,5,10,0,10,1.350000000000001,17,20,20,21,23,45,2.4700000000000015,4.659999999999945,6.449999999999907,0.9800000000000006,18,7,8,3,21,9,16,3,6,0.5,23,7,HL,0.11761904761904765,0.5177777777777781,0.40312500000000023,0.3266666666666668
1,6,11,0,2,1.300000000000001,12,13,75,80,18,78,2.3100000000000014,0.6800000000000004,0.6100000000000003,0.7100000000000004,14,1,1,2,15,1,1,8,3,0.5,15,7,HL,0.15400000000000003,0.6800000000000004,0.6100000000000003,0.08875000000000001
1,6,12,0,3,0.4200000000000002,2,3,110,44,113,45,3.43999999999998,0.15,0.47000000000000025,0.10999999999999999,6,1,1,1,9,1,1,1,5,0,14,7,HL,0.3822222222222224,0.15,0.47000000000000025,0.10999999999999999
1,7,13,1,4,0.8100000000000005,2,5,97,98,61,63,1.8000000000000012,1.1000000000000008,0.6000000000000003,0.5100000000000002,4,1,3,2,7,1,3,2,2,0,12,7,HL,0.25714285714285723,1.1000000000000008,0.2000000000000001,0.25500000000000006
1,7,14,1,6,0.6300000000000003,2,4,85,110,116,112,3.789999999999977,0.2800000000000001,0.18000000000000002,0.13999999999999999,4,1,1,1,14,1,1,1,4,0.5,15,7,HL,0.27071428571428585,0.2800000000000001,0.18000000000000002,0.13999999999999999
1,8,15,1,3,0.3300000000000001,2,3,42,1,105,98,1.2000000000000006,1.7600000000000013,0.6700000000000004,0.8900000000000006,4,3,2,2,5,3,3,2,5,0,15,7,HL,0.2400000000000001,0.586666666666667,0.2233333333333334,0.4450000000000002
1,8,16,1,1,0.4200000000000002,2,3,83,28,66,33,2.1700000000000017,0.47000000000000025,0.4100000000000002,0.26000000000000006,3,2,1,1,4,2,1,1,5,0,17,7,HL,0.5425000000000003,0.2350000000000001,0.4100000000000002,0.26000000000000006
1,9,17,1,3,0.34000000000000014,2,3,44,64,74,97,1.720000000000001,1.360000000000001,0.8600000000000005,0.6600000000000004,4,3,2,1,6,5,2,1,5,0,14,7,HL,0.2866666666666668,0.27200000000000013,0.43000000000000016,0.6600000000000004
1,9,18,1,1,0.9300000000000006,7,9,27,34,115,86,1.7600000000000011,1.350000000000001,0.7500000000000004,0.25000000000000006,9,3,2,1,11,4,2,1,5,0,15,7,HL,0.16000000000000003,0.33750000000000013,0.37500000000000017,0.25000000000000006
1,10,19,1,7,0.4300000000000002,2,3,104,88,95,63,2.2600000000000016,0.4100000000000002,0.3200000000000001,0.2800000000000001,5,1,1,1,6,1,1,1,3,0,12,7,HL,0.37666666666666687,0.4100000000000002,0.3200000000000001,0.2800000000000001
1,10,20,1,3,0.6000000000000003,6,7,39,80,113,120,3.0099999999999927,0.7500000000000004,1.8300000000000014,0.08,10,2,3,1,15,2,4,1,5,0,12,7,HL,0.20066666666666674,0.37500000000000017,0.4575000000000003,0.08
1,11,21,1,6,0.5200000000000002,4,5,56,53,112,45,1.8700000000000012,0.48000000000000026,1.2300000000000009,1.9200000000000015,6,2,1,3,7,2,1,4,4,0,15,7,HL,0.26714285714285724,0.24000000000000007,1.2300000000000009,0.4800000000000003
1,11,22,1,7,0.25000000000000006,2,3,65,107,85,36,2.0500000000000016,1.300000000000001,0.10999999999999999,0.7500000000000004,4,2,1,2,5,3,1,2,3,0,14,7,HL,0.41000000000000025,0.43333333333333357,0.10999999999999999,0.37500000000000017
1,12,23,1,8,1.2400000000000009,4,5,42,115,41,69,2.660000000000002,1.0100000000000007,0.26000000000000006,0.3100000000000001,6,2,1,1,8,2,1,1,2,0,16,7,HL,0.33250000000000013,0.5050000000000002,0.26000000000000006,0.3100000000000001
1,12,24,1,1,0.5400000000000003,2,5,27,35,12,96,1.8100000000000012,0.7700000000000005,0.6700000000000004,1.490000000000001,4,1,1,2,9,1,1,2,5,0,19,7,HL,0.20111111111111116,0.7700000000000005,0.6700000000000004,0.7450000000000004
1,13,25,1,9,0.6000000000000003,2,5,38,68,77,73,2.0900000000000016,0.8900000000000006,0.34000000000000014,0.5500000000000003,5,2,1,2,8,3,2,4,4,0,15,7,HL,0.2612500000000001,0.29666666666666675,0.17000000000000004,0.1375
1,13,26,1,10,0.9300000000000006,14,15,22,13,31,55,2.910000000000002,0.7800000000000005,1.2200000000000009,0.4100000000000002,17,2,3,2,22,3,5,3,6,0,21,7,HL,0.13227272727272732,0.26000000000000006,0.2440000000000001,0.1366666666666667
1,14,27,1,6,1.1100000000000008,2,4,58,47,44,21,2.2700000000000014,0.6100000000000003,1.0000000000000007,0.36000000000000015,4,1,3,1,8,1,4,1,4,0,20,7,HL,0.2837500000000001,0.6100000000000003,0.2500000000000001,0.36000000000000015
1,14,28,1,7,0.24000000000000007,2,2,1,66,113,31,14.329999999999744,0.01,0.01,0.01,13,1,1,1,26,1,1,1,3,0,17,7,HL,0.5511538461538464,0.01,0.01,0.01
1,15,29,1,8,1.6400000000000012,13,17,8,62,116,9,3.0400000000000023,0.46000000000000024,7.169999999999892,1.1100000000000008,15,1,6,2,23,1,12,2,2,0,18,7,HL,0.13217391304347828,0.46000000000000024,0.5975000000000004,0.5550000000000004
1,15,30,1,7,0.6800000000000004,2,3,24,49,13,53,2.650000000000002,1.440000000000001,0.37000000000000016,1.1000000000000008,5,2,1,2,6,4,1,3,3,0,20,7,HL,0.44166666666666693,0.36000000000000015,0.37000000000000016,0.3666666666666668
1,16,31,1,8,2.0899999999999994,6,9,82,39,18,75,5.299999999999975,0.36000000000000015,0.4400000000000002,0.9800000000000006,10,1,2,2,17,1,2,2,2,0,17,7,HL,0.31176470588235305,0.36000000000000015,0.2200000000000001,0.4900000000000003
1,16,32,1,5,0.6800000000000004,12,12,31,54,6,59,4.889999999999955,3.179999999999976,0.01,0.01,18,3,1,1,23,3,1,1,6,0,19,7,HL,0.21260869565217402,1.0600000000000003,0.01,0.01
1,17,33,1,10,0.5600000000000003,2,3,55,15,17,23,2.6899999999999986,0.3900000000000002,10.789999999999814,0.01,4,1,11,1,8,1,20,1,6,0.5,40,7,HL,0.33625000000000016,0.3900000000000002,0.5394999999999999,0.01
1,17,34,1,9,0.20000000000000004,2,2,5,119,112,110,3.529999999999973,0.9400000000000006,0.4000000000000002,0.09,6,3,2,1,9,3,2,1,4,0.5,18,7,HL,0.3922222222222224,0.31333333333333346,0.20000000000000007,0.09
1,18,35,1,6,1.0800000000000007,2,4,60,42,59,18,1.9900000000000013,2.339999999999994,0.3200000000000001,0.36000000000000015,3,3,1,1,5,6,1,1,4,0,19,7,HL,0.3980000000000002,0.3900000000000002,0.3200000000000001,0.36000000000000015
1,18,36,1,1,0.34000000000000014,2,3,28,11,2,115,1.2700000000000007,1.5600000000000012,0.7800000000000005,0.13999999999999999,4,2,2,1,6,5,2,1,5,0,19,7,HL,0.21166666666666675,0.31200000000000017,0.3900000000000002,0.13999999999999999
1,19,37,1,1,0.4400000000000002,2,3,115,3,30,34,1.9800000000000013,0.9800000000000006,0.6300000000000003,0.25000000000000006,5,2,2,2,8,3,3,2,5,0,18,7,HL,0.24750000000000008,0.3266666666666668,0.21000000000000005,0.12499999999999997
1,19,38,1,3,0.45000000000000023,4,5,43,59,14,100,2.2800000000000016,1.1100000000000008,2.109999999999999,0.20000000000000004,6,3,5,1,10,3,5,1,5,0,17,7,HL,0.2280000000000001,0.3700000000000002,0.42200000000000026,0.20000000000000004
1,20,39,1,6,2.4099999999999926,5,8,52,117,58,13,4.699999999999988,0.03,0.46000000000000024,0.49000000000000027,7,1,1,2,12,1,1,3,4,0,16,7,HL,0.3916666666666669,0.03,0.46000000000000024,0.16333333333333336
1,20,40,1,5,1.1500000000000008,14,15,11,45,70,37,3.1400000000000023,1.5100000000000011,2.5499999999999896,0.6800000000000004,16,4,4,2,24,4,4,2,6,0,20,7,HL,0.13083333333333336,0.37750000000000017,0.6375000000000004,0.3400000000000002
1,21,41,1,2,0.6700000000000004,4,5,46,43,82,42,1.9400000000000013,1.0500000000000007,0.2800000000000001,0.2900000000000001,5,2,1,2,6,2,1,2,3,0.5,33,7,HL,0.3233333333333335,0.5250000000000002,0.2800000000000001,0.14500000000000005
1,21,42,1,6,1.500000000000001,3,10,28,36,33,12,3.1800000000000024,2.619999999999988,5.8599999999999195,0.01,7,5,8,1,14,6,8,1,4,0.5,36,7,HL,0.22714285714285723,0.43666666666666687,0.7324999999999982,0.01
2,1,1,0,7,0.13999999999999999,2,4,94,89,46,100,0.9500000000000005,0.6000000000000003,0.8700000000000006,0.3900000000000002,4,2,2,2,9,7,12,3,3,0,13,7,HL,0.1055555555555556,0.08571428571428573,0.07250000000000001,0.13
2,1,2,0,5,0.23000000000000007,2,4,11,3,36,5,1.650000000000001,0.18000000000000002,0.4400000000000002,0.21000000000000005,4,1,2,2,22,1,2,4,6,0.5,23,7,HL,0.075,0.18000000000000002,0.22000000000000003,0.0525
2,2,3,0,2,0.17,2,6,76,33,31,102,1.0900000000000005,1.0600000000000007,0.4400000000000002,0.060000000000000005,4,2,2,1,12,9,6,1,3,0,15,7,HL,0.09083333333333335,0.11777777777777779,0.07333333333333333,0.060000000000000005
2,2,4,0,10,0.2900000000000001,2,5,16,13,109,87,1.1500000000000006,7.109999999999893,0.03,0.15,5,16,2,2,17,57,2,3,6,0,17,7,HL,0.06764705882352942,0.12473684210526317,0.015,0.04999999999999999
2,3,5,0,3,0.23000000000000007,2,4,39,24,84,72,1.0600000000000005,0.8200000000000005,0.6500000000000004,1.260000000000001,4,2,2,2,15,11,6,14,5,0,18,7,HL,0.07066666666666667,0.07454545454545455,0.10833333333333335,0.09000000000000001
2,3,6,0,5,0.21000000000000005,3,4,5,2,115,6,1.530000000000001,0.23000000000000007,0.15,0.49000000000000027,5,2,1,2,20,9,1,8,6,0.5,20,7,HL,0.0765,0.025555555555555557,0.15,0.06125
2,4,7,0,9,0.22000000000000006,2,6,65,24,62,69,1.610000000000001,0.2700000000000001,0.35000000000000014,0.3200000000000001,4,2,2,3,18,3,4,4,4,0.5,18,7,HL,0.08944444444444445,0.08999999999999998,0.0875,0.07999999999999999
2,4,8,0,8,0.09999999999999999,2,3,116,113,112,11,1.270000000000001,0.3000000000000001,0.6900000000000004,0.2800000000000001,4,2,3,2,15,3,6,2,2,0.5,12,7,HL,0.08466666666666668,0.09999999999999999,0.11500000000000003,0.14000000000000004
2,5,9,0,4,0.17,4,4,101,103,22,95,0.8600000000000004,0.45000000000000023,1.0400000000000007,0.36000000000000015,6,2,2,2,13,9,8,4,2,0,13,7,HL,0.06615384615384616,0.05,0.13,0.09
2,5,10,0,6,0.16,2,3,54,52,7,41,1.7700000000000011,0.3000000000000001,0.17,0.5700000000000003,7,2,1,2,18,3,1,4,4,0,19,7,HL,0.09833333333333334,0.1,0.17,0.14250000000000004
2,6,11,0,8,0.11999999999999998,2,2,118,117,86,24,1.1400000000000006,0.47000000000000025,0.22000000000000006,0.3000000000000001,4,2,2,1,11,5,2,1,2,0,13,7,HL,0.10363636363636365,0.094,0.11000000000000003,0.3000000000000001
2,6,12,0,3,0.2900000000000001,3,7,38,47,3,76,1.4400000000000008,0.3100000000000001,0.35000000000000014,0.8100000000000005,5,2,2,2,19,3,3,5,5,0,19,7,HL,0.07578947368421053,0.10333333333333335,0.11666666666666668,0.16200000000000003
2,7,13,1,8,0.3000000000000001,5,5,114,118,120,13,1.2100000000000006,0.5300000000000002,0.23000000000000007,0.36000000000000015,7,2,2,3,15,9,5,9,2,0.5,18,7,HL,0.08066666666666668,0.058888888888888886,0.046,0.04
2,7,14,1,9,0.08,1,2,80,68,76,3,1.2500000000000009,0.16,0.48000000000000026,0.11999999999999998,5,2,2,1,15,3,6,1,4,0,16,7,HL,0.08333333333333333,0.05333333333333333,0.08000000000000002,0.11999999999999998
2,8,15,1,3,0.3100000000000001,2,3,3,48,37,75,1.3900000000000008,0.7000000000000004,0.060000000000000005,0.4000000000000002,4,4,1,3,12,7,1,3,5,0,19,7,HL,0.11583333333333336,0.1,0.060000000000000005,0.13333333333333336
2,8,16,1,10,0.09,2,3,13,14,95,68,1.290000000000001,0.08,1.7400000000000013,0.11999999999999998,5,1,4,2,17,1,25,2,6,0,19,7,HL,0.07588235294117647,0.08,0.06960000000000001,0.06
2,9,17,1,4,0.16,2,3,81,82,106,102,0.8800000000000004,0.6000000000000003,0.09,0.15,4,2,2,1,10,6,3,1,2,0,10,7,HL,0.08800000000000001,0.1,0.03,0.15
2,9,18,1,1,0.11999999999999998,2,3,34,114,119,26,1.4600000000000009,0.2900000000000001,0.09999999999999999,0.2700000000000001,5,2,1,2,20,4,1,4,5,0,14,7,HL,0.07300000000000001,0.0725,0.09999999999999999,0.0675
2,10,19,1,5,0.10999999999999999,2,2,3,7,87,2,0.9900000000000005,0.38000000000000017,0.26000000000000006,0.7400000000000004,4,3,3,2,9,7,4,7,6,0.5,39,7,HL,0.11000000000000001,0.0542857142857143,0.065,0.10571428571428575
2,10,20,1,8,0.18000000000000002,2,2,16,113,17,83,5.809999999999924,0.01,0.02,0.01,8,1,1,1,50,1,1,1,2,0,17,7,HL,0.11620000000000001,0.01,0.02,0.01
2,11,21,1,7,0.4100000000000002,3,8,90,37,117,40,1.650000000000001,1.0600000000000007,0.16,0.3200000000000001,5,3,3,4,22,17,4,6,3,0,15,7,HL,0.075,0.06235294117647059,0.04,0.05333333333333334
2,11,22,1,1,0.45000000000000023,4,8,20,34,72,67,9.809999999999846,0.01,0.02,0.02,20,1,1,1,108,1,1,1,5,0,19,7,HL,0.09083333333333334,0.01,0.02,0.02
2,12,23,1,3,0.21000000000000005,3,7,45,8,10,48,1.1500000000000006,1.260000000000001,0.5100000000000002,0.2700000000000001,5,4,2,3,17,11,6,3,5,0,22,7,HL,0.06764705882352941,0.11454545454545455,0.085,0.09000000000000001
2,12,24,1,1,0.2800000000000001,2,3,32,110,73,28,1.9500000000000013,0.3300000000000001,0.25000000000000006,0.07,5,2,3,1,22,2,4,1,5,0,15,7,HL,0.08863636363636364,0.16500000000000004,0.06249999999999999,0.07
2,13,25,1,7,0.21000000000000005,3,4,45,90,12,41,1.4900000000000009,0.07,0.9800000000000006,0.20000000000000004,5,1,2,3,15,1,12,4,3,0,19,7,HL,0.09933333333333334,0.07,0.08166666666666667,0.05
2,13,26,1,6,0.11999999999999998,2,2,52,58,49,74,1.2200000000000006,0.2700000000000001,0.47000000000000025,0.5900000000000003,4,2,4,5,12,3,7,7,4,0.5,27,7,HL,0.10166666666666667,0.08999999999999998,0.06714285714285714,0.08428571428571428
2,14,27,1,1,0.20000000000000004,2,7,25,33,34,101,0.7600000000000003,0.6200000000000003,1.0400000000000007,0.7200000000000004,4,2,7,3,12,5,12,4,5,0.5,32,7,HL,0.06333333333333334,0.12400000000000003,0.08666666666666668,0.18000000000000005
2,14,28,1,6,0.46000000000000024,4,6,54,89,117,3,1.2600000000000007,0.38000000000000017,0.8000000000000005,0.08,6,2,3,1,10,4,15,1,4,0,15,7,HL,0.12600000000000003,0.09500000000000003,0.05333333333333334,0.08
2,15,29,1,7,0.15,2,4,90,5,87,8,1.2400000000000007,0.6100000000000003,0.4100000000000002,0.37000000000000016,5,4,3,2,14,7,6,4,3,0,18,7,HL,0.08857142857142859,0.08714285714285713,0.06833333333333333,0.09250000000000001
2,15,30,1,1,0.09,2,3,26,16,83,19,0.7900000000000004,0.7900000000000005,0.7000000000000004,0.15,4,4,4,2,13,12,10,2,5,0,20,7,HL,0.06076923076923077,0.06583333333333334,0.07,0.075
2,16,31,1,9,0.5900000000000003,2,12,70,92,26,64,1.4200000000000008,0.5600000000000003,0.3100000000000001,0.03,4,2,2,1,20,3,2,1,4,0,16,7,HL,0.07100000000000001,0.1866666666666667,0.155,0.03
2,16,32,1,3,0.16,3,3,15,38,46,80,4.819999999999945,0.01,0.01,0.01,15,1,1,1,48,1,1,1,5,0,19,7,HL,0.10041666666666668,0.01,0.01,0.01
2,17,33,1,8,0.19000000000000003,2,3,111,6,93,11,0.6200000000000002,1.0400000000000007,0.7200000000000004,0.11999999999999998,4,4,2,2,5,9,7,3,2,0,17,7,HL,0.12400000000000004,0.11555555555555556,0.10285714285714286,0.04
2,17,34,1,10,0.08,2,3,16,21,63,69,0.8800000000000004,0.4000000000000002,0.4300000000000002,0.15,4,2,2,1,14,7,2,1,6,0,20,7,HL,0.06285714285714286,0.05714285714285714,0.21500000000000002,0.15
2,18,35,1,2,0.21000000000000005,2,3,73,28,25,75,1.1200000000000006,1.0100000000000007,0.5700000000000003,0.04,6,2,3,1,11,5,5,1,3,0,16,7,HL,0.10181818181818182,0.20200000000000004,0.114,0.04
2,18,36,1,8,0.12999999999999998,3,3,116,115,110,40,1.1300000000000006,0.16,0.2700000000000001,0.3300000000000001,5,1,4,2,13,1,5,3,2,0.5,17,7,HL,0.08692307692307694,0.16,0.054,0.11000000000000001
2,19,37,1,10,0.4000000000000002,6,6,18,36,23,93,1.9300000000000013,0.4300000000000002,0.10999999999999999,0.5300000000000002,8,2,1,3,25,2,1,5,6,0,20,7,HL,0.0772,0.2150000000000001,0.10999999999999999,0.10600000000000001
2,19,38,1,5,0.25000000000000006,6,8,7,3,6,1,0.9900000000000004,0.26000000000000006,0.5700000000000003,1.9400000000000015,9,2,4,6,16,3,6,13,6,1,72,7,HL,0.061875,0.08666666666666667,0.095,0.14923076923076928
2,20,39,1,6,0.18000000000000002,4,4,53,55,60,111,1.660000000000001,0.08,1.6600000000000013,0.3100000000000001,6,1,11,5,22,1,16,5,4,0.5,26,7,HL,0.07545454545454545,0.08,0.10375000000000001,0.062
2,20,40,1,9,0.4200000000000002,6,9,106,66,69,4,1.8500000000000012,0.12999999999999998,0.02,0.3300000000000001,9,2,1,3,22,3,1,5,4,0,16,7,HL,0.0840909090909091,0.043333333333333335,0.02,0.066
2,21,41,1,1,0.22000000000000006,2,6,31,29,1,4,1.690000000000001,0.10999999999999999,0.22000000000000006,0.34000000000000014,4,1,1,3,27,1,1,3,5,0,22,7,HL,0.06259259259259259,0.10999999999999999,0.22000000000000006,0.11333333333333336
2,21,42,1,3,0.04,2,3,48,63,47,68,0.41000000000000014,0.6200000000000003,0.10999999999999999,0.7700000000000005,4,4,1,8,5,8,1,9,5,0,18,7,HL,0.08200000000000002,0.07750000000000001,0.10999999999999999,0.08555555555555555
2,22,43,1,9,0.04,2,2,64,70,66,71,0.7400000000000004,0.09,0.46000000000000024,0.38000000000000017,4,1,3,4,13,1,4,7,4,1,48,7,HL,0.056923076923076923,0.09,0.115,0.054285714285714284
2,22,44,1,2,0.4300000000000002,3,7,73,77,47,7,1.4800000000000009,0.13999999999999999,0.04,0.49000000000000027,5,2,1,2,17,3,1,3,3,0,17,7,HL,0.08705882352941177,0.04666666666666667,0.04,0.16333333333333336
3,1,1,0,9,0.15,2,3,89,65,102,48,0.4700000000000001,0.060000000000000005,0.07,0.05,3,1,1,1,4,1,1,1,4,0,14,7,HL,0.11750000000000003,0.060000000000000005,0.07,0.05
3,1,2,0,1,0.25000000000000006,7,7,25,109,52,120,0.5400000000000001,0.20000000000000004,0.03,0.9900000000000007,8,2,1,2,8,2,1,2,5,0,13,7,HL,0.06750000000000002,0.09999999999999999,0.03,0.49500000000000033
3,2,3,0,4,0.18000000000000002,3,3,97,103,105,106,0.4700000000000001,0.08,6.649999999999903,10.139999999999828,5,1,9,11,6,1,14,18,2,1,24,7,HL,0.07833333333333334,0.08,0.47499999999999953,0.5633333333333337
3,2,4,0,9,0.25000000000000006,7,8,66,35,111,14,0.4800000000000001,0.13999999999999999,0.12999999999999998,0.060000000000000005,8,1,1,1,9,1,1,1,4,0,17,7,HL,0.053333333333333344,0.13999999999999999,0.12999999999999998,0.060000000000000005
3,3,5,0,5,0.23000000000000007,7,7,5,9,3,118,0.4800000000000001,1.5500000000000012,12.969999999999768,0.01,8,3,14,1,8,3,25,1,6,0.5,20,7,HL,0.06000000000000001,0.516666666666667,0.5188000000000003,0.01
3,3,6,0,6,0.12999999999999998,2,3,56,49,14,99,0.36000000000000004,0.12999999999999998,0.12999999999999998,0.07,4,1,1,1,5,1,1,1,4,0,16,7,HL,0.07200000000000001,0.12999999999999998,0.12999999999999998,0.07
3,4,7,0,1,0.12999999999999998,2,4,60,31,51,52,0.4600000000000001,0.09,0.09999999999999999,0.060000000000000005,3,1,1,1,5,1,1,1,5,0.5,17,7,HL,0.09200000000000003,0.09,0.09999999999999999,0.060000000000000005
3,4,8,0,8,0.13999999999999999,2,3,109,67,37,42,0.4700000000000001,0.12999999999999998,0.10999999999999999,0.02,4,1,2,1,5,1,2,1,2,0,16,7,HL,0.094,0.12999999999999998,0.055,0.02
3,5,9,0,9,0.21000000000000005,2,5,61,71,77,44,0.5100000000000001,0.060000000000000005,0.18000000000000002,0.03,3,1,1,1,6,1,1,1,4,0,16,7,HL,0.08500000000000002,0.060000000000000005,0.18000000000000002,0.03
3,5,10,0,4,0.13999999999999999,2,3,97,54,36,12,0.41000000000000003,0.24000000000000007,2.9699999999999807,0.01,4,2,2,1,5,3,3,1,2,0,17,7,HL,0.082,0.08000000000000002,0.9899999999999954,0.01
3,6,11,0,6,0.17,2,3,59,116,92,110,0.5100000000000001,1.430000000000001,0.8100000000000005,0.01,4,3,4,1,5,4,4,1,4,0,11,7,HL,0.10200000000000001,0.3575000000000002,0.20250000000000007,0.01
3,6,12,0,1,0.16,3,3,106,15,65,77,6.9199999999999005,3.649999999999966,0.01,0.01,17,7,1,1,21,10,1,1,5,0,15,7,HL,0.3295238095238097,0.36500000000000016,0.01,0.01
3,7,13,1,9,0.24000000000000007,7,7,69,8,3,116,0.5300000000000001,1.0300000000000007,0.01,0.35000000000000014,8,4,1,2,8,5,1,2,4,0,18,7,HL,0.06625000000000002,0.20600000000000007,0.01,0.17500000000000004
3,7,14,1,1,0.15,2,3,36,26,18,103,0.39000000000000007,0.09999999999999999,0.11999999999999998,0.05,4,1,1,1,5,1,1,1,5,0,18,7,HL,0.078,0.09999999999999999,0.11999999999999998,0.05
3,8,15,1,1,0.2700000000000001,5,8,32,54,53,22,0.5900000000000002,0.09999999999999999,0.15,0.05,7,1,1,1,10,1,1,1,5,0,19,7,HL,0.05900000000000001,0.09999999999999999,0.15,0.05
3,8,16,1,8,0.15,2,3,87,110,63,112,0.6100000000000002,0.02,0.10999999999999999,0.01,4,1,2,1,6,1,2,1,2,0,11,7,HL,0.10166666666666668,0.02,0.05500000000000001,0.01
3,9,17,1,3,0.17,3,4,49,81,75,117,0.8700000000000004,0.02,0.03,0.02,4,1,2,2,5,1,2,2,5,0,12,7,HL,0.17400000000000007,0.02,0.015,0.01
3,9,18,1,9,0.17,4,5,66,24,15,32,0.4800000000000001,0.6600000000000004,0.01,0.01,6,2,1,1,7,2,1,1,4,0,21,7,HL,0.06857142857142857,0.3300000000000002,0.01,0.01
3,10,19,1,6,0.22000000000000006,6,6,54,58,40,14,0.5200000000000001,0.05,0.15,0.04,8,1,1,1,8,1,1,1,4,0,19,7,HL,0.065,0.05,0.15,0.04
3,10,20,1,1,0.13999999999999999,2,3,2,5,84,63,0.6400000000000002,0.17,0.07,0.02,3,1,3,1,4,1,3,1,5,0,19,7,HL,0.16000000000000006,0.17,0.023333333333333334,0.02
3,11,21,1,3,0.10999999999999999,2,3,37,117,3,110,0.3500000000000001,0.18000000000000002,0.11999999999999998,0.03,4,1,1,1,5,1,1,1,5,0,15,7,HL,0.07,0.18000000000000002,0.11999999999999998,0.03
3,11,22,1,2,0.20000000000000004,2,3,31,63,23,104,1.4400000000000008,0.01,0.03,0.01,4,1,1,1,5,1,1,1,3,0,17,7,HL,0.28800000000000014,0.01,0.03,0.01
3,12,23,1,6,0.2700000000000001,8,10,55,108,52,21,0.4800000000000001,0.20000000000000004,0.03,0.48000000000000026,9,2,1,2,11,2,1,2,4,0,16,7,HL,0.04363636363636364,0.09999999999999999,0.03,0.24000000000000013
3,12,24,1,8,0.15,2,4,67,70,111,66,0.5800000000000002,0.23000000000000007,0.02,0.01,3,1,1,1,5,1,1,1,2,0.5,26,7,HL,0.11600000000000005,0.23000000000000007,0.02,0.01
3,13,25,1,9,0.18000000000000002,2,3,62,67,110,114,0.5600000000000002,0.10999999999999999,0.060000000000000005,0.04,4,1,1,1,5,1,1,1,4,0,12,7,HL,0.112,0.10999999999999999,0.060000000000000005,0.04
3,13,26,1,3,0.15,2,4,48,74,60,106,0.45000000000000007,0.18000000000000002,0.2800000000000001,0.03,4,1,1,1,6,1,1,1,5,0,14,7,HL,0.07500000000000001,0.18000000000000002,0.2800000000000001,0.03
3,14,27,1,7,0.19000000000000003,6,7,96,63,91,64,0.4700000000000001,0.23000000000000007,0.04,0.04,7,2,1,1,8,2,1,1,3,0,14,7,HL,0.05875000000000001,0.11499999999999999,0.04,0.04
3,14,28,1,6,0.2900000000000001,6,8,80,53,119,2,0.6800000000000003,0.07,0.05,0.03,8,1,2,1,11,1,2,1,4,0,15,7,HL,0.06181818181818183,0.07,0.025,0.03
3,15,29,1,6,0.15,2,3,58,51,81,17,0.41000000000000003,0.13999999999999999,0.07,0.060000000000000005,3,1,1,1,5,1,1,1,4,0,17,7,HL,0.08199999999999999,0.13999999999999999,0.07,0.060000000000000005
3,15,30,1,5,0.16,2,5,5,3,46,110,0.5200000000000001,2.679999999999987,0.01,0.01,4,3,1,1,9,3,1,1,6,0,19,7,HL,0.05777777777777778,0.893333333333334,0.01,0.01
3,16,31,1,1,0.09,2,3,68,105,100,26,0.7900000000000004,0.01,0.02,0.01,4,1,1,1,5,1,1,1,5,0,13,7,HL,0.15800000000000008,0.01,0.02,0.01
3,16,32,1,2,0.22000000000000006,6,6,40,120,73,115,1.0300000000000005,0.060000000000000005,0.5300000000000002,0.01,8,2,2,1,8,2,2,1,3,0,12,7,HL,0.12875000000000006,0.030000000000000002,0.2650000000000001,0.01
3,17,33,1,1,0.08,1,2,88,36,100,30,0.44000000000000017,0.05,0.8800000000000006,0.01,2,1,3,1,3,1,3,1,5,0,15,7,HL,0.14666666666666672,0.05,0.29333333333333345,0.01
3,17,34,1,10,0.24000000000000007,7,7,14,15,17,111,0.5400000000000001,1.6100000000000012,0.9500000000000006,0.01,9,2,3,1,9,2,3,1,6,0.5,38,7,HL,0.06,0.8050000000000006,0.3166666666666668,0.01
3,18,35,1,4,0.16,2,3,37,4,94,88,0.5500000000000002,0.5400000000000003,0.01,0.01,3,2,1,1,4,2,1,1,2,0,17,7,HL,0.13750000000000004,0.2700000000000001,0.01,0.01
3,18,36,1,1,0.10999999999999999,2,2,14,25,26,17,10.669999999999819,0.01,0.07,0.01,18,1,1,1,27,1,1,1,5,0,22,7,HL,0.3951851851851854,0.01,0.07,0.01
3,19,37,1,2,0.12999999999999998,2,3,105,32,36,11,0.5400000000000001,0.07,0.09,0.08,3,1,1,2,4,1,1,2,3,0,18,7,HL,0.13500000000000004,0.07,0.09,0.04
3,19,38,1,3,0.2800000000000001,4,4,13,113,18,41,6.069999999999921,0.01,0.04,0.01,13,1,1,1,17,1,1,1,5,0,19,7,HL,0.35705882352941143,0.01,0.04,0.01
3,20,39,1,3,0.15,2,3,78,46,79,12,0.5400000000000001,0.07,0.05,0.08,3,1,1,1,4,1,1,1,5,0,17,7,HL,0.13500000000000004,0.07,0.05,0.08
3,20,40,1,1,0.12999999999999998,2,3,29,95,52,93,0.45000000000000007,0.17,0.10999999999999999,0.07,4,1,2,1,5,1,2,1,5,0,15,7,HL,0.09000000000000001,0.17,0.05500000000000001,0.07
3,21,41,1,2,0.12999999999999998,2,3,22,83,16,49,0.7500000000000003,0.01,0.02,0.060000000000000005,4,1,1,1,6,1,1,1,3,0,19,7,HL,0.12500000000000003,0.01,0.02,0.060000000000000005
3,21,42,1,4,0.12999999999999998,2,3,107,101,97,6,0.44000000000000006,0.07,0.2800000000000001,0.02,4,1,2,1,5,1,2,1,2,0.5,18,7,HL,0.08800000000000001,0.07,0.14000000000000004,0.02
3,22,43,1,3,0.2800000000000001,2,3,98,9,100,47,2.0100000000000016,0.01,0.02,0.01,5,1,1,1,6,1,1,1,5,0,15,7,HL,0.3350000000000002,0.01,0.02,0.01
3,22,44,1,10,0.19000000000000003,2,2,13,22,83,120,0.4000000000000001,0.11999999999999998,0.16,0.07,3,1,1,1,3,1,1,1,6,0,17,7,HL,0.13333333333333336,0.11999999999999998,0.16,0.07
4,1,1,0,7,0.18000000000000002,2,3,88,116,92,20,0.5500000000000002,0.2700000000000001,0.04,0.05,4,2,1,2,9,2,1,2,3,0,14,7,HL,0.06111111111111111,0.13499999999999998,0.04,0.025
4,1,2,0,2,0.18000000000000002,2,4,84,6,103,66,0.5600000000000002,0.20000000000000004,0.09,0.060000000000000005,5,2,2,1,8,4,2,1,3,0,15,7,HL,0.06999999999999999,0.049999999999999996,0.045,0.060000000000000005
4,2,3,0,9,0.20000000000000004,2,6,63,115,71,8,0.5400000000000001,0.22000000000000006,0.05,0.07,4,2,1,1,8,2,1,1,4,0,16,7,HL,0.0675,0.11,0.05,0.07
4,2,4,0,10,0.18000000000000002,2,3,23,82,30,49,0.7300000000000003,0.05,0.08,0.07,5,1,2,1,7,1,2,1,6,0,18,7,HL,0.1042857142857143,0.05,0.04,0.07
4,3,5,0,1,0.19000000000000003,2,4,27,60,54,77,0.5300000000000001,0.23000000000000007,0.16,0.060000000000000005,4,2,2,2,6,3,2,2,5,0,16,7,HL,0.08833333333333333,0.07666666666666666,0.08,0.03
4,3,6,0,4,0.17,2,3,98,66,103,48,0.5600000000000002,0.19000000000000003,0.05,0.23000000000000007,4,1,1,2,5,1,1,2,2,0,13,7,HL,0.11200000000000002,0.19000000000000003,0.05,0.11500000000000002
4,4,7,0,4,0.10999999999999999,1,2,101,78,108,52,0.4100000000000001,0.21000000000000005,0.060000000000000005,0.16,3,1,1,2,4,1,1,3,2,0,11,7,HL,0.10250000000000002,0.21000000000000005,0.060000000000000005,0.05333333333333334
4,4,8,0,1,0.18000000000000002,3,4,31,5,69,32,0.5800000000000002,0.36000000000000015,0.01,0.01,5,3,1,1,10,4,1,1,5,0,20,7,HL,0.057999999999999996,0.09000000000000001,0.01,0.01
4,5,9,0,9,0.19000000000000003,2,4,20,66,61,98,0.7300000000000003,0.03,0.060000000000000005,0.04,5,1,1,1,7,1,1,1,4,0,16,7,HL,0.1042857142857143,0.03,0.060000000000000005,0.04
4,5,10,0,5,0.13999999999999999,2,3,10,73,58,39,0.6300000000000002,0.05,0.34000000000000014,0.6100000000000003,5,1,2,2,8,1,2,2,6,0,18,7,HL,0.07875,0.05,0.17000000000000004,0.3050000000000001
4,6,11,0,6,0.3100000000000001,3,6,50,116,17,81,0.6000000000000002,0.3300000000000001,0.03,0.04,5,3,1,1,9,4,1,1,4,0,15,7,HL,0.06666666666666667,0.08249999999999999,0.03,0.04
4,6,12,0,4,0.17,2,3,108,102,61,97,0.5300000000000001,0.12999999999999998,0.07,0.05,5,1,1,1,7,1,1,1,2,0.5,10,7,HL,0.07571428571428572,0.12999999999999998,0.07,0.05
4,7,13,1,2,0.16,2,3,84,75,112,64,0.5200000000000001,0.17,0.060000000000000005,0.05,4,2,2,1,7,2,2,1,3,0,12,7,HL,0.0742857142857143,0.08499999999999999,0.03,0.05
4,7,14,1,7,0.18000000000000002,3,5,87,32,85,16,0.6200000000000002,0.10999999999999999,0.04,0.04,5,1,1,1,7,1,1,1,3,0,17,7,HL,0.08857142857142859,0.10999999999999999,0.04,0.04
4,8,15,1,7,0.20000000000000004,3,6,90,18,111,95,0.45000000000000007,0.13999999999999999,0.18000000000000002,0.8700000000000006,5,2,2,5,8,2,2,5,3,0,14,7,HL,0.05625000000000001,0.06999999999999999,0.09,0.17400000000000004
4,8,16,1,9,0.12999999999999998,2,3,83,84,69,6,0.9400000000000005,0.060000000000000005,0.16,0.01,5,1,2,1,6,1,2,1,4,0,16,7,HL,0.15666666666666673,0.060000000000000005,0.08,0.01
4,9,17,1,7,0.13999999999999999,2,3,88,19,62,89,0.4900000000000001,0.3000000000000001,0.12999999999999998,0.3000000000000001,5,2,2,2,8,2,2,4,3,0,16,7,HL,0.06125,0.15000000000000002,0.065,0.075
4,9,18,1,2,0.34000000000000014,3,4,81,74,44,120,0.5400000000000001,0.24000000000000007,0.36000000000000015,0.02,4,2,3,2,5,3,4,2,3,0,13,7,HL,0.108,0.07999999999999999,0.09000000000000001,0.01
4,10,19,1,9,0.3200000000000001,7,9,77,69,37,99,0.6300000000000002,0.26000000000000006,0.02,0.5900000000000003,8,2,1,3,10,2,1,6,4,0,14,7,HL,0.06300000000000001,0.13,0.02,0.09833333333333337
4,10,20,1,6,0.48000000000000026,3,5,110,92,95,116,0.7900000000000004,0.2900000000000001,0.09999999999999999,0.01,5,2,2,1,8,2,2,1,4,0,10,7,HL,0.09875000000000003,0.14500000000000002,0.05,0.01
4,11,21,1,5,0.13999999999999999,2,3,109,119,34,53,0.6200000000000002,0.060000000000000005,0.060000000000000005,0.7200000000000004,4,1,3,4,8,1,3,4,6,0,13,7,HL,0.0775,0.060000000000000005,0.02,0.18000000000000008
4,11,22,1,3,0.24000000000000007,2,6,42,65,64,18,0.5200000000000001,0.17,0.09,0.07,4,1,2,1,8,1,3,1,5,0,19,7,HL,0.065,0.17,0.030000000000000002,0.07
4,12,23,1,4,0.15,2,5,98,32,60,91,0.5800000000000002,0.18000000000000002,0.060000000000000005,0.09999999999999999,4,2,2,2,10,4,2,2,2,0,14,7,HL,0.057999999999999996,0.045,0.030000000000000002,0.05
4,12,24,1,8,0.19000000000000003,2,3,119,38,76,11,0.7000000000000003,0.18000000000000002,0.02,0.02,6,2,1,1,7,2,1,1,2,0,16,7,HL,0.1,0.09,0.02,0.02
4,13,25,1,4,0.16,2,4,71,105,28,36,0.7600000000000003,0.07,0.11999999999999998,0.25000000000000006,5,1,3,2,7,1,3,2,2,0,16,7,HL,0.10857142857142858,0.07,0.039999999999999994,0.12500000000000003
4,13,26,1,5,0.16,3,4,9,1,10,88,0.5600000000000002,3.93999999999996,0.20000000000000004,0.01,5,9,2,1,8,12,2,1,6,0.5,39,7,HL,0.06999999999999999,0.3283333333333335,0.10000000000000002,0.01
4,14,27,1,9,0.16,2,3,72,99,100,85,3.9299999999999637,0.01,0.02,0.02,15,1,1,2,30,1,1,2,4,0,11,7,HL,0.13100000000000003,0.01,0.02,0.01
4,14,28,1,8,0.15,2,3,10,11,81,115,0.5600000000000002,0.09,0.26000000000000006,0.01,4,1,3,1,6,1,3,1,2,0,17,7,HL,0.09333333333333335,0.09,0.08666666666666667,0.01
4,15,29,1,9,0.12999999999999998,2,3,64,29,25,96,0.4700000000000001,0.18000000000000002,0.19000000000000003,0.03,4,1,2,1,5,1,2,1,4,0,17,7,HL,0.094,0.18000000000000002,0.095,0.03
4,15,30,1,6,0.6300000000000003,4,8,1,103,38,3,0.9800000000000004,0.20000000000000004,0.08,2.149999999999998,5,2,1,9,9,2,1,13,4,0,19,7,HL,0.10888888888888891,0.09999999999999999,0.08,0.16538461538461544
4,16,31,1,3,0.23000000000000007,2,3,67,96,94,42,1.0200000000000005,0.26000000000000006,0.01,0.03,5,2,1,1,7,2,1,1,5,0,15,7,HL,0.14571428571428574,0.13000000000000003,0.01,0.03
4,16,32,1,8,0.6900000000000004,5,8,26,49,34,84,0.9700000000000004,0.12999999999999998,0.23000000000000007,0.02,6,1,3,1,9,1,3,1,2,0,17,7,HL,0.1077777777777778,0.12999999999999998,0.07666666666666667,0.02
4,17,33,1,2,1.8400000000000014,8,16,81,80,116,83,2.0200000000000014,0.6300000000000003,0.2700000000000001,0.7400000000000004,10,4,3,3,20,5,3,3,3,0.5,20,7,HL,0.10100000000000002,0.12600000000000003,0.09000000000000002,0.24666666666666678
4,17,34,1,3,0.18000000000000002,2,3,45,37,14,46,0.4700000000000001,0.19000000000000003,0.15,0.08,4,1,2,2,5,1,3,2,5,0.5,36,7,HL,0.09400000000000001,0.19000000000000003,0.05,0.04
4,18,35,1,3,0.18000000000000002,2,4,37,44,10,4,0.6600000000000003,0.04,0.47000000000000025,0.01,5,1,4,1,7,1,4,1,5,0,22,7,HL,0.09428571428571429,0.04,0.11750000000000002,0.01
4,18,36,1,4,0.12999999999999998,3,5,23,74,82,30,0.5400000000000001,0.22000000000000006,0.09999999999999999,0.02,7,2,3,2,9,3,3,2,2,0,17,7,HL,0.060000000000000005,0.07333333333333332,0.03333333333333333,0.01
4,19,37,1,6,0.13999999999999999,2,3,53,43,58,82,0.43000000000000005,0.20000000000000004,0.04,0.17,5,2,1,1,7,2,1,1,4,0,16,7,HL,0.06142857142857144,0.09999999999999999,0.04,0.17
4,19,38,1,7,0.15,2,3,92,85,30,90,0.5900000000000002,0.24000000000000007,0.11999999999999998,0.01,4,2,2,1,6,3,2,1,3,0.5,23,7,HL,0.09833333333333334,0.08,0.060000000000000005,0.01
4,20,39,1,2,0.24000000000000007,2,3,79,2,55,53,0.6800000000000003,0.09999999999999999,0.04,0.16,4,2,1,2,6,2,1,2,3,0,17,7,HL,0.11333333333333334,0.05,0.04,0.07999999999999999
4,20,40,1,7,0.20000000000000004,2,3,94,32,88,20,0.7300000000000003,0.19000000000000003,0.03,0.04,6,2,1,1,9,3,1,1,3,0,17,7,HL,0.08111111111111112,0.06333333333333332,0.03,0.04
4,21,41,1,4,0.2700000000000001,9,11,13,31,100,108,0.7700000000000002,1.0100000000000007,0.01,0.01,11,3,1,1,13,4,1,1,2,0,15,7,HL,0.05923076923076924,0.2525000000000001,0.01,0.01
4,21,42,1,2,0.11999999999999998,2,3,3,6,37,111,6.8799999999999,0.02,0.01,0.01,19,1,1,1,37,1,1,1,3,0,19,7,HL,0.185945945945946,0.02,0.01,0.01
4,22,43,1,3,0.20000000000000004,2,4,46,24,41,100,0.7300000000000003,0.04,0.4400000000000002,0.01,6,1,2,1,10,1,2,1,5,0,18,7,HL,0.07300000000000001,0.04,0.2200000000000001,0.01
4,22,44,1,1,0.3000000000000001,2,3,93,30,36,85,0.7400000000000003,0.13999999999999999,0.16,0.03,3,1,2,1,4,1,2,1,5,0,16,7,HL,0.18500000000000005,0.13999999999999999,0.08,0.03
5,1,1,0,8,0.12999999999999998,2,2,3,10,76,12,5.119999999999938,0.01,0.01,0.01,16,1,1,1,49,1,1,1,2,0.5,21,7,HL,0.10448979591836736,0.01,0.01,0.01
5,1,2,0,7,0.25000000000000006,2,5,85,61,86,103,1.0100000000000005,0.20000000000000004,0.02,0.09999999999999999,4,2,1,1,9,3,1,1,3,0,12,7,HL,0.11222222222222225,0.06666666666666667,0.02,0.09999999999999999
5,2,3,0,4,0.3200000000000001,2,5,97,15,19,66,0.9200000000000004,0.6000000000000003,0.02,0.07,4,3,1,2,7,6,1,2,2,0,18,7,HL,0.13142857142857145,0.09999999999999999,0.02,0.035
5,2,4,0,3,0.25000000000000006,2,4,41,80,83,109,0.9300000000000004,0.2800000000000001,0.05,0.8500000000000005,7,3,1,5,12,5,1,5,5,0,13,7,HL,0.07750000000000001,0.056,0.05,0.17000000000000004
5,3,5,0,3,0.3000000000000001,2,6,41,48,81,61,0.6300000000000002,0.9600000000000006,0.01,0.03,4,5,1,2,8,6,1,2,5,0,17,7,HL,0.07875000000000001,0.16000000000000006,0.01,0.015
5,3,6,0,7,0.37000000000000016,2,7,91,18,87,21,0.7800000000000004,0.4200000000000002,0.10999999999999999,0.09,4,2,1,1,9,3,1,1,3,0,18,7,HL,0.08666666666666668,0.14000000000000004,0.10999999999999999,0.09
5,4,7,0,10,0.20000000000000004,4,4,13,15,20,81,1.0700000000000005,0.15,0.05,0.02,6,2,1,1,7,3,1,1,6,0.5,21,7,HL,0.1528571428571429,0.049999999999999996,0.05,0.02
5,4,8,0,5,0.4400000000000002,15,15,1,10,93,47,0.9500000000000004,0.02,0.3000000000000001,0.07,17,1,2,1,18,1,4,1,6,0,20,7,HL,0.05277777777777779,0.02,0.075,0.07
5,5,9,0,8,0.24000000000000007,2,5,87,116,88,14,0.8900000000000005,0.03,0.17,0.09999999999999999,4,1,2,1,10,1,2,1,2,0,14,7,HL,0.08900000000000001,0.03,0.08499999999999999,0.09999999999999999
5,5,10,0,5,0.25000000000000006,2,4,7,11,3,80,0.8000000000000003,0.12999999999999998,1.5400000000000011,0.01,4,1,5,1,9,1,5,1,6,0.5,21,7,HL,0.08888888888888889,0.12999999999999998,0.30800000000000016,0.01
5,6,11,0,5,0.26000000000000006,2,5,6,94,7,5,0.7200000000000003,0.24000000000000007,0.7100000000000004,0.22000000000000006,4,1,8,2,11,1,8,2,6,0.5,21,7,HL,0.06545454545454546,0.24000000000000007,0.08875,0.11000000000000003
5,6,12,0,6,0.22000000000000006,2,4,51,49,112,115,0.7300000000000003,0.12999999999999998,0.45000000000000023,0.01,4,2,7,1,8,3,8,1,4,0,12,7,HL,0.09125,0.043333333333333335,0.05625,0.01
5,7,13,1,7,0.22000000000000006,2,3,96,85,27,91,0.8500000000000004,0.08,1.6800000000000013,0.060000000000000005,5,1,7,3,10,1,13,3,3,0.5,23,7,HL,0.08499999999999999,0.08,0.12923076923076926,0.02
5,7,14,1,8,0.25000000000000006,2,5,112,110,6,8,0.8000000000000003,0.17,0.16,0.38000000000000017,5,2,2,3,11,2,3,4,2,0,16,7,HL,0.07272727272727272,0.08499999999999999,0.05333333333333333,0.095
5,8,15,1,9,0.21000000000000005,2,4,64,5,9,2,0.7500000000000003,0.37000000000000016,0.11999999999999998,0.7500000000000004,6,2,2,7,10,3,3,7,4,0.5,40,7,HL,0.075,0.12333333333333335,0.04,0.10714285714285715
5,8,16,1,6,0.24000000000000007,2,7,52,55,27,114,0.7700000000000004,0.4400000000000002,0.15,0.09999999999999999,4,2,3,2,9,5,5,2,4,0,15,7,HL,0.08555555555555558,0.08800000000000001,0.030000000000000002,0.05
5,9,17,1,7,0.09999999999999999,2,2,15,94,57,38,1.2500000000000009,0.01,0.04,0.16,5,1,1,1,13,1,1,1,3,0,18,7,HL,0.09615384615384617,0.01,0.04,0.16
5,9,18,1,5,0.20000000000000004,2,3,1,82,61,80,0.6300000000000002,0.45000000000000023,0.15,0.21000000000000005,4,1,1,2,8,1,1,2,6,0,16,7,HL,0.07875,0.45000000000000023,0.15,0.10500000000000001
5,10,19,1,9,0.34000000000000014,2,5,63,23,43,48,0.7800000000000004,0.20000000000000004,0.16,0.38000000000000017,4,1,1,2,11,1,1,3,4,0,20,7,HL,0.07090909090909091,0.20000000000000004,0.16,0.12666666666666668
5,10,20,1,1,0.24000000000000007,2,3,32,27,57,35,0.7000000000000003,0.09,0.36000000000000015,0.08,4,1,2,2,6,1,2,2,5,0.5,34,7,HL,0.11666666666666668,0.09,0.18000000000000002,0.04
5,11,21,1,4,0.2700000000000001,5,8,101,103,15,80,0.8200000000000003,0.46000000000000024,0.04,0.02,7,2,1,1,14,3,1,1,2,0,13,7,HL,0.05857142857142858,0.1533333333333334,0.04,0.02
5,11,22,1,5,0.3900000000000002,2,5,8,3,28,90,0.9300000000000004,5.019999999999937,0.23000000000000007,0.01,4,17,3,1,13,47,3,1,6,0,20,7,HL,0.07153846153846154,0.1068085106382979,0.07666666666666669,0.01
5,12,23,1,3,0.23000000000000007,2,5,38,37,47,24,0.6100000000000002,0.3300000000000001,0.36000000000000015,0.04,4,2,2,2,9,3,3,2,5,0.5,36,7,HL,0.06777777777777778,0.10999999999999999,0.12000000000000004,0.02
5,12,24,1,7,1.0100000000000007,3,9,114,27,54,12,1.580000000000001,0.12999999999999998,0.08,0.34000000000000014,5,2,1,3,11,2,1,4,3,0,17,7,HL,0.14363636363636367,0.065,0.08,0.085
5,13,25,1,4,0.35000000000000014,2,8,103,43,68,75,0.6800000000000003,0.7000000000000004,0.060000000000000005,0.09,4,3,1,2,10,8,1,2,2,0,14,7,HL,0.068,0.08750000000000001,0.060000000000000005,0.045
5,13,26,1,1,0.2900000000000001,6,7,25,32,56,31,0.8500000000000003,0.03,0.19000000000000003,0.5000000000000002,8,1,2,3,14,1,2,4,5,0.5,34,7,HL,0.060714285714285714,0.03,0.095,0.12500000000000003
5,14,27,1,10,0.25000000000000006,2,4,15,19,119,67,0.8700000000000003,0.060000000000000005,0.3200000000000001,0.01,4,1,2,1,8,1,4,1,6,0,18,7,HL,0.10875000000000003,0.060000000000000005,0.08000000000000002,0.01
5,14,28,1,1,0.15,2,4,6,31,74,60,4.259999999999957,0.01,0.01,0.02,15,1,1,1,35,1,1,1,5,0,18,7,HL,0.12171428571428573,0.01,0.01,0.02
5,15,29,1,8,0.21000000000000005,2,5,118,1,6,33,0.8200000000000004,0.18000000000000002,0.060000000000000005,0.15,4,2,1,2,9,2,1,2,2,0,19,7,HL,0.09111111111111113,0.09,0.060000000000000005,0.075
5,15,30,1,6,0.20000000000000004,3,4,57,53,42,50,0.5700000000000002,1.0100000000000007,0.03,0.07,5,6,1,2,10,9,1,2,4,0.5,29,7,HL,0.057,0.11222222222222225,0.03,0.035
5,16,31,1,4,0.2800000000000001,2,3,102,89,64,32,0.8100000000000003,0.6100000000000003,0.01,0.02,4,2,1,1,11,5,1,1,2,0,14,7,HL,0.07363636363636364,0.12200000000000001,0.01,0.02
5,16,32,1,3,0.2800000000000001,2,7,40,46,53,39,0.7900000000000003,0.11999999999999998,0.22000000000000006,0.060000000000000005,4,1,2,2,12,1,4,3,5,0.5,34,7,HL,0.06583333333333334,0.11999999999999998,0.05499999999999999,0.02
5,17,33,1,1,0.34000000000000014,2,6,34,54,26,51,0.7200000000000003,0.16,0.19000000000000003,0.04,4,1,2,1,8,1,5,1,5,0,18,7,HL,0.09000000000000001,0.16,0.038,0.04
5,17,34,1,3,0.23000000000000007,2,6,1,40,4,79,1.0000000000000004,0.01,0.3300000000000001,0.4100000000000002,4,1,3,4,9,1,3,4,5,0,20,7,HL,0.11111111111111115,0.01,0.11,0.10250000000000001
5,18,35,1,8,0.16,2,4,117,120,70,25,0.6200000000000002,0.07,0.5500000000000003,0.04,4,1,3,1,7,1,5,1,2,0,13,7,HL,0.08857142857142858,0.07,0.11000000000000001,0.04
5,18,36,1,4,0.18000000000000002,2,3,99,5,1,103,0.6200000000000002,0.4000000000000002,1.2200000000000009,0.01,4,2,7,1,7,5,13,1,2,0,16,7,HL,0.08857142857142858,0.08,0.09384615384615386,0.01
5,19,37,1,6,0.22000000000000006,2,5,55,10,41,56,0.7000000000000003,0.3000000000000001,0.18000000000000002,0.15,4,2,2,2,9,3,3,2,4,0,19,7,HL,0.07777777777777778,0.09999999999999999,0.06,0.07499999999999998
5,19,38,1,10,0.20000000000000004,3,5,20,15,32,36,0.5600000000000002,3.509999999999969,0.02,0.01,5,12,1,1,9,26,1,1,6,0,22,7,HL,0.06222222222222223,0.13500000000000004,0.02,0.01
5,20,39,1,8,0.22000000000000006,2,3,116,15,23,109,0.5200000000000001,4.1699999999999555,0.01,0.01,3,18,1,1,4,36,1,1,2,0,16,7,HL,0.13000000000000003,0.11583333333333334,0.01,0.01
5,20,40,1,9,0.37000000000000016,3,6,74,62,27,76,0.9000000000000004,0.060000000000000005,0.26000000000000006,0.04,4,1,2,1,7,1,2,1,4,0,15,7,HL,0.12857142857142861,0.060000000000000005,0.13,0.04
5,21,41,1,2,0.16,2,4,69,76,9,46,0.7100000000000003,0.04,0.18000000000000002,0.05,4,1,2,1,9,1,2,1,3,0,18,7,HL,0.0788888888888889,0.04,0.09,0.05
5,21,42,1,6,0.19000000000000003,2,4,59,30,91,85,0.5300000000000001,0.8300000000000005,0.09999999999999999,0.02,4,5,1,1,6,6,1,1,4,0,15,7,HL,0.08833333333333335,0.13833333333333336,0.09999999999999999,0.02
5,22,43,1,9,0.37000000000000016,3,6,69,96,93,71,0.9100000000000004,0.15,0.11999999999999998,0.2800000000000001,6,2,1,2,12,5,1,3,4,0,14,7,HL,0.07583333333333334,0.03,0.11999999999999998,0.09333333333333334
5,22,44,1,2,0.6400000000000003,4,7,76,84,49,81,1.0100000000000005,0.18000000000000002,0.37000000000000016,0.01,6,1,3,1,9,1,4,1,3,0.5,22,7,HL,0.11222222222222225,0.18000000000000002,0.0925,0.01
6,1,1,0,3,0.23000000000000007,2,3,44,94,105,61,0.6600000000000003,0.11999999999999998,0.07,0.23000000000000007,4,2,2,2,7,2,2,2,5,0,14,7,HL,0.0942857142857143,0.05999999999999999,0.035,0.11500000000000003
6,1,2,0,6,0.22000000000000006,2,3,26,53,18,31,0.4400000000000001,0.05,0.09,0.05,3,1,1,1,4,1,1,1,4,0,20,7,HL,0.11000000000000001,0.05,0.09,0.05
6,2,3,0,7,0.11999999999999998,2,3,14,41,88,87,0.5100000000000001,0.04,0.01,0.03,4,2,1,1,8,2,1,1,3,0,17,7,HL,0.06375,0.02,0.01,0.03
6,2,4,0,4,0.20000000000000004,2,3,102,107,7,12,0.37000000000000005,0.07,0.09999999999999999,0.07,4,1,1,1,5,1,1,1,2,0,16,7,HL,0.074,0.07,0.09999999999999999,0.07
6,3,5,0,10,0.19000000000000003,2,4,20,30,64,35,0.4200000000000001,0.09,0.12999999999999998,0.05,4,1,2,2,6,1,4,2,6,0,20,7,HL,0.07,0.09,0.0325,0.025
6,3,6,0,7,0.26000000000000006,2,5,91,116,86,8,0.6500000000000002,0.02,0.05,0.01,4,1,1,1,9,1,1,1,3,0,14,7,HL,0.07222222222222223,0.02,0.05,0.01
6,4,7,0,7,0.22000000000000006,2,4,92,56,106,51,0.4500000000000001,0.07,0.16,0.02,4,1,2,1,6,1,2,1,3,0,13,7,HL,0.07500000000000001,0.07,0.07999999999999999,0.02
6,4,8,0,9,0.22000000000000006,2,3,71,24,64,116,0.35000000000000003,0.12999999999999998,0.07,0.09,4,2,1,2,5,3,1,2,4,0,16,7,HL,0.07,0.043333333333333335,0.07,0.045
6,5,9,0,10,0.17,2,5,19,14,15,30,0.26,0.12999999999999998,0.25000000000000006,0.03,4,1,2,1,7,1,3,2,6,0.5,23,7,HL,0.037142857142857144,0.12999999999999998,0.08333333333333334,0.015
6,5,10,0,6,0.21000000000000005,2,4,5,57,3,60,0.39000000000000007,0.060000000000000005,0.7400000000000004,0.01,3,1,5,1,5,1,5,1,4,0,20,7,HL,0.078,0.060000000000000005,0.14800000000000005,0.01
6,6,11,0,6,0.25000000000000006,2,7,51,59,19,91,0.45000000000000007,0.03,1.0200000000000007,0.03,3,1,4,1,8,1,6,1,4,0,17,7,HL,0.05625000000000001,0.03,0.17000000000000004,0.03
6,6,12,0,1,0.22000000000000006,2,4,33,77,71,31,0.4500000000000001,0.15,0.01,0.03,4,1,1,2,6,1,1,2,5,0,17,7,HL,0.07500000000000001,0.15,0.01,0.015
6,7,13,1,10,0.23000000000000007,2,6,17,29,115,117,0.4400000000000001,1.9700000000000015,0.01,0.01,4,14,1,1,10,20,1,1,6,0,15,7,HL,0.044000000000000004,0.09850000000000002,0.01,0.01
6,7,14,1,4,0.18000000000000002,2,4,98,8,82,81,0.28,0.24000000000000007,0.11999999999999998,0.02,4,2,1,1,6,2,1,1,2,0,14,7,HL,0.04666666666666667,0.11999999999999998,0.11999999999999998,0.02
6,8,15,1,9,0.21000000000000005,2,6,65,68,87,36,0.36000000000000004,0.09999999999999999,0.07,0.08,3,1,1,1,7,1,1,1,4,0,16,7,HL,0.05142857142857143,0.09999999999999999,0.07,0.08
6,8,16,1,3,0.15,4,4,76,77,98,80,1.2200000000000006,0.4000000000000002,0.35000000000000014,0.19000000000000003,7,3,3,2,11,3,3,2,5,0.5,20,7,HL,0.11090909090909093,0.13333333333333336,0.11666666666666667,0.095
6,9,17,1,8,0.16,2,4,117,30,5,64,0.26,0.15,0.17,0.03,4,1,1,1,6,1,1,1,2,0,17,7,HL,0.043333333333333335,0.15,0.17,0.03
6,9,18,1,10,0.18000000000000002,2,3,24,15,108,49,0.24000000000000002,0.18000000000000002,0.10999999999999999,0.12999999999999998,4,2,1,2,5,3,1,2,6,0,18,7,HL,0.048,0.06,0.10999999999999999,0.06499999999999999
6,10,19,1,5,0.17,3,4,11,4,100,104,0.36000000000000004,0.01,0.11999999999999998,0.21000000000000005,5,1,1,2,7,1,1,3,6,0,16,7,HL,0.05142857142857143,0.01,0.11999999999999998,0.06999999999999999
6,10,20,1,10,0.23000000000000007,2,4,22,15,77,71,0.33000000000000007,0.09,0.25000000000000006,0.09999999999999999,3,1,3,2,5,1,3,2,6,0,19,7,HL,0.066,0.09,0.08333333333333333,0.05
6,11,21,1,2,0.22000000000000006,2,3,81,97,63,102,0.34,0.16,0.13999999999999999,0.09999999999999999,4,1,2,2,5,1,3,3,3,0,11,7,HL,0.068,0.16,0.04666666666666666,0.03333333333333333
6,11,22,1,5,0.17,2,3,11,6,1,88,0.34,0.060000000000000005,0.49000000000000027,0.11999999999999998,4,1,6,2,5,1,7,2,6,0.5,39,7,HL,0.06799999999999999,0.060000000000000005,0.07,0.05999999999999999
6,12,23,1,6,0.11999999999999998,2,3,54,99,20,104,0.24999999999999994,0.2800000000000001,0.07,0.2700000000000001,4,3,2,3,5,4,2,3,4,0,14,7,HL,0.05,0.06999999999999999,0.035,0.09
6,12,24,1,5,0.24000000000000007,2,4,70,10,63,7,0.4500000000000001,0.060000000000000005,1.1600000000000008,0.01,4,1,4,1,7,1,8,1,6,0,20,7,HL,0.06428571428571428,0.060000000000000005,0.14500000000000005,0.01
6,13,25,1,6,0.15,2,4,57,59,55,104,0.32,0.060000000000000005,0.09,0.060000000000000005,4,1,1,1,6,1,1,1,4,0.5,26,7,HL,0.05333333333333333,0.060000000000000005,0.09,0.060000000000000005
6,13,26,1,9,0.21000000000000005,2,3,25,64,19,28,0.4600000000000001,0.01,0.16,0.05,4,1,1,1,6,1,1,1,4,0,20,7,HL,0.07666666666666666,0.01,0.16,0.05
6,14,27,1,5,0.19000000000000003,2,4,82,5,119,1,0.4800000000000001,0.03,0.6000000000000003,1.0200000000000007,3,1,3,8,5,1,3,8,6,0,17,7,HL,0.09600000000000002,0.03,0.20000000000000007,0.12750000000000003
6,14,28,1,1,0.16,2,3,28,68,65,32,0.23,0.19000000000000003,0.4200000000000002,0.01,3,1,2,1,4,1,2,1,5,0,18,7,HL,0.0575,0.19000000000000003,0.2100000000000001,0.01
6,15,29,1,3,0.19000000000000003,2,4,46,38,108,106,0.35000000000000003,0.10999999999999999,0.04,0.34000000000000014,4,2,1,2,7,3,1,3,5,0,14,7,HL,0.05,0.03666666666666667,0.04,0.11333333333333337
6,15,30,1,1,0.20000000000000004,2,5,31,35,115,5,0.39000000000000007,0.03,0.23000000000000007,0.02,3,1,2,1,6,1,2,1,5,0,18,7,HL,0.065,0.03,0.11499999999999999,0.02
6,16,31,1,3,0.21000000000000005,2,3,40,48,71,111,0.31000000000000005,0.20000000000000004,0.5000000000000002,0.01,4,2,3,1,5,2,3,1,5,0,16,7,HL,0.062,0.09999999999999999,0.1666666666666667,0.01
6,16,32,1,4,0.20000000000000004,1,2,97,108,60,20,0.4400000000000001,0.16,0.03,0.03,4,2,1,2,6,4,1,2,2,0,14,7,HL,0.07333333333333333,0.04,0.03,0.015
6,17,33,1,6,0.16,2,4,53,107,10,54,0.42000000000000004,0.19000000000000003,0.04,0.01,4,2,2,1,6,3,2,1,4,0,16,7,HL,0.07,0.06333333333333332,0.02,0.01
6,17,34,1,8,0.22000000000000006,2,3,109,111,112,17,0.4000000000000001,0.16,0.04,0.02,4,2,1,1,5,3,1,1,2,0.5,18,7,HL,0.08,0.05333333333333334,0.04,0.02
6,18,35,1,8,0.22000000000000006,2,7,112,115,10,60,0.35000000000000003,0.08,0.07,0.18000000000000002,4,1,1,2,9,1,2,2,2,0,14,7,HL,0.03888888888888889,0.08,0.035,0.09
6,18,36,1,4,0.23000000000000007,2,4,105,45,103,41,0.4100000000000001,0.07,0.10999999999999999,0.03,4,1,2,1,6,1,3,1,2,0,14,7,HL,0.06833333333333333,0.07,0.03666666666666667,0.03
6,19,37,1,1,0.15,2,3,118,35,26,116,0.4,0.01,0.09999999999999999,0.03,4,1,2,1,6,1,4,1,5,0,14,7,HL,0.06666666666666667,0.01,0.024999999999999998,0.03
6,19,38,1,9,0.19000000000000003,2,3,63,45,86,42,0.27,0.2800000000000001,0.07,0.04,4,2,1,2,5,3,1,2,4,0,17,7,HL,0.054,0.09333333333333334,0.07,0.02
6,20,39,1,8,0.23000000000000007,3,5,118,96,89,95,0.39000000000000007,0.10999999999999999,0.07,0.05,5,1,1,1,7,1,1,1,2,0.5,20,7,HL,0.055714285714285716,0.10999999999999999,0.07,0.05
6,20,40,1,4,0.13999999999999999,2,3,49,100,59,26,0.37000000000000005,0.03,0.24000000000000007,0.04,4,1,2,1,5,1,3,1,2,0,15,7,HL,0.07400000000000001,0.03,0.08000000000000002,0.04
6,21,41,1,3,0.21000000000000005,2,4,40,79,13,107,0.4000000000000001,0.11999999999999998,0.09999999999999999,0.02,4,1,1,1,6,1,1,1,5,0,16,7,HL,0.06666666666666667,0.11999999999999998,0.09999999999999999,0.02
6,21,42,1,1,0.23000000000000007,2,5,28,52,59,56,0.6100000000000002,0.12999999999999998,0.01,0.03,4,2,1,1,7,3,1,1,5,0.5,29,7,HL,0.08714285714285716,0.043333333333333335,0.01,0.03
6,22,43,1,8,0.21000000000000005,2,6,118,85,26,72,0.36000000000000004,0.23000000000000007,0.05,0.02,4,1,1,2,8,1,1,2,2,0,14,7,HL,0.045,0.23000000000000007,0.05,0.01
6,22,44,1,2,0.4000000000000002,2,5,83,82,42,105,0.6000000000000002,0.03,0.11999999999999998,0.04,3,1,1,2,6,1,2,2,3,0,13,7,HL,0.1,0.03,0.06,0.02
7,1,1,0,2,0.37000000000000016,2,4,74,1,76,66,0.9900000000000004,0.3100000000000001,0.02,0.3200000000000001,4,2,1,1,9,2,1,1,3,0,16,7,HL,0.11000000000000001,0.15500000000000003,0.02,0.3200000000000001
7,1,2,0,7,0.46000000000000024,2,6,90,23,50,48,1.2100000000000006,0.11999999999999998,0.18000000000000002,0.07,4,1,2,1,12,1,3,1,3,0,18,7,HL,0.10083333333333334,0.11999999999999998,0.06,0.07
7,2,3,0,2,0.45000000000000023,2,3,84,76,3,42,1.2100000000000006,0.05,0.22000000000000006,0.34000000000000014,4,1,1,2,6,1,1,4,3,0,17,7,HL,0.20166666666666672,0.05,0.22000000000000006,0.085
7,2,4,0,4,0.4000000000000002,2,5,95,104,102,69,1.1100000000000005,0.01,0.24000000000000007,0.23000000000000007,4,1,1,2,8,1,1,2,2,0,11,7,HL,0.13875,0.01,0.24000000000000007,0.11500000000000002
7,3,5,0,4,0.2800000000000001,2,5,104,79,13,106,0.9000000000000004,0.3000000000000001,0.2800000000000001,0.20000000000000004,4,2,2,2,7,2,3,3,2,0,13,7,HL,0.12857142857142861,0.15000000000000002,0.09333333333333334,0.06666666666666667
7,3,6,0,9,0.38000000000000017,2,3,72,37,11,119,0.7200000000000003,0.49000000000000027,0.5100000000000002,0.15,4,2,2,1,5,3,5,1,4,0,17,7,HL,0.14400000000000002,0.1633333333333334,0.10200000000000001,0.15
7,4,7,0,5,0.48000000000000026,2,7,10,42,38,4,0.7600000000000003,0.9100000000000006,0.3000000000000001,0.05,4,2,1,1,10,5,1,1,6,0,22,7,HL,0.076,0.18200000000000002,0.3000000000000001,0.05
7,4,8,0,8,0.37000000000000016,2,5,109,110,13,62,0.9700000000000004,0.02,0.47000000000000025,0.03,4,1,2,1,9,1,4,1,2,0,14,7,HL,0.1077777777777778,0.02,0.11750000000000001,0.03
7,5,9,0,2,0.36000000000000015,2,3,81,63,13,76,0.6500000000000002,0.3900000000000002,0.3300000000000001,1.8000000000000014,4,2,2,4,5,3,3,8,3,0,16,7,HL,0.13000000000000003,0.13,0.11,0.22500000000000006
7,5,10,0,6,0.7100000000000004,16,16,59,60,56,55,1.0300000000000005,0.17,0.17,0.21000000000000005,18,1,1,2,19,1,1,3,4,1,48,7,HL,0.05421052631578948,0.17,0.17,0.06999999999999999
7,6,11,0,10,0.2900000000000001,2,5,17,16,39,40,0.6900000000000003,4.179999999999955,0.01,0.11999999999999998,4,9,1,1,7,17,1,1,6,0,22,7,HL,0.09857142857142857,0.24588235294117658,0.01,0.11999999999999998
7,6,12,0,7,0.24000000000000007,1,3,87,89,71,70,0.7200000000000003,0.09999999999999999,0.6000000000000003,0.16,3,1,2,2,7,1,3,2,3,0,14,7,HL,0.10285714285714287,0.09999999999999999,0.20000000000000004,0.08
7,7,13,1,7,0.3000000000000001,2,3,93,43,17,64,0.6500000000000002,0.8400000000000005,0.03,0.08,4,2,1,1,7,6,1,1,3,0,18,7,HL,0.09285714285714286,0.14,0.03,0.08
7,7,14,1,8,0.2800000000000001,2,4,117,60,114,56,0.5700000000000002,0.8200000000000005,0.19000000000000003,0.4200000000000002,5,2,2,2,8,3,6,3,2,0,12,7,HL,0.07125000000000001,0.27333333333333343,0.03166666666666667,0.14000000000000004
7,8,15,1,5,0.36000000000000015,3,4,8,2,115,109,0.7300000000000003,0.35000000000000014,1.9400000000000015,2.4499999999999917,5,2,4,9,6,3,8,12,6,0,16,7,HL,0.12166666666666667,0.11666666666666665,0.24250000000000008,0.20416666666666672
7,8,16,1,6,0.26000000000000006,2,5,59,52,96,105,0.6000000000000002,0.20000000000000004,0.9100000000000006,0.19000000000000003,3,1,2,1,6,1,4,1,4,0,13,7,HL,0.10000000000000002,0.20000000000000004,0.22750000000000006,0.19000000000000003
7,9,17,1,6,0.38000000000000017,2,3,54,13,40,22,0.8500000000000004,0.6500000000000004,0.37000000000000016,0.01,4,2,2,1,5,3,4,1,4,0,21,7,HL,0.17000000000000004,0.21666666666666676,0.0925,0.01
7,9,18,1,7,0.5700000000000003,9,10,96,90,31,65,0.9200000000000004,0.4000000000000002,0.09,0.21000000000000005,10,2,1,1,11,3,1,1,3,0,15,7,HL,0.08363636363636365,0.13333333333333336,0.09,0.21000000000000005
7,10,19,1,2,0.2700000000000001,2,5,76,98,80,105,1.0000000000000004,0.03,0.16,0.2800000000000001,4,1,1,2,9,1,1,3,3,0,10,7,HL,0.11111111111111113,0.03,0.16,0.09333333333333335
7,10,20,1,7,0.3100000000000001,3,4,96,27,9,66,0.8400000000000003,0.16,0.4100000000000002,0.08,5,1,2,1,8,1,2,1,3,0,18,7,HL,0.10500000000000001,0.16,0.20500000000000002,0.08
7,11,21,1,7,0.3000000000000001,2,5,85,92,111,53,0.6200000000000002,0.6800000000000004,0.07,0.4300000000000002,4,2,1,2,9,7,1,2,3,0,12,7,HL,0.06888888888888889,0.09714285714285716,0.07,0.21500000000000008
7,11,22,1,3,0.4400000000000002,2,5,39,43,71,65,0.9900000000000004,0.04,0.48000000000000026,0.2800000000000001,4,1,3,3,9,1,6,5,5,0,18,7,HL,0.11,0.04,0.08000000000000002,0.056
7,12,23,1,3,0.48000000000000026,2,3,41,89,20,37,1.0300000000000005,0.5500000000000003,0.05,0.12999999999999998,4,2,1,2,7,4,2,2,5,0,19,7,HL,0.14714285714285716,0.1375,0.025,0.06499999999999999
7,12,24,1,8,0.4200000000000002,3,6,36,117,9,12,1.1600000000000006,0.05,0.49000000000000027,0.09,6,1,3,1,9,1,5,1,2,0,19,7,HL,0.12888888888888891,0.05,0.098,0.09
7,13,25,1,9,0.6200000000000003,3,4,70,39,5,3,1.0700000000000005,0.3000000000000001,0.2800000000000001,0.3900000000000002,5,1,1,2,6,1,1,4,4,0,21,7,HL,0.17833333333333337,0.3000000000000001,0.2800000000000001,0.09749999999999999
7,13,26,1,8,0.6200000000000003,1,2,112,29,120,118,1.4300000000000008,0.11999999999999998,0.4200000000000002,0.13999999999999999,3,2,2,1,4,3,4,1,2,0.5,17,7,HL,0.35750000000000015,0.039999999999999994,0.10500000000000001,0.13999999999999999
7,14,27,1,1,0.5300000000000002,2,6,28,34,35,67,0.8200000000000003,0.38000000000000017,0.13999999999999999,0.05,5,2,1,1,10,2,1,1,5,0.5,34,7,HL,0.082,0.19000000000000006,0.13999999999999999,0.05
7,14,28,1,6,0.2900000000000001,2,3,51,58,108,88,0.6500000000000002,0.5200000000000002,0.46000000000000024,0.3000000000000001,4,2,2,2,6,3,2,3,4,0,13,7,HL,0.10833333333333334,0.17333333333333337,0.23000000000000004,0.09999999999999999
7,15,29,1,7,1.1200000000000008,5,9,88,100,2,41,1.510000000000001,0.5200000000000002,0.10999999999999999,2.479999999999991,7,2,2,4,11,4,3,15,3,0,16,7,HL,0.1372727272727273,0.13,0.03666666666666667,0.1653333333333334
7,15,30,1,6,0.12999999999999998,2,2,57,110,116,34,1.720000000000001,2.8799999999999826,0.7300000000000004,0.09999999999999999,4,4,3,1,12,5,4,1,4,0,13,7,HL,0.14333333333333337,0.5760000000000004,0.18250000000000008,0.09999999999999999
7,16,31,1,4,0.3100000000000001,3,4,70,103,90,97,0.9600000000000004,0.01,0.46000000000000024,0.19000000000000003,5,1,2,2,9,1,3,2,2,0,11,7,HL,0.10666666666666667,0.01,0.15333333333333338,0.095
7,16,32,1,8,0.38000000000000017,2,5,110,115,57,46,0.8200000000000004,0.08,0.6300000000000003,0.12999999999999998,4,1,5,1,9,1,8,2,2,0,13,7,HL,0.09111111111111111,0.08,0.07875,0.065
7,17,33,1,9,0.4200000000000002,2,5,72,84,81,74,0.8600000000000004,1.340000000000001,0.4000000000000002,0.02,4,3,2,1,9,7,3,1,4,0.5,22,7,HL,0.09555555555555556,0.1914285714285715,0.13333333333333336,0.02
7,17,34,1,8,0.36000000000000015,2,6,111,118,115,32,0.8200000000000004,0.15,0.36000000000000015,0.20000000000000004,3,1,2,2,7,2,3,4,2,0.5,17,7,HL,0.11714285714285717,0.07499999999999998,0.12000000000000002,0.05
7,18,35,1,6,0.26000000000000006,2,3,49,99,108,9,0.6900000000000003,0.48000000000000026,0.04,0.35000000000000014,4,2,1,2,5,7,1,3,4,0,14,7,HL,0.138,0.06857142857142857,0.04,0.11666666666666667
7,18,36,1,8,0.49000000000000027,4,7,117,67,42,74,1.1400000000000006,0.02,0.8500000000000005,0.02,7,1,2,1,11,1,5,1,2,0,14,7,HL,0.10363636363636365,0.02,0.17000000000000007,0.02
7,19,37,1,9,0.4200000000000002,3,6,34,62,33,30,1.2600000000000007,0.05,0.6900000000000004,0.15,5,1,2,1,11,1,5,1,4,0.5,34,7,HL,0.11454545454545456,0.05,0.13800000000000004,0.15
7,19,38,1,8,0.6400000000000003,2,6,111,40,47,78,1.2400000000000007,0.34000000000000014,0.09999999999999999,0.23000000000000007,5,2,1,1,12,3,1,1,2,0,15,7,HL,0.10333333333333333,0.11333333333333334,0.09999999999999999,0.23000000000000007
7,20,39,1,8,0.4200000000000002,2,7,112,45,88,38,0.8100000000000004,0.7000000000000004,0.060000000000000005,0.21000000000000005,4,2,1,2,11,2,1,3,2,0,15,7,HL,0.07363636363636364,0.35000000000000014,0.060000000000000005,0.06999999999999999
7,20,40,1,10,0.25000000000000006,3,6,16,15,17,59,0.5800000000000002,0.35000000000000014,3.93999999999996,0.01,4,2,7,1,7,4,16,1,6,0.5,40,7,HL,0.08285714285714288,0.0875,0.2462500000000001,0.01
7,21,41,1,6,0.15,2,2,119,95,90,86,4.799999999999946,0.01,0.35000000000000014,0.01,8,1,2,1,15,1,2,1,4,0.5,20,7,HL,0.3200000000000002,0.01,0.17500000000000004,0.01
7,21,42,1,2,0.17,2,2,108,2,75,6,2.1300000000000017,1.340000000000001,0.01,0.12999999999999998,5,4,1,2,17,6,1,2,3,0,17,7,HL,0.12529411764705886,0.2233333333333334,0.01,0.06499999999999999
7,22,43,1,1,0.3900000000000002,2,4,34,27,111,81,0.7000000000000003,0.25000000000000006,0.3900000000000002,0.03,4,2,2,1,6,3,3,1,5,0,15,7,HL,0.11666666666666665,0.08333333333333334,0.13000000000000003,0.03
7,22,44,1,5,0.37000000000000016,3,7,10,43,4,42,0.7100000000000003,0.36000000000000015,0.21000000000000005,1.9300000000000015,5,2,2,5,9,3,2,18,6,0,22,7,HL,0.0788888888888889,0.12000000000000002,0.10500000000000001,0.10722222222222225
8,1,1,0,8,0.17,2,3,83,57,119,11,0.6500000000000002,0.09,0.04,0.060000000000000005,4,1,1,1,5,1,1,1,2,0,15,7,HL,0.13000000000000003,0.09,0.04,0.060000000000000005
8,1,2,0,9,0.23000000000000007,2,5,100,97,62,86,0.5700000000000002,0.17,0.08,0.09,3,1,1,2,6,1,1,2,4,0,11,7,HL,0.09500000000000003,0.17,0.08,0.045
8,2,3,0,10,0.23000000000000007,2,3,24,105,102,82,0.5200000000000001,0.21000000000000005,0.13999999999999999,0.09,4,1,2,2,5,1,2,2,6,0,13,7,HL,0.10400000000000001,0.21000000000000005,0.06999999999999999,0.045
8,2,4,0,6,0.38000000000000017,8,9,7,57,9,44,0.8800000000000003,0.08,0.07,0.060000000000000005,10,1,1,2,13,1,1,2,4,0,21,7,HL,0.06769230769230769,0.08,0.07,0.03
8,3,5,0,3,0.2900000000000001,2,3,118,47,12,4,0.8400000000000003,0.09999999999999999,0.060000000000000005,0.03,4,1,1,1,6,1,1,1,5,0,19,7,HL,0.14,0.09999999999999999,0.060000000000000005,0.03
8,3,6,0,4,0.3300000000000001,2,4,24,36,17,108,0.9900000000000004,0.060000000000000005,0.05,0.04,5,1,1,1,8,1,1,1,2,0,19,7,HL,0.12375000000000001,0.060000000000000005,0.05,0.04
8,4,7,0,10,0.2700000000000001,4,6,22,39,18,104,0.6000000000000002,0.18000000000000002,0.6000000000000003,0.01,5,2,2,1,7,2,2,1,6,0,19,7,HL,0.08571428571428573,0.09,0.30000000000000016,0.01
8,4,8,0,8,0.22000000000000006,2,3,2,6,109,113,0.5300000000000001,0.15,0.09999999999999999,0.060000000000000005,3,1,1,1,4,1,1,1,2,0,16,7,HL,0.13250000000000003,0.15,0.09999999999999999,0.060000000000000005
8,5,9,0,2,0.19000000000000003,2,3,28,74,105,101,0.6500000000000002,0.09,0.060000000000000005,0.060000000000000005,4,1,1,1,6,1,1,1,3,0,12,7,HL,0.10833333333333336,0.09,0.060000000000000005,0.060000000000000005
8,5,10,0,6,0.24000000000000007,2,3,15,116,93,52,0.8600000000000004,0.060000000000000005,0.02,0.03,3,1,1,1,4,1,1,1,4,0,15,7,HL,0.21500000000000008,0.060000000000000005,0.02,0.03
8,6,11,0,3,0.21000000000000005,2,3,107,45,82,3,0.7000000000000003,0.05,0.08,0.04,4,1,1,1,6,1,1,1,5,0,16,7,HL,0.11666666666666667,0.05,0.08,0.04
8,6,12,0,8,0.24000000000000007,2,3,56,88,13,36,0.6100000000000002,0.20000000000000004,0.13999999999999999,0.02,3,1,2,1,4,1,2,1,2,0,18,7,HL,0.15250000000000002,0.20000000000000004,0.07,0.02
8,7,13,1,9,0.16,2,3,72,8,93,2,0.44000000000000006,0.24000000000000007,0.12999999999999998,0.04,3,2,2,1,4,3,2,1,4,0,19,7,HL,0.11000000000000003,0.08,0.065,0.04
8,7,14,1,4,0.3000000000000001,2,5,52,18,83,14,0.6800000000000003,0.21000000000000005,0.060000000000000005,0.03,3,2,1,1,6,2,1,1,2,0,19,7,HL,0.11333333333333337,0.10499999999999998,0.060000000000000005,0.03
8,8,15,1,5,0.25000000000000006,2,3,5,1,51,49,0.5800000000000002,7.319999999999888,0.01,0.02,4,15,1,1,6,26,1,1,6,0,20,7,HL,0.09666666666666666,0.2815384615384617,0.01,0.02
8,8,16,1,9,0.17,2,4,62,66,14,76,0.5200000000000001,0.060000000000000005,0.21000000000000005,0.08,4,1,1,2,6,1,1,2,4,0,17,7,HL,0.08666666666666667,0.060000000000000005,0.21000000000000005,0.04
8,9,17,1,2,0.26000000000000006,2,4,37,41,99,71,0.7300000000000003,0.16,0.07,0.2800000000000001,3,2,1,2,5,2,1,2,3,0,16,7,HL,0.14600000000000005,0.08,0.07,0.14000000000000004
8,9,18,1,7,0.4200000000000002,2,4,87,52,25,88,0.7600000000000003,0.25000000000000006,0.060000000000000005,0.8400000000000005,4,1,1,5,6,1,1,5,3,0,15,7,HL,0.1266666666666667,0.25000000000000006,0.060000000000000005,0.16800000000000007
8,10,19,1,7,0.20000000000000004,2,3,24,88,90,99,0.6700000000000003,0.060000000000000005,0.08,0.05,4,1,1,1,6,1,1,1,3,0,14,7,HL,0.11166666666666668,0.060000000000000005,0.08,0.05
8,10,20,1,8,0.18000000000000002,2,3,56,12,29,6,0.5800000000000002,0.3200000000000001,0.03,0.03,3,1,1,1,4,1,1,1,2,0,21,7,HL,0.14500000000000005,0.3200000000000001,0.03,0.03
8,11,21,1,8,0.11999999999999998,2,3,53,25,117,118,0.49000000000000016,0.16,0.03,0.060000000000000005,3,1,1,1,4,1,1,1,2,0,13,7,HL,0.12250000000000004,0.16,0.03,0.060000000000000005
8,11,22,1,9,0.13999999999999999,2,3,42,71,68,21,0.9300000000000005,0.09,0.02,0.01,4,2,2,1,6,2,2,1,4,0,19,7,HL,0.15500000000000005,0.045000000000000005,0.01,0.01
8,12,23,1,8,0.16,2,3,117,116,3,120,0.36000000000000004,0.23000000000000007,0.12999999999999998,0.04,3,1,1,1,4,1,1,1,2,0.5,18,7,HL,0.09000000000000001,0.23000000000000007,0.12999999999999998,0.04
8,12,24,1,10,0.20000000000000004,3,4,45,13,40,108,0.8100000000000004,0.09,0.17,0.08,4,1,2,1,5,1,2,1,6,0,18,7,HL,0.16200000000000006,0.09,0.08499999999999999,0.08
8,13,25,1,1,0.38000000000000017,2,5,83,59,102,11,0.8100000000000004,0.10999999999999999,0.22000000000000006,0.02,4,2,2,1,7,3,2,1,5,0,15,7,HL,0.11571428571428573,0.03666666666666667,0.10999999999999999,0.02
8,13,26,1,10,0.26000000000000006,4,4,14,43,41,93,0.6100000000000002,0.7900000000000005,0.01,0.17,5,2,1,2,5,2,1,2,6,0,19,7,HL,0.12200000000000003,0.39500000000000024,0.01,0.085
8,14,27,1,1,0.3100000000000001,3,7,54,33,86,3,0.9900000000000004,0.07,0.04,0.03,5,1,1,1,10,1,1,1,5,0,18,7,HL,0.09900000000000002,0.07,0.04,0.03
8,14,28,1,3,0.17,2,3,14,38,44,16,2.5799999999999925,0.01,0.01,0.01,8,1,1,1,10,1,1,1,5,0,22,7,HL,0.2580000000000001,0.01,0.01,0.01
8,15,29,1,7,0.23000000000000007,2,3,90,112,6,8,0.5100000000000001,0.4100000000000002,0.9200000000000006,0.01,4,3,2,1,5,3,2,1,3,0,17,7,HL,0.10200000000000001,0.13666666666666666,0.4600000000000003,0.01
8,15,30,1,4,0.21000000000000005,2,3,73,81,44,100,0.6700000000000003,1.470000000000001,0.02,0.01,3,3,1,1,4,3,1,1,2,0,13,7,HL,0.16750000000000007,0.49000000000000027,0.02,0.01
8,16,31,1,9,0.25000000000000006,8,9,41,16,119,37,0.7300000000000003,0.3100000000000001,0.9200000000000006,0.01,11,1,3,1,12,1,4,1,4,0,18,7,HL,0.06083333333333334,0.3100000000000001,0.23000000000000007,0.01
8,16,32,1,4,0.3100000000000001,2,3,102,107,30,75,0.5200000000000001,0.37000000000000016,0.15,0.05,4,2,2,1,5,2,2,1,2,0,12,7,HL,0.104,0.18500000000000003,0.075,0.05
8,17,33,1,10,0.4100000000000002,11,13,40,38,99,100,0.7800000000000004,0.26000000000000006,0.11999999999999998,0.11999999999999998,12,2,2,1,14,2,2,1,6,0,14,7,HL,0.05571428571428572,0.13,0.060000000000000005,0.11999999999999998
8,17,34,1,1,0.26000000000000006,2,5,28,3,114,8,0.6700000000000003,0.12999999999999998,0.37000000000000016,0.03,4,1,1,1,7,1,1,1,5,0,19,7,HL,0.09571428571428572,0.12999999999999998,0.37000000000000016,0.03
8,18,35,1,4,0.23000000000000007,2,3,25,99,34,10,0.6100000000000002,0.08,0.19000000000000003,0.05,3,1,3,1,4,1,3,1,2,0,18,7,HL,0.15250000000000002,0.08,0.06333333333333332,0.05
8,18,36,1,6,0.13999999999999999,2,3,49,53,23,73,0.5200000000000001,1.5900000000000012,0.04,0.01,4,6,1,1,5,6,1,1,4,0,17,7,HL,0.10400000000000001,0.2650000000000001,0.04,0.01
8,19,37,1,6,0.18000000000000002,2,3,115,10,73,29,0.8600000000000004,0.16,0.060000000000000005,0.03,4,1,1,1,5,1,1,1,4,0,16,7,HL,0.17200000000000004,0.16,0.060000000000000005,0.03
8,19,38,1,4,0.3200000000000001,2,4,19,42,99,61,0.8400000000000003,0.10999999999999999,0.060000000000000005,0.01,3,1,1,1,5,1,1,1,2,0,17,7,HL,0.16800000000000007,0.10999999999999999,0.060000000000000005,0.01
8,20,39,1,7,0.24000000000000007,2,4,22,107,94,87,0.6800000000000003,0.20000000000000004,0.03,0.03,3,2,1,1,5,3,1,1,3,0,14,7,HL,0.13600000000000004,0.06666666666666668,0.03,0.03
8,20,40,1,6,0.11999999999999998,2,3,54,34,77,8,0.36000000000000004,0.35000000000000014,0.07,0.45000000000000023,4,3,1,2,5,3,1,2,4,0,18,7,HL,0.07200000000000001,0.11666666666666668,0.07,0.2250000000000001
8,21,41,1,9,0.17,2,3,2,68,10,64,4.079999999999961,0.02,0.01,0.060000000000000005,10,1,1,1,11,1,1,1,4,0,20,7,HL,0.37090909090909113,0.02,0.01,0.060000000000000005
8,21,42,1,2,0.24000000000000007,2,4,79,16,112,13,0.4900000000000001,0.9300000000000006,0.01,0.09,3,2,1,2,5,2,1,2,3,0,17,7,HL,0.098,0.4650000000000003,0.01,0.045000000000000005
8,22,43,1,8,0.21000000000000005,2,4,119,45,80,20,0.4800000000000001,0.3200000000000001,0.07,0.09999999999999999,4,2,1,1,6,2,1,1,2,0,16,7,HL,0.08000000000000002,0.16,0.07,0.09999999999999999
8,22,44,1,7,0.21000000000000005,3,4,10,26,3,99,1.600000000000001,0.01,1.370000000000001,1.9800000000000015,6,1,5,3,7,1,7,4,3,0,19,7,HL,0.22857142857142868,0.01,0.19571428571428576,0.4950000000000003
9,1,1,0,1,0.4400000000000002,2,6,26,33,21,13,1.640000000000001,0.07,0.49000000000000027,0.20000000000000004,4,1,2,1,14,1,3,1,5,0,22,7,HL,0.11714285714285716,0.07,0.16333333333333336,0.20000000000000004
9,1,2,0,6,0.17,2,4,1,59,111,44,10.23999999999983,0.01,0.02,0.01,15,1,1,1,34,1,1,1,4,0,17,7,HL,0.30117647058823543,0.01,0.02,0.01
9,2,3,0,7,0.49000000000000027,2,7,95,67,71,61,1.2000000000000006,1.380000000000001,0.18000000000000002,0.10999999999999999,4,3,1,1,11,8,1,1,3,0.5,15,7,HL,0.1090909090909091,0.17250000000000004,0.18000000000000002,0.10999999999999999
9,2,4,0,6,0.4400000000000002,2,5,56,58,82,73,1.510000000000001,0.3900000000000002,0.5300000000000002,0.2900000000000001,5,2,2,2,13,3,3,3,4,0,14,7,HL,0.11615384615384618,0.13,0.1766666666666667,0.09666666666666666
9,3,5,0,8,0.36000000000000015,2,5,110,53,115,60,1.4500000000000008,0.11999999999999998,1.0600000000000007,0.060000000000000005,4,1,3,2,9,1,3,2,2,0,12,7,HL,0.16111111111111115,0.11999999999999998,0.3533333333333335,0.03
9,3,6,0,9,0.37000000000000016,2,3,69,96,103,86,1.3200000000000007,1.0900000000000007,0.4300000000000002,0.05,5,2,2,1,7,5,2,1,4,0,12,7,HL,0.1885714285714286,0.21800000000000005,0.21500000000000008,0.05
9,4,7,0,10,0.6400000000000003,11,12,14,16,72,119,2.2000000000000015,0.05,0.4300000000000002,0.5500000000000003,13,1,2,2,21,1,2,2,6,0,18,7,HL,0.10476190476190478,0.05,0.21500000000000008,0.2750000000000001
9,4,8,0,3,0.5200000000000002,2,5,39,52,59,10,1.2100000000000006,0.9900000000000007,0.46000000000000024,0.25000000000000006,4,2,2,2,7,5,3,2,5,0,19,7,HL,0.1728571428571429,0.19800000000000004,0.15333333333333332,0.12499999999999999
9,5,9,0,7,0.4200000000000002,3,4,87,95,47,71,1.2300000000000006,0.21000000000000005,0.6200000000000003,0.21000000000000005,5,1,2,2,7,1,3,2,3,0,15,7,HL,0.17571428571428577,0.21000000000000005,0.20666666666666672,0.10499999999999998
9,5,10,0,2,0.34000000000000014,2,5,78,80,74,52,1.1500000000000006,0.3100000000000001,0.6500000000000004,0.09,4,2,3,1,7,3,7,1,3,0.5,13,7,HL,0.16428571428571434,0.10333333333333333,0.09285714285714287,0.09
9,6,11,0,3,0.4300000000000002,2,3,45,40,37,107,1.1300000000000006,0.8800000000000006,0.37000000000000016,0.07,4,2,3,1,5,4,5,1,5,0.5,17,7,HL,0.22600000000000006,0.22000000000000006,0.074,0.07
9,6,12,0,1,0.45000000000000023,4,7,31,4,53,51,1.3700000000000008,0.2900000000000001,0.23000000000000007,0.16,6,1,1,3,13,1,1,3,5,0,19,7,HL,0.10538461538461541,0.2900000000000001,0.23000000000000007,0.05333333333333333
9,7,13,1,6,0.3300000000000001,2,3,55,100,54,99,0.9200000000000004,0.9200000000000006,0.5900000000000003,0.26000000000000006,4,2,2,1,6,2,4,1,4,0,12,7,HL,0.15333333333333338,0.46000000000000024,0.14750000000000008,0.26000000000000006
9,7,14,1,9,0.2700000000000001,2,3,62,66,82,10,2.0100000000000016,0.04,0.7400000000000004,0.9300000000000006,5,1,3,3,9,1,3,3,4,0,17,7,HL,0.2233333333333334,0.04,0.24666666666666676,0.31000000000000016
9,8,15,1,7,0.34000000000000014,3,5,85,102,97,107,1.3400000000000007,0.6900000000000004,0.07,0.8500000000000005,5,2,1,2,11,4,1,2,3,0.5,15,7,HL,0.12181818181818185,0.17250000000000004,0.07,0.4250000000000002
9,8,16,1,5,0.3100000000000001,2,6,12,76,80,8,1.2500000000000007,1.1000000000000008,0.03,0.11999999999999998,5,3,1,2,10,5,1,2,6,0,18,7,HL,0.12500000000000003,0.22000000000000008,0.03,0.06
9,9,17,1,2,0.45000000000000023,2,3,77,76,107,45,1.1300000000000006,0.5200000000000002,0.5700000000000003,0.3900000000000002,4,1,1,3,9,1,1,5,3,0,13,7,HL,0.1255555555555556,0.5200000000000002,0.5700000000000003,0.078
9,9,18,1,7,14.989999999999725,10,51,96,1,88,118,15.229999999999725,0.46000000000000024,0.7300000000000004,0.11999999999999998,12,2,2,1,53,2,3,1,3,0,14,7,HL,0.28735849056603785,0.23000000000000004,0.2433333333333334,0.11999999999999998
9,10,19,1,4,0.38000000000000017,2,5,102,101,18,14,1.570000000000001,0.060000000000000005,0.18000000000000002,1.0700000000000007,6,1,1,7,11,1,1,7,2,0,16,7,HL,0.14272727272727276,0.060000000000000005,0.18000000000000002,0.1528571428571429
9,10,20,1,7,0.8700000000000006,2,9,4,89,112,3,1.570000000000001,0.9000000000000006,0.19000000000000003,0.09,4,2,1,2,12,4,1,2,3,0,17,7,HL,0.13083333333333338,0.2250000000000001,0.19000000000000003,0.045
9,11,21,1,1,0.4400000000000002,2,5,36,19,24,55,1.0400000000000005,0.9600000000000006,0.09,0.8000000000000005,4,5,1,3,9,6,1,4,5,0,21,7,HL,0.11555555555555558,0.16000000000000003,0.09,0.20000000000000007
9,11,22,1,9,0.4200000000000002,8,9,63,72,67,62,1.0200000000000005,0.38000000000000017,0.19000000000000003,0.10999999999999999,10,2,1,1,13,3,1,1,4,1,48,7,HL,0.07846153846153847,0.12666666666666665,0.19000000000000003,0.10999999999999999
9,12,23,1,9,0.6400000000000003,4,9,61,63,86,92,1.530000000000001,0.6700000000000004,0.46000000000000024,1.2300000000000009,7,2,2,2,13,4,2,2,4,0,14,7,HL,0.11769230769230771,0.1675,0.2300000000000001,0.6150000000000004
9,12,24,1,8,0.18000000000000002,2,3,16,58,120,28,5.54999999999993,0.01,0.01,0.01,9,1,1,1,16,1,1,1,2,0,17,7,HL,0.3468750000000002,0.01,0.01,0.01
9,13,25,1,2,0.22000000000000006,2,3,78,77,80,49,0.8200000000000004,0.12999999999999998,0.21000000000000005,0.9600000000000006,4,1,1,5,6,1,2,6,3,0.5,22,7,HL,0.1366666666666667,0.12999999999999998,0.10500000000000001,0.16000000000000003
9,13,26,1,3,0.6000000000000003,2,5,38,45,88,105,1.530000000000001,0.19000000000000003,1.7300000000000013,0.13999999999999999,4,1,3,3,10,1,11,3,5,0,15,7,HL,0.15300000000000002,0.19000000000000003,0.15727272727272731,0.04666666666666667
9,14,27,1,8,0.8700000000000006,4,5,120,42,116,109,1.8700000000000012,0.16,0.25000000000000006,0.060000000000000005,6,1,2,1,13,1,2,1,2,0.5,17,7,HL,0.1438461538461539,0.16,0.125,0.060000000000000005
9,14,28,1,6,0.4100000000000002,2,5,49,59,99,104,1.1700000000000006,0.5700000000000003,0.8200000000000005,0.17,4,2,3,1,7,3,5,1,4,0,12,7,HL,0.1671428571428572,0.19000000000000006,0.16400000000000003,0.17
9,15,29,1,5,0.5700000000000003,2,7,2,6,39,4,1.9200000000000013,0.12999999999999998,0.38000000000000017,0.21000000000000005,5,2,2,2,15,3,3,2,6,0.5,41,7,HL,0.12800000000000003,0.043333333333333335,0.12666666666666668,0.10500000000000001
9,15,30,1,4,0.5500000000000003,3,5,102,96,35,72,1.580000000000001,0.6300000000000003,0.08,0.03,5,2,1,1,11,4,1,1,2,0,14,7,HL,0.14363636363636367,0.15750000000000003,0.08,0.03
9,16,31,1,6,0.5200000000000002,4,5,60,90,35,6,1.720000000000001,0.45000000000000023,0.8800000000000006,0.05,7,2,1,1,11,2,2,1,4,0,18,7,HL,0.1563636363636364,0.22500000000000003,0.4400000000000002,0.05
9,16,32,1,3,1.8100000000000014,3,7,46,66,82,104,2.6300000000000017,0.22000000000000006,0.3300000000000001,0.21000000000000005,6,2,1,1,11,2,1,1,5,0,14,7,HL,0.2390909090909092,0.11000000000000001,0.3300000000000001,0.21000000000000005
9,17,33,1,5,0.9400000000000006,3,7,35,3,1,25,1.7700000000000011,0.3100000000000001,2.299999999999995,0.01,5,2,4,1,10,3,7,1,6,0,22,7,HL,0.17700000000000005,0.10333333333333336,0.32857142857142874,0.01
9,17,34,1,10,0.3900000000000002,2,4,16,15,39,19,1.3700000000000008,2.719999999999986,0.01,0.19000000000000003,4,6,1,3,14,8,1,3,6,0.5,41,7,HL,0.09785714285714286,0.3400000000000002,0.01,0.06333333333333332
9,18,35,1,6,0.11999999999999998,2,2,14,49,28,58,14.519999999999737,0.01,0.09,0.01,20,1,1,1,39,1,1,1,4,0,19,7,HL,0.3723076923076924,0.01,0.09,0.01
9,18,36,1,5,0.8100000000000005,3,5,3,1,74,11,2.4400000000000017,2.0300000000000007,0.24000000000000007,0.01,7,7,2,1,13,11,3,1,6,0.5,39,7,HL,0.18769230769230774,0.1845454545454546,0.08,0.01
9,19,37,1,1,0.3300000000000001,2,4,30,24,64,77,1.0000000000000004,4.989999999999938,0.5000000000000002,0.01,4,8,3,1,10,15,3,1,5,0,18,7,HL,0.10000000000000002,0.33266666666666683,0.1666666666666667,0.01
9,19,38,1,3,0.35000000000000014,4,6,45,55,47,88,0.9600000000000004,1.0200000000000007,0.24000000000000007,2.2799999999999954,6,2,2,5,10,6,2,13,5,0,17,7,HL,0.096,0.17000000000000004,0.12000000000000002,0.17538461538461544
9,20,39,1,2,0.4000000000000002,2,3,79,81,83,77,1.3900000000000008,0.09,0.21000000000000005,1.0500000000000007,4,1,1,4,8,1,1,4,3,1,36,7,HL,0.17375000000000002,0.09,0.21000000000000005,0.2625000000000001
9,20,40,1,4,0.3000000000000001,2,6,101,18,53,26,0.8800000000000003,0.6200000000000003,0.5300000000000002,0.35000000000000014,4,2,2,2,8,2,3,2,2,0,17,7,HL,0.11000000000000003,0.3100000000000001,0.1766666666666667,0.17500000000000002
9,21,41,1,6,0.5100000000000002,2,5,59,52,37,53,1.620000000000001,0.13999999999999999,0.4000000000000002,0.20000000000000004,4,1,2,1,10,1,5,1,4,0.5,29,7,HL,0.16200000000000003,0.13999999999999999,0.08000000000000002,0.20000000000000004
9,21,42,1,7,0.25000000000000006,2,4,91,94,86,17,0.7400000000000003,0.26000000000000006,0.5200000000000002,0.46000000000000024,4,1,2,2,6,1,2,3,3,0.5,24,7,HL,0.12333333333333336,0.26000000000000006,0.26000000000000006,0.15333333333333335
9,22,43,1,7,0.3200000000000001,2,3,96,93,71,14,0.9900000000000004,1.2000000000000008,0.09999999999999999,0.15,4,7,1,2,5,8,1,3,3,0,16,7,HL,0.19800000000000006,0.15000000000000005,0.09999999999999999,0.049999999999999996
9,22,44,1,1,0.22000000000000006,2,3,27,74,33,34,0.8100000000000004,0.9000000000000006,0.09999999999999999,0.060000000000000005,4,2,2,1,5,4,2,1,5,0.5,33,7,HL,0.16200000000000003,0.2250000000000001,0.049999999999999996,0.060000000000000005
11,1,1,0,9,0.20000000000000004,2,3,65,24,32,71,0.5400000000000001,0.05,0.6000000000000003,0.01,4,1,2,1,5,1,3,1,4,0,19,7,HL,0.10800000000000001,0.05,0.2000000000000001,0.01
11,1,2,0,3,0.24000000000000007,2,4,43,106,80,10,0.5400000000000001,0.07,0.05,0.08,4,1,1,1,6,1,1,1,5,0,16,7,HL,0.09000000000000001,0.07,0.05,0.08
11,2,3,0,1,0.3300000000000001,5,6,26,98,35,8,0.7000000000000003,0.20000000000000004,0.36000000000000015,0.01,6,2,2,1,7,2,2,1,5,0,18,7,HL,0.10000000000000002,0.09999999999999999,0.18000000000000005,0.01
11,2,4,0,8,0.23000000000000007,2,4,74,111,20,46,0.5600000000000002,0.05,0.10999999999999999,0.04,3,1,1,1,5,1,1,1,2,0,16,7,HL,0.11200000000000003,0.05,0.10999999999999999,0.04
11,3,5,0,2,0.23000000000000007,2,3,51,77,111,117,0.5900000000000002,0.04,0.12999999999999998,0.05,3,1,1,1,4,1,1,1,3,0,11,7,HL,0.14750000000000005,0.04,0.12999999999999998,0.05
11,3,6,0,1,0.20000000000000004,2,3,33,68,21,31,0.5100000000000001,0.16,0.03,0.060000000000000005,4,2,1,1,7,2,1,1,5,0,20,7,HL,0.07285714285714286,0.08,0.03,0.060000000000000005
11,4,7,0,8,0.18000000000000002,2,3,118,110,3,26,0.4900000000000001,0.04,0.18000000000000002,0.02,3,1,2,1,4,1,2,1,2,0,15,7,HL,0.12250000000000003,0.04,0.09,0.02
11,4,8,0,10,0.22000000000000006,2,4,22,18,74,73,0.4500000000000001,0.09999999999999999,0.15,0.060000000000000005,4,1,1,1,7,1,1,1,6,0,18,7,HL,0.0642857142857143,0.09999999999999999,0.15,0.060000000000000005
11,5,9,0,6,0.24000000000000007,2,4,52,49,47,42,0.5300000000000001,0.09999999999999999,0.15,0.13999999999999999,4,1,1,1,6,1,1,1,4,0,18,7,HL,0.08833333333333333,0.09999999999999999,0.15,0.13999999999999999
11,5,10,0,9,0.2800000000000001,9,10,66,9,68,77,0.9600000000000004,0.04,0.20000000000000004,0.01,11,2,1,1,13,2,1,1,4,0,17,7,HL,0.07384615384615387,0.02,0.20000000000000004,0.01
11,6,11,0,4,0.17,1,2,106,38,88,62,0.35000000000000003,0.24000000000000007,0.09999999999999999,0.05,2,1,1,1,3,1,1,1,2,0,14,7,HL,0.11666666666666667,0.24000000000000007,0.09999999999999999,0.05
11,6,12,0,5,0.3900000000000002,13,13,9,6,8,113,0.5700000000000002,0.6400000000000003,0.02,0.01,14,2,1,1,14,4,1,1,6,0.5,20,7,HL,0.04071428571428572,0.16000000000000006,0.02,0.01
11,7,13,1,8,0.26000000000000006,5,6,112,27,118,56,0.5200000000000001,0.24000000000000007,0.48000000000000026,0.01,7,2,2,1,8,3,2,1,2,0,13,7,HL,0.065,0.08,0.24000000000000013,0.01
11,7,14,1,3,0.21000000000000005,1,2,44,41,85,10,0.5100000000000001,0.03,0.18000000000000002,0.03,2,1,1,1,3,1,1,1,5,0,19,7,HL,0.17000000000000004,0.03,0.18000000000000002,0.03
11,8,15,1,10,0.19000000000000003,2,4,19,115,76,27,0.45000000000000007,1.470000000000001,0.3300000000000001,0.38000000000000017,4,4,2,1,6,4,2,1,6,0,16,7,HL,0.07500000000000001,0.3675000000000002,0.165,0.38000000000000017
11,8,16,1,6,0.19000000000000003,1,2,86,58,55,48,0.5500000000000002,0.03,0.060000000000000005,0.08,2,1,1,1,3,1,1,1,4,0,16,7,HL,0.18333333333333338,0.03,0.060000000000000005,0.08
11,9,17,1,10,0.17,2,4,59,19,29,58,0.5700000000000002,0.09,0.09999999999999999,0.3300000000000001,3,2,1,2,5,3,1,2,6,0,19,7,HL,0.11400000000000003,0.030000000000000002,0.09999999999999999,0.16500000000000006
11,9,18,1,2,0.20000000000000004,2,3,76,83,1,63,0.5100000000000001,0.05,0.07,1.8300000000000014,4,1,1,4,6,1,1,6,3,0,16,7,HL,0.085,0.05,0.07,0.30500000000000016
11,10,19,1,2,0.21000000000000005,1,2,81,32,31,107,0.7800000000000004,0.03,0.02,0.060000000000000005,3,1,1,1,4,1,1,1,3,0,15,7,HL,0.19500000000000006,0.03,0.02,0.060000000000000005
11,10,20,1,3,0.19000000000000003,2,3,44,42,37,20,0.5200000000000001,0.04,0.16,0.02,3,1,2,1,4,1,2,1,5,0.5,36,7,HL,0.13000000000000003,0.04,0.07999999999999999,0.02
11,11,21,1,5,0.24000000000000007,5,5,2,4,35,104,0.6000000000000002,0.01,0.11999999999999998,0.060000000000000005,7,1,1,1,8,1,1,1,6,0,19,7,HL,0.075,0.01,0.11999999999999998,0.060000000000000005
11,11,22,1,3,0.21000000000000005,2,6,42,40,77,15,0.5000000000000001,0.08,0.34000000000000014,0.03,4,1,1,1,8,1,1,1,5,0,19,7,HL,0.0625,0.08,0.34000000000000014,0.03
11,12,23,1,2,0.11999999999999998,2,2,31,24,71,35,1.3400000000000007,0.12999999999999998,0.02,0.9400000000000006,6,1,1,3,10,1,1,3,3,0,20,7,HL,0.13400000000000004,0.12999999999999998,0.02,0.3133333333333335
11,12,24,1,7,0.35000000000000014,12,13,102,43,10,7,0.6000000000000002,0.12999999999999998,0.7100000000000004,0.01,13,2,3,1,14,2,3,1,3,0,19,7,HL,0.042857142857142864,0.06499999999999999,0.23666666666666678,0.01
11,13,25,1,7,0.17,3,4,42,87,10,104,0.5100000000000001,0.03,0.09,0.07,4,1,1,1,5,1,1,1,3,0,16,7,HL,0.10200000000000002,0.03,0.09,0.07
11,13,26,1,2,0.4400000000000002,10,10,80,118,110,55,0.7500000000000003,3.47999999999997,1.6400000000000012,0.07,11,4,3,2,11,4,4,2,3,0,11,7,HL,0.0681818181818182,0.8700000000000007,0.41000000000000025,0.035
11,14,27,1,6,0.18000000000000002,2,4,3,52,59,91,0.5100000000000001,0.02,0.45000000000000023,0.01,3,1,2,1,5,1,2,1,4,0,17,7,HL,0.10200000000000002,0.02,0.2250000000000001,0.01
11,14,28,1,8,0.20000000000000004,2,3,112,118,115,66,0.45000000000000007,0.07,0.09999999999999999,0.12999999999999998,4,1,1,1,5,1,1,1,2,0.5,16,7,HL,0.09000000000000001,0.07,0.09999999999999999,0.12999999999999998
11,15,29,1,1,0.25000000000000006,2,3,61,25,86,12,0.7100000000000003,0.03,0.4300000000000002,0.01,3,1,2,1,4,1,2,1,5,0,18,7,HL,0.17750000000000005,0.03,0.2150000000000001,0.01
11,15,30,1,6,0.22000000000000006,3,4,53,60,14,46,0.4800000000000001,0.04,0.19000000000000003,0.01,4,1,2,1,5,1,2,1,4,0,19,7,HL,0.09600000000000002,0.04,0.095,0.01
11,16,31,1,2,0.19000000000000003,4,6,80,58,75,98,0.4600000000000001,0.08,0.20000000000000004,0.07,6,1,3,1,8,1,3,1,3,0,12,7,HL,0.05750000000000001,0.08,0.06666666666666667,0.07
11,16,32,1,1,0.26000000000000006,8,8,85,116,93,88,0.8600000000000003,0.04,0.6400000000000003,0.01,10,2,3,1,12,2,3,1,5,0.5,20,7,HL,0.07166666666666668,0.02,0.2133333333333334,0.01
11,17,33,1,2,0.22000000000000006,2,4,76,31,9,84,0.6800000000000003,0.22000000000000006,0.01,0.01,4,1,1,1,6,1,1,1,3,0,17,7,HL,0.11333333333333337,0.22000000000000006,0.01,0.01
11,17,34,1,9,0.26000000000000006,5,6,99,69,19,16,0.6900000000000003,0.04,0.03,1.8900000000000015,6,1,1,6,7,1,1,7,4,0,18,7,HL,0.0985714285714286,0.04,0.03,0.27000000000000013
11,18,35,1,6,0.10999999999999999,2,2,56,118,92,114,1.0900000000000007,0.01,0.38000000000000017,0.01,4,1,4,1,4,1,4,1,4,0,11,7,HL,0.27250000000000013,0.01,0.095,0.01
11,18,36,1,2,0.22000000000000006,2,3,79,64,102,19,0.5700000000000002,0.060000000000000005,0.26000000000000006,0.05,4,1,1,1,5,1,1,1,3,0,15,7,HL,0.11400000000000002,0.060000000000000005,0.26000000000000006,0.05
11,19,37,1,4,0.4400000000000002,16,17,98,95,102,87,0.5400000000000003,0.7800000000000005,0.03,0.01,18,3,1,1,20,4,1,1,2,0,10,7,HL,0.027,0.1950000000000001,0.03,0.01
11,19,38,1,2,0.16,4,4,117,64,84,39,1.1100000000000005,0.8700000000000006,0.01,0.02,7,2,1,1,10,2,1,1,3,0,14,7,HL,0.11100000000000002,0.4350000000000002,0.01,0.02
11,20,39,1,2,0.18000000000000002,2,3,66,80,43,14,0.5500000000000002,0.04,0.13999999999999999,0.02,3,1,1,1,4,1,1,1,3,0,18,7,HL,0.13750000000000004,0.04,0.13999999999999999,0.02
11,20,40,1,6,0.2700000000000001,2,4,49,57,30,52,0.5100000000000001,0.13999999999999999,0.12999999999999998,0.060000000000000005,4,1,1,2,6,1,1,3,4,0.5,29,7,HL,0.085,0.13999999999999999,0.12999999999999998,0.02
11,21,41,1,7,0.18000000000000002,2,3,96,30,95,63,0.39000000000000007,0.18000000000000002,0.22000000000000006,0.060000000000000005,4,1,2,1,5,1,3,1,3,0,15,7,HL,0.078,0.18000000000000002,0.07333333333333333,0.060000000000000005
11,21,42,1,10,0.3000000000000001,2,4,19,24,116,49,0.6400000000000002,0.04,0.05,0.07,3,1,1,1,5,1,1,1,6,0,18,7,HL,0.12800000000000003,0.04,0.05,0.07
11,22,43,1,2,0.3000000000000001,4,5,21,81,47,14,0.6000000000000002,3.099999999999978,0.5100000000000002,0.01,5,5,1,1,6,5,1,1,3,0,20,7,HL,0.10000000000000002,0.6200000000000003,0.5100000000000002,0.01
11,22,44,1,7,0.19000000000000003,2,3,88,89,94,7,0.4300000000000001,0.16,0.01,0.18000000000000002,3,2,1,1,4,2,1,1,3,0.5,24,7,HL,0.10750000000000003,0.07999999999999999,0.01,0.18000000000000002
12,1,1,0,4,0.17,2,4,107,11,84,72,0.4800000000000001,0.25000000000000006,0.08,0.060000000000000005,5,2,1,1,8,2,1,1,2,0,15,7,HL,0.060000000000000005,0.12500000000000003,0.08,0.060000000000000005
12,1,2,0,3,0.16,2,3,54,47,118,93,0.6600000000000003,0.05,0.19000000000000003,0.04,4,1,2,1,8,1,3,1,5,0,14,7,HL,0.0825,0.05,0.06333333333333334,0.04
12,2,3,0,5,0.09,2,2,3,58,28,60,6.549999999999907,0.01,0.01,0.01,20,1,1,1,42,1,1,1,6,0,19,7,HL,0.15595238095238098,0.01,0.01,0.01
12,2,4,0,10,0.13999999999999999,2,5,45,44,68,24,0.6200000000000002,0.11999999999999998,0.12999999999999998,0.3100000000000001,4,1,2,4,8,1,2,7,6,0,20,7,HL,0.0775,0.11999999999999998,0.065,0.04428571428571428
12,3,5,0,10,0.18000000000000002,2,4,44,14,59,20,0.4900000000000001,0.11999999999999998,0.09999999999999999,0.6300000000000003,3,2,1,3,5,2,1,3,6,0,21,7,HL,0.09800000000000002,0.05999999999999999,0.09999999999999999,0.21000000000000008
12,3,6,0,9,0.17,2,5,66,36,68,79,0.5800000000000002,0.13999999999999999,0.07,0.38000000000000017,4,2,1,3,7,3,1,3,4,0,16,7,HL,0.08285714285714287,0.04666666666666667,0.07,0.12666666666666668
12,4,7,0,8,0.12999999999999998,2,4,13,26,64,115,25.290000000001132,0.01,0.01,0.01,20,1,1,1,164,1,1,1,2,0,17,7,HL,0.15420731707317079,0.01,0.01,0.01
12,4,8,0,2,0.18000000000000002,2,3,76,84,97,99,0.4800000000000001,1.270000000000001,0.01,0.7000000000000004,5,7,1,2,7,7,1,2,3,0,10,7,HL,0.06857142857142857,0.1814285714285715,0.01,0.3500000000000002
12,5,9,0,10,0.13999999999999999,2,3,45,105,80,48,0.7700000000000004,0.08,0.18000000000000002,0.13999999999999999,4,1,1,2,6,1,1,2,6,0,15,7,HL,0.12833333333333335,0.08,0.18000000000000002,0.06999999999999999
12,5,10,0,5,0.18000000000000002,2,4,5,4,26,111,0.6200000000000002,1.5700000000000012,0.01,0.01,4,7,1,1,8,7,1,1,6,0,19,7,HL,0.0775,0.22428571428571437,0.01,0.01
12,6,11,0,1,0.16,2,6,29,79,83,80,0.38000000000000006,0.3300000000000001,0.08,1.1100000000000008,4,3,1,4,8,3,1,4,5,0.5,14,7,HL,0.0475,0.10999999999999999,0.08,0.27750000000000014
12,6,12,0,3,0.13999999999999999,2,3,46,62,107,39,0.3,0.3100000000000001,0.09999999999999999,0.060000000000000005,3,2,1,2,4,2,1,2,5,0,16,7,HL,0.075,0.15500000000000003,0.09999999999999999,0.03
12,7,13,1,1,0.10999999999999999,2,3,29,100,102,66,0.6700000000000003,0.08,0.09999999999999999,0.13999999999999999,4,1,1,2,7,1,1,2,5,0,13,7,HL,0.09571428571428572,0.08,0.09999999999999999,0.07
12,7,14,1,3,0.12999999999999998,2,3,39,115,5,77,0.35000000000000003,0.5200000000000002,0.04,0.03,4,2,1,1,5,3,1,1,5,0,16,7,HL,0.07,0.17333333333333334,0.04,0.03
12,8,15,1,5,0.17,2,3,10,12,4,53,0.4900000000000001,0.11999999999999998,0.5200000000000002,0.11999999999999998,4,1,4,1,7,1,4,1,6,0.5,40,7,HL,0.07,0.11999999999999998,0.13000000000000003,0.11999999999999998
12,8,16,1,9,0.15,2,3,71,16,65,85,0.4800000000000001,0.37000000000000016,0.01,0.17,3,4,1,1,4,4,1,1,4,0,17,7,HL,0.12000000000000004,0.0925,0.01,0.17
12,9,17,1,7,0.15,2,3,92,93,96,97,1.2200000000000006,0.5000000000000002,0.05,0.35000000000000014,5,4,1,4,8,5,1,4,3,0.5,20,7,HL,0.15250000000000008,0.10000000000000002,0.05,0.08750000000000001
12,9,18,1,8,0.13999999999999999,2,3,80,114,6,11,0.7100000000000003,0.01,0.05,0.12999999999999998,4,1,1,2,5,1,1,2,2,0,17,7,HL,0.14200000000000004,0.01,0.05,0.06499999999999999
12,10,19,1,6,0.13999999999999999,1,2,118,56,94,59,0.5700000000000002,0.060000000000000005,0.5600000000000003,0.01,3,1,3,1,5,1,3,1,4,0,13,7,HL,0.11400000000000002,0.060000000000000005,0.18666666666666676,0.01
12,10,20,1,2,0.24000000000000007,2,4,73,79,34,103,0.6300000000000002,0.17,0.10999999999999999,0.17,4,1,2,2,8,1,2,2,3,0,13,7,HL,0.07875,0.17,0.05500000000000001,0.08499999999999999
12,11,21,1,10,0.21000000000000005,4,6,24,16,101,14,0.6400000000000002,0.05,0.09,0.04,6,1,1,1,10,1,1,1,6,0.5,38,7,HL,0.064,0.05,0.09,0.04
12,11,22,1,9,0.12999999999999998,3,4,71,32,118,72,0.37000000000000005,0.20000000000000004,0.07,0.02,5,2,1,1,8,2,1,1,4,0,15,7,HL,0.04625,0.1,0.07,0.02
12,12,23,1,7,0.11999999999999998,2,3,87,93,42,99,0.48000000000000015,0.09,0.12999999999999998,0.09999999999999999,4,1,1,1,6,1,1,1,3,0,13,7,HL,0.08,0.09,0.12999999999999998,0.09999999999999999
12,12,24,1,10,0.21000000000000005,2,3,28,50,80,120,3.7099999999999693,0.01,0.5300000000000002,0.4000000000000002,15,1,2,3,31,1,2,3,6,0,14,7,HL,0.11967741935483873,0.01,0.2650000000000001,0.1333333333333334
12,13,25,1,5,0.7100000000000004,4,7,95,46,88,7,1.2800000000000007,0.03,0.04,0.26000000000000006,8,1,1,2,13,1,1,2,6,0,17,7,HL,0.09846153846153848,0.03,0.04,0.13000000000000003
12,13,26,1,4,0.13999999999999999,2,3,98,102,74,73,0.5400000000000001,0.13999999999999999,0.9700000000000006,0.7400000000000004,4,1,2,2,6,1,3,2,2,0,10,7,HL,0.09000000000000001,0.13999999999999999,0.32333333333333353,0.37000000000000016
12,14,27,1,4,0.10999999999999999,2,3,53,87,94,34,0.9400000000000005,0.03,0.01,0.13999999999999999,5,1,1,3,8,1,1,3,2,0,15,7,HL,0.11750000000000003,0.03,0.01,0.04666666666666666
12,14,28,1,8,0.20000000000000004,2,4,114,119,40,41,0.5000000000000001,0.17,0.10999999999999999,0.03,4,2,1,1,6,3,1,1,2,0,14,7,HL,0.08333333333333334,0.05666666666666666,0.10999999999999999,0.03
12,15,29,1,10,0.11999999999999998,1,2,24,20,74,59,0.6600000000000003,0.09,0.03,0.4300000000000002,5,1,1,4,8,1,1,4,6,0,19,7,HL,0.0825,0.09,0.03,0.10750000000000001
12,15,30,1,5,0.20000000000000004,2,5,96,62,66,6,0.6100000000000002,0.060000000000000005,0.3100000000000001,0.37000000000000016,4,1,2,3,8,1,3,3,6,0,17,7,HL,0.07625000000000001,0.060000000000000005,0.10333333333333335,0.12333333333333335
12,16,31,1,2,0.36000000000000015,5,7,80,38,77,5,0.6200000000000002,0.15,0.05,0.3200000000000001,7,1,1,1,11,1,1,1,3,0,17,7,HL,0.05636363636363636,0.15,0.05,0.3200000000000001
12,16,32,1,7,0.48000000000000026,5,7,33,14,18,99,0.7200000000000003,0.38000000000000017,1.1700000000000008,0.5000000000000002,6,2,5,4,8,2,5,4,3,0,19,7,HL,0.09000000000000001,0.19000000000000006,0.2340000000000001,0.125
12,17,33,1,5,0.12999999999999998,2,3,7,3,28,67,0.4900000000000001,11.4799999999998,0.01,0.01,4,19,1,1,5,69,1,1,6,0,21,7,HL,0.098,0.16637681159420295,0.01,0.01
12,17,34,1,10,0.11999999999999998,2,5,45,15,22,13,0.49000000000000016,0.07,0.11999999999999998,1.1700000000000008,4,1,2,6,8,1,2,6,6,0.5,41,7,HL,0.061250000000000006,0.07,0.060000000000000005,0.19500000000000006
12,18,35,1,10,0.15,2,3,16,56,36,113,0.35000000000000003,0.22000000000000006,0.5500000000000003,0.09999999999999999,4,2,3,1,5,4,6,1,6,0,17,7,HL,0.07,0.055,0.09166666666666667,0.09999999999999999
12,18,36,1,9,0.18000000000000002,3,4,65,98,68,101,0.38000000000000006,0.26000000000000006,0.8400000000000005,0.23000000000000007,5,3,2,4,6,3,2,4,4,0,12,7,HL,0.06333333333333334,0.08666666666666667,0.42000000000000026,0.057499999999999996
12,19,37,1,10,0.16,2,3,25,15,26,21,0.5700000000000002,0.10999999999999999,0.17,1.270000000000001,3,1,2,6,4,1,3,7,6,0,22,7,HL,0.14250000000000004,0.10999999999999999,0.056666666666666664,0.1814285714285715
12,19,38,1,7,0.4100000000000002,4,6,61,85,4,71,0.7400000000000003,0.12999999999999998,0.09999999999999999,0.01,6,1,1,1,9,2,1,1,3,0,17,7,HL,0.08222222222222221,0.06499999999999999,0.09999999999999999,0.01
12,20,39,1,2,0.12999999999999998,2,3,72,68,83,2,0.4900000000000001,0.49000000000000027,0.10999999999999999,0.01,5,4,2,1,6,4,2,1,3,0,17,7,HL,0.08166666666666668,0.12250000000000001,0.05500000000000001,0.01
12,20,40,1,10,0.21000000000000005,2,4,13,90,21,104,0.5400000000000001,0.34000000000000014,0.09,0.05,4,2,1,2,6,3,1,2,6,0,17,7,HL,0.09000000000000001,0.11333333333333334,0.09,0.025
12,21,41,1,5,0.3200000000000001,3,4,8,72,70,2,0.5000000000000001,0.060000000000000005,0.25000000000000006,0.18000000000000002,5,1,2,2,6,1,5,2,6,0,20,7,HL,0.08333333333333333,0.060000000000000005,0.049999999999999996,0.09
12,21,42,1,10,0.13999999999999999,2,3,55,53,16,105,0.4700000000000001,0.21000000000000005,0.03,0.25000000000000006,4,2,1,3,6,3,2,3,6,0,16,7,HL,0.07833333333333332,0.07,0.015,0.08333333333333333
12,22,43,1,9,0.20000000000000004,3,4,71,89,116,19,0.6100000000000002,0.07,0.08,0.05,6,2,2,1,10,2,2,1,4,0,15,7,HL,0.061,0.035,0.04,0.05
12,22,44,1,5,0.26000000000000006,2,3,8,33,6,49,0.5700000000000002,0.24000000000000007,0.7400000000000004,0.4400000000000002,4,2,5,4,5,6,8,4,6,0,21,7,HL,0.11400000000000002,0.04,0.09250000000000001,0.11000000000000001
13,1,1,0,5,0.15,2,3,7,11,106,92,0.4,0.03,0.12999999999999998,0.07,4,1,1,1,6,1,1,1,6,0,17,7,HL,0.06666666666666667,0.03,0.12999999999999998,0.07
13,1,2,0,6,0.15,2,3,51,60,57,19,0.37000000000000005,0.060000000000000005,0.09,0.09999999999999999,3,1,1,1,4,1,1,1,4,0.5,18,7,HL,0.09250000000000001,0.060000000000000005,0.09,0.09999999999999999
13,2,3,0,10,0.15,2,3,60,24,51,48,0.4800000000000001,0.02,0.13999999999999999,1.0500000000000007,3,1,2,2,4,1,2,2,6,0,19,7,HL,0.12000000000000004,0.02,0.07,0.5250000000000004
13,2,4,0,4,0.12999999999999998,3,3,76,100,104,65,3.8499999999999646,0.01,2.669999999999987,3.239999999999975,8,1,2,8,9,1,2,10,2,0,11,7,HL,0.42777777777777803,0.01,1.3349999999999935,0.3240000000000001
13,3,5,0,8,0.16,2,3,78,118,53,77,0.5300000000000001,0.01,0.060000000000000005,0.11999999999999998,3,1,1,1,4,1,1,1,2,0,12,7,HL,0.13250000000000003,0.01,0.060000000000000005,0.11999999999999998
13,3,6,0,10,0.17,2,3,18,19,17,86,0.38000000000000006,0.05,1.0700000000000007,0.5400000000000003,3,1,3,2,4,1,3,2,6,0.5,21,7,HL,0.09500000000000001,0.05,0.35666666666666685,0.27000000000000013
13,4,7,0,4,0.18000000000000002,3,4,3,103,72,80,0.6000000000000002,0.02,0.060000000000000005,0.01,4,1,1,1,5,1,1,1,2,0,15,7,HL,0.12000000000000004,0.02,0.060000000000000005,0.01
13,4,8,0,8,0.23000000000000007,9,10,113,112,111,38,0.3400000000000001,0.17,0.05,0.07,10,2,1,1,11,2,1,1,2,0.5,11,7,HL,0.030909090909090907,0.08499999999999999,0.05,0.07
13,5,9,0,10,0.15,2,4,24,68,85,16,0.29,0.2800000000000001,0.09,0.02,4,2,1,1,6,3,1,1,6,0,19,7,HL,0.04833333333333333,0.09333333333333334,0.09,0.02
13,5,10,0,8,2.7399999999999856,4,5,116,44,115,46,3.0299999999999856,0.11999999999999998,0.04,0.07,6,1,1,1,7,1,1,1,2,0,14,7,HL,0.4328571428571409,0.11999999999999998,0.04,0.07
13,6,11,0,3,0.16,2,3,39,45,92,6,0.36000000000000004,2.06,0.4300000000000002,0.01,4,3,4,1,5,3,4,1,5,0,19,7,HL,0.072,0.6866666666666671,0.10750000000000001,0.01
13,6,12,0,9,0.17,3,4,69,33,65,107,0.43000000000000005,0.02,0.060000000000000005,0.15,5,1,1,2,6,1,1,2,4,0,15,7,HL,0.07166666666666667,0.02,0.060000000000000005,0.075
13,7,13,1,4,0.25000000000000006,7,8,108,93,3,92,0.44000000000000006,0.11999999999999998,0.6600000000000004,0.01,9,1,2,1,10,1,3,1,2,0,14,7,HL,0.044,0.11999999999999998,0.22000000000000008,0.01
13,7,14,1,2,0.09,2,3,84,73,40,118,2.2099999999999986,2.7799999999999847,0.01,0.02,8,2,1,1,9,2,1,1,3,0,13,7,HL,0.24555555555555567,1.3899999999999926,0.01,0.02
13,8,15,1,10,0.4000000000000002,4,5,19,65,105,16,0.5000000000000002,0.25000000000000006,2.259999999999996,0.4300000000000002,5,1,4,2,6,1,4,2,6,0,18,7,HL,0.08333333333333334,0.25000000000000006,0.5650000000000003,0.21500000000000008
13,8,16,1,1,0.16,2,3,74,30,35,60,0.38000000000000006,0.07,0.24000000000000007,0.01,3,1,5,1,4,1,5,1,5,0,17,7,HL,0.09500000000000001,0.07,0.048,0.01
13,9,17,1,3,0.20000000000000004,2,3,44,46,84,78,0.4700000000000001,0.060000000000000005,0.07,0.03,3,1,1,1,4,1,1,1,5,0,16,7,HL,0.11750000000000002,0.060000000000000005,0.07,0.03
13,9,18,1,8,0.11999999999999998,2,3,115,117,90,21,0.32,0.07,0.05,0.05,4,1,1,1,5,1,1,1,2,0,13,7,HL,0.064,0.07,0.05,0.05
13,10,19,1,5,0.11999999999999998,2,3,8,70,40,84,0.35000000000000003,0.04,0.5800000000000003,0.09999999999999999,4,1,2,1,5,1,3,1,6,0,18,7,HL,0.07,0.04,0.1933333333333334,0.09999999999999999
13,10,20,1,1,0.16,2,3,20,28,21,110,0.42000000000000004,0.04,0.08,0.11999999999999998,3,1,1,1,4,1,1,1,5,0,19,7,HL,0.10500000000000002,0.04,0.08,0.11999999999999998
13,11,21,1,1,0.15,2,3,33,20,61,23,0.44000000000000006,0.10999999999999999,0.02,0.08,4,1,1,1,5,1,1,1,5,0,21,7,HL,0.08800000000000001,0.10999999999999999,0.02,0.08
13,11,22,1,3,0.7700000000000005,2,4,74,47,41,44,1.1400000000000006,0.05,0.01,0.04,4,1,1,1,6,1,1,1,5,0.5,33,7,HL,0.19000000000000006,0.05,0.01,0.04
13,12,23,1,9,0.11999999999999998,2,3,72,65,27,66,0.31,0.07,0.36000000000000015,0.01,3,1,1,1,4,1,1,1,4,0.5,29,7,HL,0.07750000000000001,0.07,0.36000000000000015,0.01
13,12,24,1,3,0.09,2,2,100,75,47,23,1.7000000000000013,0.6600000000000004,0.060000000000000005,2.4599999999999915,5,2,1,3,5,2,1,4,5,0,16,7,HL,0.3400000000000002,0.3300000000000002,0.060000000000000005,0.6150000000000004
13,13,25,1,7,0.09999999999999999,2,3,90,87,100,92,0.28,0.05,0.15,0.03,3,1,2,2,4,1,2,2,3,0.5,20,7,HL,0.07,0.05,0.07499999999999998,0.015
13,13,26,1,3,0.09999999999999999,3,5,41,40,116,6,0.28,0.060000000000000005,0.16,0.04,4,1,1,1,6,1,1,1,5,0,18,7,HL,0.04666666666666667,0.060000000000000005,0.16,0.04
13,14,27,1,9,0.10999999999999999,2,3,68,67,63,20,0.29000000000000004,0.060000000000000005,0.08,0.4300000000000002,3,1,1,1,4,1,1,1,4,0.5,30,7,HL,0.07250000000000001,0.060000000000000005,0.08,0.4300000000000002
13,14,28,1,4,0.12999999999999998,2,4,101,8,29,108,0.26999999999999996,0.10999999999999999,0.16,0.03,4,1,1,1,6,1,1,1,2,0,15,7,HL,0.045,0.10999999999999999,0.16,0.03
13,15,29,1,4,0.20000000000000004,2,3,64,100,87,63,0.5400000000000001,0.03,0.4100000000000002,0.01,3,1,2,1,4,1,2,1,2,0,13,7,HL,0.13500000000000004,0.03,0.2050000000000001,0.01
13,15,30,1,8,0.15,1,2,77,120,16,73,0.6000000000000002,0.01,0.5800000000000003,0.01,2,1,3,1,3,1,3,1,2,0,14,7,HL,0.20000000000000007,0.01,0.1933333333333334,0.01
13,16,31,1,8,0.36000000000000015,5,6,120,25,119,83,1.610000000000001,0.01,0.01,0.24000000000000007,8,1,1,3,9,1,1,3,2,0,12,7,HL,0.17888888888888899,0.01,0.01,0.08
13,16,32,1,7,0.18000000000000002,2,3,89,44,17,42,0.25,1.8700000000000014,0.01,0.01,3,2,1,1,4,2,1,1,3,0,19,7,HL,0.0625,0.9350000000000007,0.01,0.01
13,17,33,1,1,0.22000000000000006,2,4,32,28,25,66,0.4100000000000001,0.11999999999999998,0.47000000000000025,0.01,4,1,2,1,6,1,2,1,5,0.5,34,7,HL,0.06833333333333333,0.11999999999999998,0.23500000000000013,0.01
13,17,34,1,8,0.16,2,3,118,111,43,50,0.29,0.34000000000000014,0.04,0.16,3,2,1,2,4,2,1,2,2,0,13,7,HL,0.0725,0.17000000000000007,0.04,0.08
13,18,35,1,2,0.10999999999999999,2,3,81,79,56,46,0.29000000000000004,0.15,0.9000000000000006,0.01,3,2,2,1,4,3,2,1,3,0,15,7,HL,0.07250000000000001,0.04999999999999999,0.4500000000000003,0.01
13,18,36,1,7,0.13999999999999999,3,5,91,94,7,66,0.39,0.04,0.060000000000000005,2.4999999999999907,5,1,1,4,7,1,1,5,3,0,16,7,HL,0.05571428571428572,0.04,0.060000000000000005,0.5000000000000002
13,19,37,1,9,0.8400000000000005,4,5,4,72,95,8,1.0400000000000005,0.10999999999999999,0.04,0.03,5,1,1,1,6,1,1,1,4,0,19,7,HL,0.17333333333333342,0.10999999999999999,0.04,0.03
13,19,38,1,10,0.16,2,3,60,18,40,119,0.38000000000000006,0.11999999999999998,0.08,0.36000000000000015,3,2,1,1,4,2,1,2,6,0,17,7,HL,0.09500000000000001,0.06,0.08,0.18000000000000002
13,20,39,1,8,0.13999999999999999,2,3,15,118,110,13,0.4,0.01,0.09999999999999999,0.08,3,1,1,1,4,1,1,1,2,0,16,7,HL,0.10000000000000002,0.01,0.09999999999999999,0.08
13,20,40,1,2,1.0100000000000007,2,3,47,105,6,77,1.3000000000000007,0.12999999999999998,0.03,0.04,3,1,1,1,4,1,1,1,3,0,16,7,HL,0.3250000000000001,0.12999999999999998,0.03,0.04
13,21,41,1,4,0.17,3,5,108,21,20,101,0.31,0.16,0.07,1.1800000000000008,4,1,1,2,6,1,1,2,2,0,16,7,HL,0.051666666666666666,0.16,0.07,0.5900000000000004
13,21,42,1,8,0.21000000000000005,4,5,110,52,58,96,0.8300000000000004,0.03,0.02,0.7400000000000004,7,1,1,2,9,1,1,2,2,0,13,7,HL,0.09222222222222225,0.03,0.02,0.3700000000000002
13,22,43,1,9,0.4200000000000002,2,3,64,61,73,65,0.6800000000000003,0.09,0.7800000000000005,0.01,4,1,4,1,5,1,4,1,4,0.5,27,7,HL,0.13600000000000004,0.09,0.19500000000000006,0.01
13,22,44,1,10,0.20000000000000004,2,5,20,116,43,14,0.39000000000000007,0.3300000000000001,0.04,0.38000000000000017,4,2,1,2,7,2,1,3,6,0,19,7,HL,0.05571428571428571,0.165,0.04,0.1266666666666667
14,1,1,0,7,0.19000000000000003,2,3,108,96,63,21,0.6300000000000002,0.09,0.17,0.08,4,2,2,2,6,3,3,2,3,0,15,7,HL,0.10500000000000001,0.03,0.056666666666666664,0.04
14,1,2,0,6,0.21000000000000005,2,5,38,53,75,84,0.6800000000000003,0.03,0.15,0.07,4,1,1,1,10,1,1,1,4,0,15,7,HL,0.068,0.03,0.15,0.07
14,2,3,0,8,0.18000000000000002,2,3,117,111,109,76,0.4600000000000001,0.19000000000000003,0.16,0.05,4,1,2,1,5,1,2,1,2,0.5,9,7,HL,0.09200000000000001,0.19000000000000003,0.08,0.05
