Subject,Round,Phase,afterbreak,Schema,Schema_RT,Schema_OB,Schema_AS,Cho_1,Cho_2,Cho_3,Cho_4,RT_1,RT_2,RT_3,RT_4,OB_1,OB_2,OB_3,OB_4,AS_1,AS_2,AS_3,AS_4,schema_payoff,AC,performance,breakR,type,dwellmean_1,dwellmean_2,dwellmean_3,dwellmean_4
1,1,1,0,5,0.09,2,2,12,6,116,95,0.3600000000000001,0.09,0.09999999999999999,0.02,4,1,1,1,4,1,1,1,5,0,17,7,H,0.09000000000000001,0.09,0.09999999999999999,0.02
1,1,2,0,1,0.13999999999999999,2,5,30,75,15,101,0.36000000000000004,0.04,0.07,0.05,3,1,2,1,6,1,2,1,3,0,16,7,H,0.06000000000000001,0.04,0.035,0.05
1,2,3,0,1,0.10999999999999999,2,3,83,18,21,119,0.26,0.13999999999999999,0.060000000000000005,0.05,4,1,1,1,5,1,1,1,3,0,17,7,H,0.052,0.13999999999999999,0.060000000000000005,0.05
1,2,4,0,6,0.09,2,2,3,95,99,105,0.20999999999999996,0.47000000000000025,0.12999999999999998,0.46000000000000024,3,2,2,2,3,3,2,2,6,0,13,7,H,0.06999999999999999,0.1566666666666667,0.065,0.23000000000000012
1,3,5,0,9,0.09,2,2,66,70,68,8,0.20999999999999996,0.09,0.060000000000000005,0.07,3,1,1,1,3,1,1,1,4,0.5,18,7,H,0.06999999999999999,0.09,0.060000000000000005,0.07
1,3,6,0,7,0.10999999999999999,2,3,21,48,20,40,0.4300000000000001,0.12999999999999998,0.10999999999999999,0.7500000000000004,4,1,2,4,5,1,2,4,6,0,22,7,H,0.08600000000000002,0.12999999999999998,0.05499999999999999,0.18750000000000008
1,4,7,0,1,0.11999999999999998,2,4,6,80,2,49,0.37000000000000005,0.02,0.2800000000000001,0.04,4,1,1,1,7,1,1,1,3,0,19,7,H,0.05285714285714286,0.02,0.2800000000000001,0.04
1,4,8,0,7,0.09,2,2,17,14,115,13,0.27,0.16,1.8600000000000014,1.6400000000000012,4,2,10,3,5,3,12,3,6,0.5,20,7,H,0.054,0.05333333333333333,0.15500000000000003,0.546666666666667
1,5,9,0,5,0.09999999999999999,2,2,47,101,75,48,0.26,0.3200000000000001,0.02,0.01,3,2,1,1,3,3,1,1,5,0,15,7,H,0.08666666666666667,0.10666666666666667,0.02,0.01
1,5,10,0,10,0.09999999999999999,3,3,95,67,3,6,0.19999999999999998,0.4100000000000002,0.03,0.18000000000000002,4,1,1,2,4,1,1,2,3,0,19,7,H,0.049999999999999996,0.4100000000000002,0.03,0.09000000000000001
1,6,11,0,5,0.10999999999999999,2,3,39,10,110,50,0.3500000000000001,0.15,0.01,0.07,4,2,1,1,5,2,1,1,5,0,17,7,H,0.07,0.075,0.01,0.07
1,6,12,0,7,0.09,2,2,22,31,69,32,0.21999999999999997,0.24000000000000007,0.05,1.1500000000000008,3,1,1,3,3,1,1,3,6,0,20,7,H,0.07333333333333333,0.24000000000000007,0.05,0.3833333333333335
1,7,13,1,14,0.09,2,2,35,93,111,116,0.3900000000000001,0.01,0.05,0.05,4,1,1,1,4,1,1,1,3,0,12,7,H,0.09750000000000002,0.01,0.05,0.05
1,7,14,1,7,0.09999999999999999,2,2,11,41,104,81,0.22999999999999998,0.6200000000000003,0.08,0.2900000000000001,3,2,1,3,3,4,1,3,6,0,16,7,H,0.07666666666666666,0.15500000000000005,0.08,0.09666666666666668
1,8,15,1,14,0.13999999999999999,2,3,107,96,54,21,0.35000000000000003,0.060000000000000005,0.13999999999999999,0.02,3,1,2,1,4,1,2,1,3,0,15,7,H,0.08750000000000001,0.060000000000000005,0.06999999999999999,0.02
1,8,16,1,3,0.08,2,2,31,118,65,30,0.3700000000000001,0.18000000000000002,0.02,0.08,4,2,1,1,4,4,1,1,5,0,16,7,H,0.09250000000000001,0.045000000000000005,0.02,0.08
1,9,17,1,8,0.09,2,2,98,26,22,90,0.21999999999999997,0.21000000000000005,0.03,0.060000000000000005,3,2,1,1,3,2,1,1,2,0,16,7,H,0.07333333333333333,0.10499999999999998,0.03,0.060000000000000005
1,9,18,1,13,0.17,3,3,110,118,74,43,0.4000000000000001,0.10999999999999999,0.03,0.04,5,2,1,1,8,3,1,1,2,0,12,7,H,0.049999999999999996,0.03666666666666667,0.03,0.04
1,10,19,1,8,0.060000000000000005,2,2,103,101,36,16,0.19999999999999998,0.13999999999999999,0.17,0.5500000000000003,3,1,2,2,3,1,2,2,2,0,15,7,H,0.06666666666666667,0.13999999999999999,0.08499999999999999,0.27500000000000013
1,10,20,1,14,0.10999999999999999,2,2,92,62,37,61,0.24999999999999997,0.2800000000000001,0.04,0.02,3,3,1,1,3,4,1,1,3,0,16,7,H,0.08333333333333333,0.07,0.04,0.02
1,11,21,1,1,0.10999999999999999,2,4,81,18,30,28,0.28,0.20000000000000004,0.03,0.9400000000000006,4,2,1,2,8,2,1,2,3,0,19,7,H,0.035,0.09999999999999999,0.03,0.4700000000000003
1,11,22,1,14,0.10999999999999999,2,2,87,65,64,106,0.49000000000000016,0.7700000000000005,0.09,0.9200000000000006,4,2,1,5,8,3,1,5,3,0,13,7,H,0.061250000000000006,0.25666666666666677,0.09,0.18400000000000008
1,12,23,1,14,0.09999999999999999,2,3,92,91,44,93,0.31000000000000005,0.03,0.09999999999999999,0.03,4,1,2,1,5,1,3,1,3,0.5,14,7,H,0.062,0.03,0.03333333333333333,0.03
1,12,24,1,1,0.11999999999999998,2,2,80,84,32,114,0.26999999999999996,0.07,0.05,0.04,4,1,1,1,5,1,1,1,3,0,13,7,H,0.054,0.07,0.05,0.04
1,13,25,1,7,0.10999999999999999,2,2,101,27,103,105,0.4100000000000001,0.04,0.04,0.03,4,1,1,1,4,1,1,1,6,0.5,11,7,H,0.10250000000000001,0.04,0.04,0.03
1,13,26,1,1,0.09999999999999999,2,6,82,116,84,109,0.31000000000000005,0.48000000000000026,0.6700000000000004,0.6500000000000004,4,2,3,4,8,3,4,5,3,0,10,7,H,0.03875,0.16000000000000006,0.16750000000000007,0.13000000000000003
1,14,27,1,14,0.08,2,2,96,90,86,27,0.28,0.060000000000000005,0.4200000000000002,0.04,3,1,3,1,3,1,3,1,3,0.5,14,7,H,0.09333333333333335,0.060000000000000005,0.14000000000000007,0.04
1,14,28,1,2,0.09,2,2,56,106,48,73,0.20999999999999996,0.12999999999999998,0.15,0.09999999999999999,3,1,1,2,3,1,1,2,4,0,14,7,H,0.06999999999999999,0.12999999999999998,0.15,0.049999999999999996
1,15,29,1,3,0.09,2,2,33,71,77,84,0.20999999999999996,0.3200000000000001,0.08,0.01,3,2,2,1,3,4,2,1,5,0,15,7,H,0.06999999999999999,0.07999999999999999,0.04,0.01
1,15,30,1,2,0.09,2,2,56,103,46,102,0.20999999999999996,0.13999999999999999,0.20000000000000004,0.01,3,1,1,1,3,1,1,1,4,0,13,7,H,0.06999999999999999,0.13999999999999999,0.20000000000000004,0.01
1,16,31,1,14,0.13999999999999999,3,3,87,91,67,27,0.31,0.060000000000000005,0.35000000000000014,0.01,5,1,2,1,6,1,2,1,3,0,15,7,H,0.051666666666666666,0.060000000000000005,0.17500000000000007,0.01
1,16,32,1,2,0.10999999999999999,2,3,60,51,22,19,0.30000000000000004,0.04,0.3200000000000001,0.07,4,1,2,2,6,1,2,2,4,0,20,7,H,0.049999999999999996,0.04,0.16000000000000003,0.035
1,17,33,1,3,0.09999999999999999,2,2,34,36,100,61,0.24,0.6800000000000004,0.03,0.02,3,3,1,1,3,3,1,1,5,0,16,7,H,0.08,0.22666666666666677,0.03,0.02
1,17,34,1,13,0.05,2,2,113,120,45,57,0.16999999999999998,0.07,0.09999999999999999,0.12999999999999998,3,1,1,1,3,1,1,1,2,0,13,7,H,0.056666666666666664,0.07,0.09999999999999999,0.12999999999999998
1,18,35,1,8,0.11999999999999998,2,2,98,45,102,2,0.26999999999999996,0.12999999999999998,0.060000000000000005,0.05,4,1,2,1,5,1,2,1,2,0,15,7,H,0.054,0.12999999999999998,0.03,0.05
1,18,36,1,1,0.08,2,2,82,65,62,79,0.3500000000000001,0.6500000000000004,0.01,0.01,4,2,1,1,5,3,1,1,3,0,14,7,H,0.07,0.21666666666666679,0.01,0.01
1,19,37,1,8,0.11999999999999998,2,2,107,26,24,30,0.37000000000000005,0.20000000000000004,0.02,0.6300000000000003,4,3,1,2,5,3,1,2,2,0,18,7,H,0.074,0.06666666666666667,0.02,0.3150000000000001
1,19,38,1,13,0.11999999999999998,2,4,109,87,8,62,0.3,0.08,0.03,0.04,4,1,1,1,6,1,1,1,2,0,15,7,H,0.049999999999999996,0.08,0.03,0.04
1,20,39,1,7,0.17,2,2,4,12,52,113,0.36000000000000004,0.01,0.4200000000000002,0.11999999999999998,3,1,2,2,3,1,2,2,6,0,18,7,H,0.12000000000000001,0.01,0.21000000000000008,0.05999999999999999
1,20,40,1,15,0.12999999999999998,3,3,21,96,65,62,0.4,0.07,0.01,0.04,5,2,1,1,6,2,1,1,6,0,17,7,H,0.06666666666666667,0.035,0.01,0.04
1,21,41,1,2,0.09999999999999999,2,4,51,52,99,9,0.4300000000000001,0.08,0.09,0.03,3,1,1,1,5,1,1,1,4,0,16,7,H,0.08600000000000002,0.08,0.09,0.03
1,21,42,1,13,0.10999999999999999,3,3,119,111,114,34,0.23999999999999996,0.08,0.38000000000000017,0.04,4,1,2,1,4,1,3,1,2,0.5,11,7,H,0.06,0.08,0.1266666666666667,0.04
1,22,43,1,11,0.13999999999999999,2,3,70,80,64,61,0.33,0.15,0.060000000000000005,0.02,3,2,1,1,4,3,1,1,4,0.5,15,7,H,0.0825,0.05,0.060000000000000005,0.02
1,22,44,1,7,0.10999999999999999,2,2,9,12,54,45,0.36000000000000004,0.01,0.04,0.10999999999999999,4,1,1,1,4,1,1,1,6,0,21,7,H,0.09000000000000001,0.01,0.04,0.10999999999999999
2,1,1,0,2,0.2700000000000001,2,3,107,1,43,108,1.610000000000001,0.36000000000000015,0.18000000000000002,0.02,5,2,1,1,6,2,1,1,4,0,15,7,H,0.2683333333333335,0.18000000000000005,0.18000000000000002,0.02
2,1,2,0,1,0.3100000000000001,2,3,74,79,63,15,1.0300000000000005,0.4400000000000002,0.19000000000000003,0.04,4,2,1,1,5,2,1,1,3,0,16,7,H,0.20600000000000007,0.22000000000000008,0.19000000000000003,0.04
2,2,3,0,2,0.35000000000000014,2,5,17,18,110,22,0.8700000000000003,0.36000000000000015,0.34000000000000014,0.09,3,2,1,2,6,2,1,2,4,0.5,20,7,H,0.14500000000000005,0.18000000000000002,0.34000000000000014,0.045
2,2,4,0,1,0.3300000000000001,2,3,75,64,6,5,0.8600000000000003,0.35000000000000014,0.19000000000000003,0.10999999999999999,4,1,1,1,5,1,1,1,3,0,19,7,H,0.17200000000000004,0.35000000000000014,0.19000000000000003,0.10999999999999999
2,3,5,0,2,0.45000000000000023,3,6,73,53,49,81,1.0200000000000005,0.13999999999999999,0.4400000000000002,0.03,5,1,2,1,9,1,2,1,4,0,14,7,H,0.11333333333333336,0.13999999999999999,0.22000000000000008,0.03
2,3,6,0,10,0.3200000000000001,2,3,117,87,110,88,1.2400000000000007,0.04,0.2900000000000001,0.10999999999999999,4,1,2,2,8,1,2,2,3,0,10,7,H,0.15500000000000003,0.04,0.14500000000000002,0.05500000000000001
2,4,7,0,1,0.3000000000000001,2,3,21,99,52,78,1.0900000000000005,0.6300000000000003,0.08,0.03,3,1,1,1,4,1,1,1,3,0,15,7,H,0.27250000000000013,0.6300000000000003,0.08,0.03
2,4,8,0,8,0.35000000000000014,2,5,35,30,93,86,1.3300000000000007,0.3300000000000001,0.08,0.09,3,1,1,1,6,1,1,1,2,0,16,7,H,0.22166666666666676,0.3300000000000001,0.08,0.09
2,5,9,0,4,0.5600000000000003,2,3,98,100,69,88,1.1600000000000006,0.09999999999999999,0.3000000000000001,0.13999999999999999,4,1,1,1,6,1,1,1,2,0,11,7,H,0.19333333333333338,0.09999999999999999,0.3000000000000001,0.13999999999999999
2,5,10,0,8,0.26000000000000006,2,3,110,7,109,57,0.6700000000000003,0.3900000000000002,0.45000000000000023,0.11999999999999998,4,1,2,1,5,1,2,1,2,0,14,7,H,0.134,0.3900000000000002,0.2250000000000001,0.11999999999999998
2,6,11,0,3,0.2900000000000001,2,3,100,6,108,27,1.0000000000000004,0.2900000000000001,0.8000000000000005,1.8000000000000014,3,4,2,3,4,4,4,4,5,0,15,7,H,0.2500000000000001,0.07250000000000001,0.20000000000000007,0.4500000000000003
2,6,12,0,7,0.3200000000000001,2,3,24,79,64,73,0.7000000000000003,0.5200000000000002,0.15,0.09999999999999999,4,2,1,1,5,3,2,1,6,0,16,7,H,0.14,0.17333333333333334,0.07500000000000001,0.09999999999999999
2,7,13,1,12,0.38000000000000017,2,5,44,62,100,69,0.9700000000000004,0.3100000000000001,0.2700000000000001,0.09,3,1,1,1,6,1,1,1,5,0,15,7,H,0.1616666666666667,0.3100000000000001,0.2700000000000001,0.09
2,7,14,1,13,0.4100000000000002,2,4,51,49,120,20,0.9700000000000004,1.0900000000000007,0.4000000000000002,0.01,3,2,1,1,5,2,1,1,2,0,16,7,H,0.19400000000000006,0.5450000000000004,0.4000000000000002,0.01
2,8,15,1,3,0.24000000000000007,2,3,31,49,80,36,0.46000000000000013,1.1100000000000008,0.03,0.03,3,5,1,1,4,5,1,1,5,0,17,7,H,0.11500000000000002,0.22200000000000014,0.03,0.03
2,8,16,1,13,0.3300000000000001,2,5,113,65,40,13,0.9200000000000004,0.37000000000000016,0.10999999999999999,0.07,4,2,1,1,7,2,1,1,2,0,17,7,H,0.13142857142857145,0.18500000000000005,0.10999999999999999,0.07
2,9,17,1,7,0.21000000000000005,2,3,7,4,1,59,0.5300000000000001,0.16,43.5799999999999,0.12999999999999998,3,1,18,2,4,1,80,2,6,0.5,22,7,H,0.13250000000000003,0.16,0.5447500000000002,0.06499999999999999
2,9,18,1,15,0.6000000000000003,7,11,75,17,116,111,1.5000000000000009,0.8500000000000005,0.36000000000000015,2.9199999999999817,9,2,1,3,13,2,1,4,6,0,13,7,H,0.11538461538461542,0.42500000000000027,0.36000000000000015,0.7299999999999992
2,10,19,1,13,0.3900000000000002,2,3,84,45,43,120,1.0900000000000005,0.22000000000000006,0.11999999999999998,0.04,3,1,1,1,4,1,1,1,2,0,15,7,H,0.2725000000000001,0.22000000000000006,0.11999999999999998,0.04
2,10,20,1,14,0.26000000000000006,2,3,90,20,63,71,0.9000000000000004,0.21000000000000005,0.26000000000000006,0.15,4,1,1,1,5,1,1,1,3,0,17,7,H,0.18000000000000005,0.21000000000000005,0.26000000000000006,0.15
2,11,21,1,3,0.3200000000000001,2,3,110,33,64,23,0.9100000000000004,0.16,0.3300000000000001,0.10999999999999999,3,1,1,1,4,1,1,1,5,0,17,7,H,0.2275000000000001,0.16,0.3300000000000001,0.10999999999999999
2,11,22,1,1,0.26000000000000006,2,3,104,1,81,106,1.2000000000000006,0.15,0.04,0.6500000000000004,4,1,1,2,5,1,1,2,3,0,13,7,H,0.2400000000000001,0.15,0.04,0.3250000000000002
2,12,23,1,15,0.26000000000000006,1,2,22,92,16,88,0.6300000000000002,0.49000000000000027,0.09999999999999999,0.19000000000000003,2,1,1,1,3,1,1,1,6,0,18,7,H,0.21000000000000008,0.49000000000000027,0.09999999999999999,0.19000000000000003
2,12,24,1,3,0.3300000000000001,1,2,26,32,119,81,0.9900000000000004,0.20000000000000004,0.34000000000000014,0.05,3,1,2,1,4,1,2,1,5,0,15,7,H,0.24750000000000008,0.20000000000000004,0.17000000000000004,0.05
2,13,25,1,14,0.3200000000000001,2,4,106,36,92,105,0.9800000000000004,1.1700000000000008,0.03,0.05,3,3,1,1,5,4,1,1,3,0,12,7,H,0.1960000000000001,0.29250000000000015,0.03,0.05
2,13,26,1,15,0.34000000000000014,2,3,14,81,111,16,4.389999999999958,0.01,0.01,0.01,10,1,1,1,15,1,1,1,6,0,17,7,H,0.2926666666666668,0.01,0.01,0.01
2,14,27,1,12,0.5900000000000003,2,4,7,93,115,95,1.2400000000000007,0.20000000000000004,0.2700000000000001,0.25000000000000006,3,1,1,2,5,1,1,2,5,0,14,7,H,0.24800000000000008,0.20000000000000004,0.2700000000000001,0.125
2,14,28,1,8,0.4000000000000002,2,4,100,32,25,15,0.8800000000000004,0.3000000000000001,0.7000000000000004,0.09,4,1,3,1,6,1,3,1,2,0,18,7,H,0.14666666666666667,0.3000000000000001,0.23333333333333342,0.09
2,15,29,1,7,0.26000000000000006,2,5,7,43,41,120,0.8400000000000003,0.21000000000000005,0.4100000000000002,0.09999999999999999,4,1,2,1,7,1,3,1,6,0,18,7,H,0.12000000000000002,0.21000000000000005,0.13666666666666666,0.09999999999999999
2,15,30,1,8,0.24000000000000007,4,4,18,72,35,24,4.379999999999956,0.04,0.01,0.01,10,1,1,1,12,1,1,1,2,0,21,7,H,0.3650000000000002,0.04,0.01,0.01
2,16,31,1,11,0.8100000000000005,2,5,42,41,86,62,1.520000000000001,0.46000000000000024,0.05,0.07,4,2,1,1,8,4,1,1,4,0,17,7,H,0.19000000000000006,0.115,0.05,0.07
2,16,32,1,8,0.36000000000000015,2,3,33,83,36,11,0.9700000000000004,0.26000000000000006,0.17,0.47000000000000025,3,2,1,1,4,2,1,1,2,0,19,7,H,0.24250000000000008,0.13,0.17,0.47000000000000025
2,17,33,1,12,0.38000000000000017,2,3,45,73,41,47,0.9300000000000004,0.34000000000000014,0.5800000000000003,0.17,4,2,4,2,7,2,4,2,5,0.5,18,7,H,0.13285714285714287,0.17,0.14500000000000005,0.08499999999999999
2,17,34,1,13,0.2700000000000001,2,3,62,34,92,16,0.8300000000000003,0.2700000000000001,0.19000000000000003,0.21000000000000005,3,1,1,1,4,1,1,1,2,0,18,7,H,0.20750000000000007,0.2700000000000001,0.19000000000000003,0.21000000000000005
2,18,35,1,8,0.22000000000000006,2,3,21,93,53,19,0.9800000000000005,0.45000000000000023,0.01,0.11999999999999998,3,2,1,1,4,3,1,1,2,0,19,7,H,0.2450000000000001,0.15000000000000002,0.01,0.11999999999999998
2,18,36,1,1,0.4300000000000002,2,3,78,32,116,110,0.7200000000000003,0.47000000000000025,0.9600000000000006,0.01,4,1,2,1,5,1,2,1,3,0,12,7,H,0.14400000000000002,0.47000000000000025,0.48000000000000026,0.01
2,19,37,1,11,0.2900000000000001,2,3,72,15,25,92,0.8200000000000003,0.24000000000000007,0.34000000000000014,0.08,4,1,1,1,5,1,1,1,4,0,18,7,H,0.16400000000000003,0.24000000000000007,0.34000000000000014,0.08
2,19,38,1,1,0.3300000000000001,2,3,74,78,73,100,0.7500000000000003,0.23000000000000007,0.18000000000000002,1.8700000000000014,3,1,1,4,4,1,1,4,3,0.5,11,7,H,0.18750000000000006,0.23000000000000007,0.18000000000000002,0.46750000000000025
2,20,39,1,13,11.239999999999805,10,22,26,11,114,35,11.249999999999805,0.8600000000000005,0.060000000000000005,0.01,11,2,1,1,23,2,1,1,2,0,18,7,H,0.48913043478260887,0.4300000000000002,0.060000000000000005,0.01
2,20,40,1,15,0.5100000000000002,2,3,44,40,15,99,1.3200000000000007,0.36000000000000015,0.34000000000000014,0.3900000000000002,3,1,2,1,4,1,2,1,6,0,18,7,H,0.3300000000000001,0.36000000000000015,0.17000000000000007,0.3900000000000002
2,21,41,1,1,0.3200000000000001,2,3,32,72,29,76,1.1500000000000006,0.26000000000000006,0.13999999999999999,0.07,4,1,1,1,5,1,1,1,3,0,17,7,H,0.2300000000000001,0.26000000000000006,0.13999999999999999,0.07
2,21,42,1,8,0.5600000000000003,2,3,105,104,106,93,0.9000000000000004,0.3100000000000001,0.19000000000000003,0.17,4,1,1,1,5,1,1,1,2,0.5,9,7,H,0.18000000000000005,0.3100000000000001,0.19000000000000003,0.17
2,22,43,1,1,0.3000000000000001,2,3,78,82,34,26,0.6400000000000002,0.37000000000000016,0.7200000000000004,0.03,3,2,1,2,4,3,2,2,3,0,16,7,H,0.16000000000000003,0.12333333333333334,0.36000000000000015,0.015
2,22,44,1,14,0.4400000000000002,2,6,91,109,117,3,1.1200000000000006,0.3100000000000001,0.22000000000000006,0.08,5,1,2,1,10,1,3,1,3,0,13,7,H,0.11200000000000003,0.3100000000000001,0.07333333333333333,0.08
3,1,1,0,8,0.20000000000000004,1,2,119,20,45,15,0.5600000000000002,0.36000000000000015,0.5900000000000003,0.05,3,2,2,2,5,2,3,2,2,0,19,7,H,0.11200000000000002,0.18000000000000005,0.1966666666666667,0.025
3,1,2,0,6,0.2900000000000001,2,4,87,9,29,92,0.8800000000000003,0.18000000000000002,0.38000000000000017,0.20000000000000004,4,2,2,2,7,3,3,2,6,0,17,7,H,0.12571428571428572,0.06,0.1266666666666667,0.10000000000000002
3,2,3,0,9,0.23000000000000007,2,3,67,110,20,116,0.7000000000000003,1.5300000000000011,0.01,0.07,4,2,1,2,9,9,1,2,4,0,14,7,H,0.07777777777777778,0.17000000000000004,0.01,0.035
3,2,4,0,4,0.24000000000000007,2,3,5,108,103,107,0.8300000000000004,0.13999999999999999,0.01,0.6700000000000004,4,2,1,3,8,2,1,3,2,0.5,12,7,H,0.10375000000000001,0.06999999999999999,0.01,0.2233333333333334
3,3,5,0,10,0.23000000000000007,2,4,89,86,36,25,0.8400000000000004,0.03,0.20000000000000004,0.060000000000000005,4,1,2,1,9,1,2,1,3,0,16,7,H,0.09333333333333334,0.03,0.09999999999999999,0.060000000000000005
3,3,6,0,2,0.22000000000000006,2,3,53,83,50,110,0.8900000000000005,0.16,0.060000000000000005,0.07,4,1,1,1,5,1,1,1,4,0,13,7,H,0.17800000000000007,0.16,0.060000000000000005,0.07
3,4,7,0,6,0.22000000000000006,2,4,112,11,76,30,0.8500000000000004,0.04,0.34000000000000014,0.11999999999999998,4,1,2,1,8,1,3,1,6,0,16,7,H,0.10625000000000002,0.04,0.11333333333333334,0.11999999999999998
3,4,8,0,9,0.21000000000000005,2,3,67,61,108,68,0.6500000000000002,0.09,0.48000000000000026,0.03,4,1,2,1,5,1,3,1,4,0.5,14,7,H,0.13000000000000003,0.09,0.16000000000000003,0.03
3,5,9,0,7,0.24000000000000007,2,3,23,31,21,26,0.7200000000000003,0.4000000000000002,0.01,0.34000000000000014,4,2,1,3,7,4,1,4,6,0,22,7,H,0.10285714285714287,0.1,0.01,0.085
3,5,10,0,4,0.23000000000000007,2,3,106,81,75,108,0.6800000000000003,0.24000000000000007,0.6700000000000004,0.01,4,1,3,1,5,1,3,1,2,0,10,7,H,0.136,0.24000000000000007,0.22333333333333344,0.01
3,6,11,0,7,0.21000000000000005,2,6,14,86,13,111,0.6600000000000003,2.909999999999982,0.2800000000000001,0.21000000000000005,4,7,2,1,10,12,2,1,6,0,17,7,H,0.066,0.2425000000000001,0.14,0.21000000000000005
3,6,12,0,6,0.5300000000000002,3,6,55,6,76,74,1.580000000000001,0.02,0.6000000000000003,0.20000000000000004,5,1,2,3,9,1,2,3,6,0,16,7,H,0.1755555555555556,0.02,0.3000000000000001,0.06666666666666667
3,7,13,1,13,0.38000000000000017,3,5,29,118,114,4,0.9600000000000004,0.4100000000000002,0.060000000000000005,0.02,4,2,1,1,6,3,1,1,2,0,15,7,H,0.16000000000000003,0.1366666666666667,0.060000000000000005,0.02
3,7,14,1,15,0.3100000000000001,6,6,16,14,24,17,0.7800000000000004,0.47000000000000025,0.01,0.060000000000000005,7,2,1,1,7,2,1,1,6,1,72,7,H,0.11142857142857146,0.2350000000000001,0.01,0.060000000000000005
3,8,15,1,1,0.2900000000000001,2,4,83,73,39,20,0.8000000000000003,0.10999999999999999,0.3100000000000001,0.060000000000000005,4,1,2,1,6,1,5,1,3,0,17,7,H,0.13333333333333336,0.10999999999999999,0.062,0.060000000000000005
3,8,16,1,8,0.2800000000000001,2,4,98,102,29,8,0.8300000000000003,0.01,0.18000000000000002,0.21000000000000005,4,1,1,2,8,1,1,2,2,0,15,7,H,0.10375000000000001,0.01,0.18000000000000002,0.10500000000000001
3,9,17,1,11,0.20000000000000004,1,2,65,24,86,119,0.8300000000000004,0.3300000000000001,0.09999999999999999,0.17,3,2,1,2,6,2,1,2,4,0,15,7,H,0.13833333333333336,0.165,0.09999999999999999,0.08499999999999999
3,9,18,1,2,0.4000000000000002,2,4,53,47,73,82,1.0500000000000005,0.04,0.09999999999999999,0.22000000000000006,4,1,2,3,6,1,2,4,4,0,15,7,H,0.17500000000000004,0.04,0.049999999999999996,0.055
3,10,19,1,12,0.24000000000000007,2,3,47,37,6,40,0.6600000000000003,0.23000000000000007,0.12999999999999998,0.37000000000000016,4,1,2,2,5,1,3,2,5,0.5,21,7,H,0.132,0.23000000000000007,0.043333333333333335,0.18500000000000008
3,10,20,1,13,0.24000000000000007,2,3,115,94,34,96,0.8300000000000004,0.35000000000000014,0.01,0.35000000000000014,4,2,1,2,5,2,1,2,2,0,13,7,H,0.16600000000000004,0.17500000000000002,0.01,0.17500000000000007
3,11,21,1,8,0.5000000000000002,2,3,100,45,104,9,0.7800000000000002,0.37000000000000016,0.20000000000000004,0.03,4,2,1,1,5,2,1,1,2,0,15,7,H,0.15600000000000003,0.18500000000000008,0.20000000000000004,0.03
3,11,22,1,1,0.2700000000000001,2,3,75,28,115,79,0.6800000000000003,0.23000000000000007,1.440000000000001,0.01,5,1,4,1,7,1,6,1,3,0,13,7,H,0.09714285714285716,0.23000000000000007,0.24000000000000007,0.01
3,12,23,1,12,0.3100000000000001,2,4,48,47,97,4,0.9900000000000004,0.12999999999999998,0.08,0.03,4,2,2,1,10,2,2,1,5,0,18,7,H,0.099,0.06499999999999999,0.04,0.03
3,12,24,1,1,0.19000000000000003,2,4,77,74,36,114,0.7500000000000003,0.060000000000000005,0.2700000000000001,0.20000000000000004,4,1,2,1,10,1,3,1,3,0,13,7,H,0.07500000000000001,0.060000000000000005,0.09,0.20000000000000004
3,13,25,1,3,0.6800000000000004,2,3,28,4,34,108,1.0500000000000005,0.8300000000000005,0.01,0.02,4,3,1,1,7,4,1,1,5,0,18,7,H,0.15000000000000002,0.20750000000000007,0.01,0.02
3,13,26,1,2,0.2800000000000001,7,8,54,60,113,92,1.0100000000000005,0.01,0.5500000000000003,0.7000000000000004,9,1,2,2,11,1,3,3,4,0,13,7,H,0.09181818181818184,0.01,0.1833333333333334,0.23333333333333342
3,14,27,1,2,0.37000000000000016,3,4,59,60,94,26,0.8900000000000003,0.15,0.09999999999999999,0.09,4,2,1,1,5,3,1,1,4,0,16,7,H,0.17800000000000005,0.05,0.09999999999999999,0.09
3,14,28,1,1,0.20000000000000004,2,5,74,15,115,83,1.1100000000000005,1.0700000000000007,0.01,0.47000000000000025,4,7,1,2,7,8,1,3,3,0,14,7,H,0.15857142857142864,0.13375000000000004,0.01,0.1566666666666667
3,15,29,1,1,0.21000000000000005,4,4,13,118,83,36,3.2399999999999793,0.01,0.01,0.17,12,1,1,2,15,1,1,2,3,0,16,7,H,0.21600000000000008,0.01,0.01,0.085
3,15,30,1,8,0.4100000000000002,2,5,107,90,104,60,0.8500000000000004,0.34000000000000014,0.01,0.3300000000000001,5,2,1,2,9,3,1,2,2,0,11,7,H,0.09444444444444444,0.11333333333333334,0.01,0.16500000000000006
3,16,31,1,11,0.18000000000000002,2,3,69,85,62,91,0.6200000000000002,0.23000000000000007,0.01,0.19000000000000003,4,2,1,2,5,2,1,2,4,0,14,7,H,0.12400000000000001,0.11500000000000002,0.01,0.095
3,16,32,1,1,0.25000000000000006,3,5,73,98,58,59,0.5900000000000002,0.35000000000000014,0.3000000000000001,0.060000000000000005,4,2,1,1,6,2,1,1,3,0,13,7,H,0.09833333333333336,0.17500000000000002,0.3000000000000001,0.060000000000000005
3,17,33,1,8,0.34000000000000014,2,5,108,13,68,21,0.9800000000000004,0.21000000000000005,0.9600000000000006,0.01,4,1,1,1,7,1,1,1,2,0,18,7,H,0.14000000000000004,0.21000000000000005,0.9600000000000006,0.01
3,17,34,1,2,0.20000000000000004,2,3,60,109,27,112,0.5300000000000001,0.7100000000000004,0.18000000000000002,0.10999999999999999,3,2,2,1,4,3,2,1,4,0,13,7,H,0.13250000000000003,0.23666666666666675,0.09,0.10999999999999999
3,18,35,1,11,0.22000000000000006,2,3,67,91,85,90,0.6300000000000002,0.35000000000000014,0.18000000000000002,0.36000000000000015,4,2,3,2,5,3,3,3,4,0.5,13,7,H,0.12600000000000003,0.11666666666666668,0.06,0.12000000000000004
3,18,36,1,1,0.3300000000000001,2,3,81,97,58,22,0.8000000000000004,0.2700000000000001,0.3100000000000001,0.10999999999999999,4,1,2,2,5,2,4,2,3,0,15,7,H,0.16000000000000003,0.135,0.07750000000000001,0.05500000000000001
3,19,37,1,12,0.24000000000000007,2,3,51,38,97,91,0.8100000000000004,0.05,0.23000000000000007,0.060000000000000005,5,1,1,2,6,1,1,2,5,0,14,7,H,0.13500000000000004,0.05,0.23000000000000007,0.03
3,19,38,1,11,0.24000000000000007,2,3,71,65,10,82,0.5500000000000002,1.1800000000000008,0.07,0.02,3,2,1,1,4,3,1,1,4,0,17,7,H,0.1375,0.3933333333333336,0.07,0.02
3,20,39,1,11,0.24000000000000007,2,3,67,23,74,16,0.6900000000000003,0.2800000000000001,1.6600000000000013,0.7500000000000004,4,2,5,3,6,3,9,3,4,0,19,7,H,0.115,0.09333333333333332,0.1844444444444445,0.2500000000000001
3,20,40,1,7,0.19000000000000003,2,3,3,94,93,51,0.6000000000000002,0.8800000000000006,2.9399999999999813,0.6000000000000003,4,2,10,3,5,6,13,3,6,0,16,7,H,0.12000000000000002,0.1466666666666667,0.22615384615384623,0.20000000000000004
3,21,41,1,8,0.20000000000000004,2,3,103,104,99,95,0.6000000000000002,0.11999999999999998,0.5000000000000002,0.03,4,1,2,1,5,1,3,1,2,0.5,9,7,H,0.12000000000000001,0.11999999999999998,0.1666666666666667,0.03
3,21,42,1,13,0.20000000000000004,2,3,115,116,112,24,0.5800000000000002,0.12999999999999998,0.4200000000000002,0.23000000000000007,3,1,2,1,4,1,2,1,2,0.5,12,7,H,0.14500000000000005,0.12999999999999998,0.21000000000000008,0.23000000000000007
3,22,43,1,15,0.24000000000000007,2,3,21,18,16,70,0.8800000000000004,0.12999999999999998,1.430000000000001,0.08,5,1,6,2,7,1,9,2,6,0.5,22,7,H,0.12571428571428572,0.12999999999999998,0.15888888888888894,0.04
3,22,44,1,2,0.16,2,3,59,74,60,11,0.5900000000000002,0.6700000000000004,0.23000000000000007,0.07,4,4,2,1,5,5,2,1,4,0,17,7,H,0.11800000000000002,0.13400000000000004,0.11500000000000003,0.07
4,1,1,0,3,0.2800000000000001,2,7,36,26,16,13,0.8900000000000003,0.2800000000000001,0.03,0.11999999999999998,4,2,1,2,21,10,2,3,5,0,22,7,H,0.04238095238095238,0.028,0.015,0.04
4,1,2,0,4,0.17,2,6,1,46,102,12,2.359999999999997,0.01,0.01,0.02,10,1,1,1,49,1,1,1,2,0,19,7,H,0.04816326530612245,0.01,0.01,0.02
4,2,3,0,9,0.22000000000000006,2,7,66,5,2,89,1.0200000000000005,0.37000000000000016,0.12999999999999998,0.04,5,2,3,1,27,13,5,1,4,0,19,7,H,0.03777777777777778,0.028461538461538462,0.026000000000000002,0.04
4,2,4,0,1,0.22000000000000006,2,7,82,75,23,25,0.7900000000000004,0.2700000000000001,0.3000000000000001,0.03,5,5,2,1,21,8,5,1,3,0,17,7,H,0.03761904761904762,0.03375,0.06,0.03
4,3,5,0,2,0.17,2,6,50,51,11,79,0.7900000000000004,0.15,0.24000000000000007,0.10999999999999999,4,2,3,2,20,5,7,6,4,0,17,7,H,0.0395,0.03,0.03428571428571429,0.018333333333333333
4,3,6,0,10,0.25000000000000006,5,6,88,91,72,89,0.8600000000000003,0.11999999999999998,0.2800000000000001,0.7800000000000005,7,1,2,4,26,1,5,15,3,0.5,13,7,H,0.03307692307692308,0.11999999999999998,0.056,0.052
4,4,7,0,9,0.34000000000000014,9,9,68,69,70,77,1.0000000000000004,0.03,0.10999999999999999,0.060000000000000005,11,1,2,1,16,1,3,1,4,0.5,15,7,H,0.0625,0.03,0.03666666666666667,0.060000000000000005
4,4,8,0,3,0.24000000000000007,2,8,26,94,2,29,0.7000000000000003,0.2900000000000001,0.5300000000000002,0.08,4,2,3,2,16,5,8,2,5,0,19,7,H,0.043750000000000004,0.058,0.06625,0.04
4,5,9,0,3,0.37000000000000016,9,13,33,28,83,6,0.7900000000000004,0.2900000000000001,0.21000000000000005,0.04,11,2,3,1,21,7,6,1,5,0,19,7,H,0.03761904761904762,0.041428571428571426,0.034999999999999996,0.04
4,5,10,0,5,0.3100000000000001,9,11,37,54,86,56,0.8700000000000003,0.17,0.12999999999999998,0.20000000000000004,12,2,2,2,25,5,5,5,5,0,16,7,H,0.0348,0.034,0.026000000000000002,0.04
4,6,11,0,1,0.3200000000000001,2,8,84,101,97,2,1.1000000000000005,0.49000000000000027,0.09999999999999999,0.09999999999999999,5,3,1,2,24,9,1,2,3,0,13,7,H,0.04583333333333334,0.05444444444444445,0.09999999999999999,0.05
4,6,12,0,5,0.46000000000000024,14,18,45,39,20,37,1.1700000000000006,0.05,0.22000000000000006,1.0200000000000007,16,1,4,7,35,1,6,25,5,0.5,21,7,H,0.033428571428571426,0.05,0.03666666666666667,0.0408
4,7,13,1,7,0.3100000000000001,2,8,9,66,7,115,0.7900000000000004,0.37000000000000016,0.26000000000000006,0.3200000000000001,6,2,3,2,18,5,4,10,6,0,18,7,H,0.04388888888888889,0.074,0.06499999999999999,0.032
4,7,14,1,15,0.19000000000000003,2,6,18,24,53,42,0.8700000000000004,0.11999999999999998,0.5600000000000003,0.17,4,2,4,3,15,3,4,5,6,0,21,7,H,0.057999999999999996,0.04,0.14,0.034
4,8,15,1,14,0.26000000000000006,3,6,31,90,26,92,0.9100000000000004,0.15,0.11999999999999998,0.08,6,2,2,2,19,7,4,4,3,0,16,7,H,0.04789473684210526,0.02142857142857143,0.03,0.02
4,8,16,1,7,0.47000000000000025,16,17,4,6,51,83,1.0900000000000005,0.37000000000000016,0.12999999999999998,0.07,18,3,3,1,28,7,4,1,6,0,19,7,H,0.03892857142857143,0.05285714285714286,0.0325,0.07
4,9,17,1,12,0.10999999999999999,2,4,38,44,11,39,0.5300000000000002,0.25000000000000006,0.20000000000000004,0.13999999999999999,4,2,3,3,14,8,4,4,5,0.5,21,7,H,0.03785714285714286,0.03125,0.049999999999999996,0.034999999999999996
4,9,18,1,11,0.16,3,8,64,63,20,30,0.6700000000000003,0.2800000000000001,0.2800000000000001,0.15,5,4,3,2,18,8,9,2,4,0,19,7,H,0.03722222222222222,0.034999999999999996,0.03111111111111111,0.075
4,10,19,1,12,0.3900000000000002,2,11,48,39,13,59,0.9200000000000004,0.11999999999999998,0.26000000000000006,0.21000000000000005,4,2,2,3,19,3,6,5,5,0,20,7,H,0.04842105263157895,0.04,0.043333333333333335,0.042
4,10,20,1,8,0.2800000000000001,6,7,102,98,106,36,0.8700000000000003,0.3200000000000001,0.05,0.08,8,2,1,2,22,4,1,2,2,0.5,11,7,H,0.03954545454545454,0.08,0.05,0.04
4,11,21,1,12,0.3200000000000001,2,9,46,59,58,56,0.9800000000000004,0.6100000000000003,0.38000000000000017,0.11999999999999998,4,4,3,2,21,13,6,2,5,0.5,17,7,H,0.04666666666666667,0.04692307692307692,0.06333333333333332,0.06
4,11,22,1,7,0.19000000000000003,2,6,6,4,10,62,0.8500000000000004,0.05,0.15,0.05,4,1,2,2,20,1,4,2,6,0.5,22,7,H,0.042499999999999996,0.05,0.0375,0.025
4,12,23,1,7,0.18000000000000002,2,4,1,8,5,63,0.7400000000000003,0.18000000000000002,0.15,0.060000000000000005,4,2,2,2,15,6,6,3,6,0.5,22,7,H,0.04933333333333333,0.03,0.025,0.02
4,12,24,1,2,0.12999999999999998,2,5,58,26,19,15,0.5300000000000001,0.49000000000000027,0.04,0.20000000000000004,4,4,1,3,11,10,1,5,4,0,21,7,H,0.04818181818181819,0.049,0.04,0.04
4,13,25,1,8,0.3900000000000002,2,11,104,23,18,28,0.8000000000000004,0.5000000000000002,0.02,0.26000000000000006,5,3,1,2,19,11,1,8,2,0,19,7,H,0.042105263157894736,0.045454545454545456,0.02,0.0325
4,13,26,1,7,0.22000000000000006,4,7,9,4,88,70,0.5700000000000002,2.289999999999995,0.02,0.03,6,15,1,1,13,42,1,1,6,0,19,7,H,0.04384615384615385,0.05452380952380952,0.02,0.03
4,14,27,1,1,0.12999999999999998,2,3,76,82,37,56,0.7000000000000003,0.6600000000000004,0.01,0.060000000000000005,4,7,1,2,15,12,1,3,3,0,15,7,H,0.04666666666666667,0.05500000000000001,0.01,0.02
4,14,28,1,14,0.20000000000000004,2,6,94,88,36,87,0.8200000000000004,0.11999999999999998,0.060000000000000005,0.20000000000000004,4,2,2,4,19,5,2,6,3,0.5,14,7,H,0.0431578947368421,0.024,0.03,0.03333333333333333
4,15,29,1,12,0.24000000000000007,3,9,37,40,42,22,0.9000000000000005,0.18000000000000002,0.07,0.060000000000000005,7,2,1,2,21,5,1,3,5,0.5,21,7,H,0.04285714285714286,0.036000000000000004,0.07,0.02
4,15,30,1,2,0.19000000000000003,2,7,58,55,59,35,0.5300000000000001,0.16,0.2700000000000001,0.7400000000000004,4,1,3,7,15,1,6,14,4,0.5,17,7,H,0.035333333333333335,0.16,0.045,0.05285714285714286
4,16,31,1,13,0.17,2,5,119,115,116,96,0.7200000000000003,0.17,0.37000000000000016,0.060000000000000005,4,2,3,1,12,5,7,1,2,0.5,9,7,H,0.06,0.034,0.05285714285714286,0.060000000000000005
4,16,32,1,8,0.2800000000000001,2,8,104,3,47,65,0.9900000000000004,0.25000000000000006,0.13999999999999999,0.04,4,2,2,2,24,2,4,3,2,0,17,7,H,0.04125,0.125,0.035,0.013333333333333334
4,17,33,1,15,0.18000000000000002,3,7,16,17,73,43,1.1900000000000006,0.01,0.02,0.09999999999999999,5,1,1,4,21,1,1,4,6,0,20,7,H,0.05666666666666667,0.01,0.02,0.025
4,17,34,1,14,0.49000000000000027,4,8,87,86,35,28,1.2100000000000006,0.10999999999999999,0.04,0.13999999999999999,6,2,2,3,29,3,4,4,3,0,16,7,H,0.04172413793103448,0.03666666666666667,0.01,0.035
4,18,35,1,13,0.19000000000000003,3,6,119,89,9,86,0.8400000000000004,0.20000000000000004,0.13999999999999999,0.02,6,3,2,1,15,6,2,1,2,0,14,7,H,0.056,0.03333333333333333,0.07,0.02
4,18,36,1,2,0.3200000000000001,5,7,51,83,28,26,0.6900000000000003,0.34000000000000014,0.12999999999999998,0.08,7,3,3,2,19,7,4,4,4,0,17,7,H,0.03631578947368421,0.04857142857142857,0.0325,0.02
4,19,37,1,2,0.19000000000000003,2,3,58,56,78,74,0.8000000000000004,0.20000000000000004,0.07,0.09,4,2,1,2,12,4,1,3,4,0,14,7,H,0.06666666666666667,0.049999999999999996,0.07,0.03
4,19,38,1,11,0.10999999999999999,3,6,65,66,18,119,0.5200000000000002,0.07,0.6100000000000003,0.17,5,1,3,2,17,1,14,4,4,0,16,7,H,0.03058823529411765,0.07,0.04357142857142857,0.0425
4,20,39,1,11,0.09,2,3,68,111,112,118,0.6600000000000003,0.15,0.46000000000000024,0.060000000000000005,5,2,5,2,15,3,12,2,4,0.5,10,7,H,0.044,0.049999999999999996,0.03833333333333334,0.03
4,20,40,1,3,0.21000000000000005,2,9,25,30,82,33,0.6900000000000003,0.26000000000000006,0.35000000000000014,0.04,5,2,2,1,26,3,3,1,5,0.5,18,7,H,0.02653846153846154,0.08666666666666667,0.11666666666666668,0.04
4,21,41,1,2,0.16,2,5,52,56,12,75,0.7100000000000003,0.20000000000000004,0.21000000000000005,0.08,4,2,2,2,15,6,4,4,4,0,17,7,H,0.04733333333333333,0.03333333333333333,0.0525,0.02
4,21,42,1,13,0.35000000000000014,2,7,63,119,109,120,0.9000000000000004,0.3300000000000001,0.09,0.15,4,2,1,3,14,7,1,5,2,0.5,10,7,H,0.06428571428571428,0.047142857142857146,0.09,0.03
4,22,43,1,13,0.38000000000000017,2,10,116,117,59,58,0.9000000000000004,0.47000000000000025,0.23000000000000007,0.03,4,4,3,2,18,10,8,2,2,0,12,7,H,0.05,0.047,0.028749999999999998,0.015
4,22,44,1,15,0.3200000000000001,4,11,14,98,62,101,1.0000000000000004,0.15,0.09,0.15,6,3,2,3,29,4,3,4,6,0,14,7,H,0.034482758620689655,0.0375,0.030000000000000002,0.0375
5,1,1,0,7,1.5300000000000011,5,9,38,15,72,20,1.9200000000000013,0.10999999999999999,0.10999999999999999,0.02,7,2,1,1,11,2,1,1,6,0,21,7,H,0.17454545454545461,0.055,0.10999999999999999,0.02
5,1,2,0,3,1.6400000000000012,7,9,119,54,93,5,2.1700000000000017,0.16,0.05,0.02,8,2,1,1,10,3,1,1,5,0,15,7,H,0.21700000000000014,0.05333333333333333,0.05,0.02
5,2,3,0,3,1.8100000000000014,4,7,117,69,96,64,1.9600000000000013,0.15,0.03,0.19000000000000003,5,1,1,1,8,1,1,1,5,0,13,7,H,0.24500000000000013,0.15,0.03,0.19000000000000003
5,2,4,0,6,0.45000000000000023,8,9,5,8,100,83,0.5700000000000002,0.12999999999999998,1.5600000000000012,0.01,9,1,3,1,10,1,3,1,6,0,17,7,H,0.057,0.12999999999999998,0.5200000000000004,0.01
5,3,5,0,4,1.270000000000001,7,11,29,81,12,107,1.590000000000001,0.03,0.04,0.03,8,1,1,1,12,1,1,1,2,0,16,7,H,0.13250000000000006,0.03,0.04,0.03
5,3,6,0,2,0.17,3,3,13,89,95,57,35.290000000001584,0.01,0.01,0.03,20,1,1,2,66,1,1,2,4,0,16,7,H,0.5346969696969699,0.01,0.01,0.015
5,4,7,0,1,2.439999999999992,4,6,58,76,60,100,4.559999999999991,0.01,0.01,0.25000000000000006,9,1,1,2,11,1,1,2,3,0,13,7,H,0.4145454545454548,0.01,0.01,0.12500000000000003
5,4,8,0,5,0.48000000000000026,7,10,118,13,64,18,3.5199999999999796,8.859999999999856,1.440000000000001,1.8900000000000015,11,13,5,2,14,26,5,2,5,0,18,7,H,0.25142857142857045,0.34076923076923094,0.2880000000000001,0.9450000000000007
5,5,9,0,2,0.8700000000000006,4,6,27,112,26,34,1.3800000000000008,0.02,0.04,0.02,6,1,1,1,8,1,1,1,4,0.5,17,7,H,0.1725000000000001,0.02,0.04,0.02
5,5,10,0,5,0.9900000000000007,4,6,63,46,105,99,1.0600000000000007,0.11999999999999998,0.08,0.03,5,1,1,1,7,1,1,1,5,0,13,7,H,0.1514285714285715,0.11999999999999998,0.08,0.03
5,6,11,0,7,1.1700000000000008,6,10,63,22,33,100,1.1800000000000008,0.02,0.9400000000000006,0.060000000000000005,7,1,3,1,11,1,3,1,6,0,17,7,H,0.10727272727272731,0.02,0.3133333333333335,0.060000000000000005
5,6,12,0,6,2.1199999999999988,6,10,54,82,53,6,2.1499999999999986,0.3300000000000001,0.05,0.04,8,2,1,1,12,2,1,1,6,0,17,7,H,0.17916666666666675,0.16500000000000004,0.05,0.04
5,7,13,1,15,1.0200000000000007,6,9,71,48,108,80,1.2100000000000006,0.7300000000000004,0.01,0.01,7,2,1,1,10,2,1,1,6,0,14,7,H,0.12100000000000004,0.3650000000000002,0.01,0.01
5,7,14,1,14,0.3900000000000002,3,6,90,57,60,2,0.5400000000000001,0.060000000000000005,0.09,0.23000000000000007,5,1,1,3,10,1,1,3,3,0,17,7,H,0.054,0.060000000000000005,0.09,0.07666666666666666
5,8,15,1,15,1.480000000000001,4,10,114,20,117,18,1.660000000000001,0.060000000000000005,1.0300000000000007,6.529999999999905,5,1,2,10,11,1,2,13,6,0,16,7,H,0.15090909090909096,0.060000000000000005,0.5150000000000003,0.5023076923076926
5,8,16,1,7,0.4400000000000002,4,5,100,8,90,97,0.5300000000000002,0.05,0.07,0.45000000000000023,5,1,1,2,6,1,1,2,6,0,13,7,H,0.08833333333333335,0.05,0.07,0.22500000000000012
5,9,17,1,8,0.9200000000000006,3,6,97,88,43,7,1.0200000000000007,0.03,0.17,0.24000000000000007,5,1,1,2,8,1,1,2,2,0,16,7,H,0.12750000000000006,0.03,0.17,0.12
5,9,18,1,3,0.7800000000000005,6,11,22,26,72,25,0.8100000000000005,0.060000000000000005,0.09999999999999999,0.01,7,1,1,1,12,1,1,1,5,0,20,7,H,0.06750000000000002,0.060000000000000005,0.09999999999999999,0.01
5,10,19,1,15,3.749999999999964,10,14,16,20,21,64,6.439999999999951,34.64000000000168,19.430000000000238,0.01,14,19,14,1,18,73,30,1,6,0.5,22,7,H,0.35777777777777803,0.47452054794520543,0.6476666666666654,0.01
5,10,20,1,3,3.0799999999999783,5,7,4,53,33,92,5.639999999999968,0.02,0.01,1.0600000000000007,11,1,1,3,14,1,1,3,5,0,18,7,H,0.402857142857142,0.02,0.01,0.3533333333333335
5,11,21,1,2,0.4300000000000002,2,6,2,10,92,116,32.86000000000212,0.01,0.01,0.01,20,1,1,1,69,1,1,1,4,0,17,7,H,0.47623188405797073,0.01,0.01,0.01
5,11,22,1,3,0.6100000000000003,13,14,69,101,80,73,2.3900000000000015,0.01,0.01,0.03,17,1,1,1,20,1,1,1,5,0,12,7,H,0.11950000000000005,0.01,0.01,0.03
5,12,23,1,12,0.6500000000000004,3,8,46,83,10,45,0.8700000000000004,0.04,0.01,0.04,5,1,1,1,10,1,1,1,5,0,19,7,H,0.08700000000000001,0.04,0.01,0.04
5,12,24,1,14,1.9600000000000015,6,12,86,26,92,30,2.1200000000000014,0.15,0.47000000000000025,0.2900000000000001,8,1,2,2,14,1,2,2,3,0,16,7,H,0.1514285714285715,0.15,0.2350000000000001,0.14500000000000005
5,13,25,1,13,2.0000000000000013,7,15,15,116,21,23,2.4800000000000018,0.02,0.10999999999999999,8.559999999999862,9,1,1,11,17,1,1,14,2,0.5,20,7,H,0.14588235294117652,0.02,0.10999999999999999,0.6114285714285717
5,13,26,1,11,1.400000000000001,4,10,78,70,104,5,1.550000000000001,0.03,0.7200000000000004,0.6900000000000004,5,1,2,3,11,1,2,3,4,0,15,7,H,0.14090909090909096,0.03,0.3600000000000002,0.2300000000000001
5,14,27,1,15,0.3000000000000001,3,5,15,23,94,70,0.3700000000000001,0.09,0.15,0.03,4,1,1,1,6,1,1,1,6,0,19,7,H,0.06166666666666667,0.09,0.15,0.03
5,14,28,1,13,0.9800000000000006,4,9,26,31,116,29,1.1100000000000005,0.17,2.569999999999989,0.01,5,1,4,1,10,1,4,1,2,0.5,17,7,H,0.11100000000000002,0.17,0.6425000000000004,0.01
5,15,29,1,1,0.5300000000000002,4,5,79,75,40,58,0.6400000000000002,1.320000000000001,0.01,0.01,6,2,1,1,7,3,1,1,3,0,15,7,H,0.09142857142857144,0.44000000000000034,0.01,0.01
5,15,30,1,15,1.0300000000000007,2,4,25,13,15,104,3.219999999999998,0.01,1.1400000000000008,0.9300000000000006,4,1,5,1,6,1,5,1,6,0,19,7,H,0.5366666666666664,0.01,0.22800000000000006,0.9300000000000006
5,16,31,1,15,1.2400000000000009,5,7,15,63,102,18,10.269999999999852,0.13999999999999999,0.01,0.01,17,2,1,1,25,2,1,1,6,0,18,7,H,0.41080000000000017,0.06999999999999999,0.01,0.01
5,16,32,1,13,2.579999999999989,8,14,3,36,112,53,3.0799999999999894,3.989999999999959,0.01,0.01,10,4,1,1,16,5,1,1,2,0,17,7,H,0.1925000000000001,0.7980000000000006,0.01,0.01
5,17,33,1,1,1.1400000000000008,4,8,43,23,81,60,1.4500000000000008,0.09,0.03,0.02,6,1,1,1,10,1,1,1,3,0,18,7,H,0.14500000000000005,0.09,0.03,0.02
5,17,34,1,3,1.8700000000000014,9,14,85,36,93,104,3.2600000000000025,0.01,1.7800000000000014,0.01,12,1,3,1,17,1,3,1,5,0,13,7,H,0.19176470588235303,0.01,0.5933333333333337,0.01
5,18,35,1,14,10.51999999999982,16,31,113,64,39,85,10.82999999999982,0.01,1.9200000000000015,1.0400000000000007,17,1,3,2,32,1,3,3,3,0,14,7,H,0.3384374999999999,0.01,0.6400000000000005,0.34666666666666685
5,18,36,1,1,1.500000000000001,6,7,50,13,81,18,3.1400000000000023,0.01,0.12999999999999998,0.01,8,1,2,1,10,1,2,1,3,0,19,7,H,0.31400000000000017,0.01,0.06499999999999999,0.01
5,19,37,1,7,1.5300000000000011,5,7,85,105,98,102,3.4000000000000026,2.6899999999999866,0.8200000000000005,0.45000000000000023,9,5,2,2,14,5,2,2,6,0.5,9,7,H,0.24285714285714297,0.5380000000000004,0.41000000000000025,0.22500000000000012
5,19,38,1,13,1.340000000000001,4,4,18,71,81,83,4.009999999999988,0.02,0.01,0.01,10,1,1,1,12,1,1,1,2,0,16,7,H,0.33416666666666683,0.02,0.01,0.01
5,20,39,1,14,2.1199999999999988,7,14,87,54,99,40,2.1299999999999986,0.09,0.21000000000000005,0.03,8,1,1,1,15,1,1,1,3,0,14,7,H,0.14200000000000004,0.09,0.21000000000000005,0.03
5,20,40,1,1,1.0200000000000007,5,6,18,77,118,34,1.0900000000000007,0.04,1.1500000000000008,0.01,6,1,4,1,7,1,4,1,3,0,16,7,H,0.1557142857142858,0.04,0.28750000000000014,0.01
5,21,41,1,15,0.8900000000000006,3,8,24,23,18,15,0.9100000000000006,0.08,0.10999999999999999,0.09,4,1,1,1,9,1,1,1,6,1,72,7,H,0.10111111111111115,0.08,0.10999999999999999,0.09
5,21,42,1,3,2.239999999999996,5,6,3,109,111,9,3.529999999999997,0.08,0.01,0.01,7,1,1,1,8,1,1,1,5,0,16,7,H,0.4412500000000003,0.08,0.01,0.01
6,1,1,0,10,0.21000000000000005,2,5,85,87,118,112,0.6200000000000002,0.07,0.13999999999999999,0.07,3,1,1,1,6,1,1,1,3,0,10,7,H,0.10333333333333336,0.07,0.13999999999999999,0.07
6,1,2,0,1,0.15,2,3,77,46,107,41,0.5800000000000002,0.16,0.07,0.17,4,1,1,1,5,1,1,1,3,0,15,7,H,0.11600000000000003,0.16,0.07,0.17
6,2,3,0,7,0.12999999999999998,1,2,23,17,40,39,0.6000000000000002,0.08,0.12999999999999998,3.2199999999999753,3,1,1,4,4,1,1,4,6,0,22,7,H,0.15000000000000002,0.08,0.12999999999999998,0.8050000000000005
6,2,4,0,8,0.17,2,4,95,116,27,85,0.5800000000000002,0.10999999999999999,0.18000000000000002,0.02,3,1,2,1,5,1,2,1,2,0,13,7,H,0.11600000000000005,0.10999999999999999,0.09,0.02
6,3,5,0,3,0.13999999999999999,2,3,100,13,34,80,0.5900000000000002,0.16,0.01,0.07,3,2,1,1,4,2,1,1,5,0,16,7,H,0.14750000000000005,0.07999999999999999,0.01,0.07
6,3,6,0,10,0.13999999999999999,2,3,91,11,90,40,0.45000000000000007,0.36000000000000015,0.01,0.05,3,2,1,1,4,2,1,1,3,0,17,7,H,0.11250000000000003,0.18000000000000008,0.01,0.05
6,4,7,0,2,0.18000000000000002,4,5,53,56,3,28,0.4900000000000001,0.10999999999999999,0.17,0.09,5,1,1,1,6,1,1,1,4,0,19,7,H,0.08166666666666668,0.10999999999999999,0.17,0.09
6,4,8,0,10,0.12999999999999998,2,3,88,15,93,101,0.6000000000000002,0.03,0.060000000000000005,0.11999999999999998,4,1,1,1,5,1,1,1,3,0,14,7,H,0.12000000000000004,0.03,0.060000000000000005,0.11999999999999998
6,5,9,0,4,0.12999999999999998,2,3,3,105,58,25,0.5600000000000002,0.05,0.12999999999999998,0.05,3,1,1,1,4,1,1,1,2,0,17,7,H,0.14000000000000007,0.05,0.12999999999999998,0.05
6,5,10,0,1,0.23000000000000007,6,7,75,83,120,43,0.5400000000000001,0.12999999999999998,0.2700000000000001,0.02,7,1,2,1,8,1,2,1,3,0,13,7,H,0.06750000000000002,0.12999999999999998,0.13499999999999998,0.02
6,6,11,0,5,0.18000000000000002,2,3,44,37,38,77,0.5400000000000001,0.17,0.060000000000000005,0.24000000000000007,3,1,1,1,4,1,1,1,5,0.5,18,7,H,0.13500000000000004,0.17,0.060000000000000005,0.24000000000000007
6,6,12,0,2,0.20000000000000004,2,3,23,56,117,85,0.7400000000000003,0.07,0.05,0.11999999999999998,3,1,1,1,4,1,1,1,4,0,15,7,H,0.18500000000000005,0.07,0.05,0.11999999999999998
6,7,13,1,2,0.20000000000000004,2,3,50,59,3,60,0.5400000000000001,0.13999999999999999,0.10999999999999999,0.03,3,1,2,1,4,1,2,1,4,0.5,18,7,H,0.13500000000000004,0.13999999999999999,0.05500000000000001,0.03
6,7,14,1,15,0.20000000000000004,2,3,70,17,102,14,0.6200000000000002,0.09,0.22000000000000006,0.03,3,1,1,1,4,1,1,1,6,0,18,7,H,0.15500000000000005,0.09,0.22000000000000006,0.03
6,8,15,1,2,0.17,2,3,54,27,17,118,0.4800000000000001,0.22000000000000006,0.10999999999999999,0.07,3,1,1,1,4,1,1,1,4,0,17,7,H,0.12000000000000002,0.22000000000000006,0.10999999999999999,0.07
6,8,16,1,14,0.16,2,3,68,90,86,41,0.5400000000000001,0.07,0.08,0.10999999999999999,3,1,1,2,4,1,1,2,3,0,15,7,H,0.13500000000000004,0.07,0.08,0.05500000000000001
6,9,17,1,13,0.16,2,3,25,51,119,114,0.7200000000000003,0.05,0.03,0.03,3,1,1,1,4,1,1,1,2,0,13,7,H,0.18000000000000008,0.05,0.03,0.03
6,9,18,1,12,0.17,2,3,43,41,18,67,0.5500000000000002,0.09,0.12999999999999998,0.060000000000000005,3,1,2,1,4,1,2,1,5,0,20,7,H,0.13750000000000004,0.09,0.06499999999999999,0.060000000000000005
6,10,19,1,1,0.12999999999999998,2,3,75,76,112,66,0.43000000000000005,0.09999999999999999,0.19000000000000003,0.08,3,1,1,1,4,1,1,1,3,0,12,7,H,0.10750000000000003,0.09999999999999999,0.19000000000000003,0.08
6,10,20,1,12,0.3200000000000001,8,8,47,46,4,94,0.6900000000000003,0.16,0.7200000000000004,0.01,9,1,2,1,9,1,2,1,5,0,19,7,H,0.07666666666666669,0.16,0.3600000000000002,0.01
6,11,21,1,3,0.17,2,3,94,36,23,19,0.6000000000000002,0.05,0.21000000000000005,0.04,3,1,1,1,4,1,1,1,5,0,20,7,H,0.15000000000000005,0.05,0.21000000000000005,0.04
6,11,22,1,11,0.22000000000000006,3,5,81,83,115,45,0.7300000000000003,0.3200000000000001,0.02,0.01,5,2,1,1,8,3,1,1,4,0,13,7,H,0.09125000000000001,0.10666666666666667,0.02,0.01
6,12,23,1,3,0.3300000000000001,3,4,58,93,52,102,0.9400000000000004,0.05,0.02,0.21000000000000005,5,1,1,2,6,1,1,2,5,0,13,7,H,0.1566666666666667,0.05,0.02,0.10500000000000002
6,12,24,1,15,0.13999999999999999,2,3,74,24,118,63,0.6700000000000003,0.03,0.060000000000000005,0.46000000000000024,3,1,1,2,4,1,1,2,6,0,15,7,H,0.16750000000000007,0.03,0.060000000000000005,0.23000000000000012
6,13,25,1,3,0.09,2,3,30,33,93,86,0.4500000000000002,0.07,0.12999999999999998,0.08,4,1,1,1,6,1,1,1,5,0,16,7,H,0.07500000000000001,0.07,0.12999999999999998,0.08
6,13,26,1,1,0.17,2,3,79,82,48,57,0.5000000000000001,0.09,0.17,0.03,4,1,1,1,5,1,1,1,3,0,15,7,H,0.1,0.09,0.17,0.03
6,14,27,1,14,0.12999999999999998,2,3,91,116,112,119,0.4600000000000001,0.23000000000000007,1.6100000000000012,0.01,4,1,3,1,5,1,3,1,3,0.5,9,7,H,0.092,0.23000000000000007,0.5366666666666671,0.01
6,14,28,1,15,0.17,2,3,24,54,23,13,0.6100000000000002,0.08,0.13999999999999999,0.03,4,1,2,1,5,1,2,1,6,0.5,22,7,H,0.12200000000000003,0.08,0.06999999999999999,0.03
6,15,29,1,8,0.15,2,3,21,107,22,74,0.5700000000000002,0.04,1.5200000000000011,0.01,3,1,2,1,4,1,3,1,2,0,17,7,H,0.14250000000000004,0.04,0.506666666666667,0.01
6,15,30,1,13,0.18000000000000002,2,3,109,112,69,7,0.5300000000000001,0.08,0.48000000000000026,0.09,3,1,2,1,4,1,2,1,2,0,14,7,H,0.13250000000000003,0.08,0.2400000000000001,0.09
6,16,31,1,12,0.11999999999999998,2,3,80,47,39,104,0.5700000000000002,0.10999999999999999,0.01,0.12999999999999998,3,2,1,1,4,2,1,1,5,0,15,7,H,0.14250000000000007,0.055,0.01,0.12999999999999998
6,16,32,1,14,0.17,2,3,89,119,71,113,1.3700000000000008,0.03,0.2900000000000001,0.01,4,1,1,1,5,1,1,1,3,0,11,7,H,0.2740000000000002,0.03,0.2900000000000001,0.01
6,17,33,1,13,0.17,2,3,119,118,71,79,0.5300000000000001,0.11999999999999998,0.10999999999999999,0.060000000000000005,3,1,1,1,4,1,1,1,2,0,11,7,H,0.13250000000000003,0.11999999999999998,0.10999999999999999,0.060000000000000005
6,17,34,1,8,0.16,2,3,99,105,106,41,0.4700000000000001,0.08,1.2400000000000009,0.01,3,1,2,1,4,1,2,1,2,0.5,11,7,H,0.11750000000000003,0.08,0.6200000000000004,0.01
6,18,35,1,12,0.15,2,3,41,92,16,38,0.8700000000000004,0.04,0.04,0.04,4,1,1,1,5,1,1,1,5,0,19,7,H,0.17400000000000007,0.04,0.04,0.04
6,18,36,1,3,0.09999999999999999,2,3,25,115,119,84,0.4300000000000001,0.17,0.060000000000000005,0.09,4,1,1,1,5,1,1,1,5,0,12,7,H,0.08600000000000001,0.17,0.060000000000000005,0.09
6,19,37,1,7,0.16,3,4,10,64,42,8,0.5800000000000002,0.060000000000000005,1.0400000000000007,0.07,5,1,3,2,6,1,3,2,6,0,21,7,H,0.09666666666666669,0.060000000000000005,0.34666666666666685,0.035
6,19,38,1,2,0.12999999999999998,2,3,51,24,50,90,0.5900000000000002,0.060000000000000005,0.04,0.2700000000000001,4,1,1,2,7,1,1,2,4,0,17,7,H,0.0842857142857143,0.060000000000000005,0.04,0.13500000000000004
6,20,39,1,7,0.17,2,3,114,10,3,118,0.6000000000000002,0.09,0.05,8.239999999999869,3,1,1,8,4,1,1,10,6,0,16,7,H,0.15000000000000005,0.09,0.05,0.8239999999999985
6,20,40,1,15,0.13999999999999999,2,3,16,15,106,99,0.4,0.3200000000000001,0.02,0.07,3,3,1,1,4,3,1,1,6,0,16,7,H,0.10000000000000002,0.10666666666666669,0.02,0.07
6,21,41,1,7,0.15,2,3,116,118,4,39,1.4200000000000008,0.01,0.6600000000000004,0.01,5,1,2,1,6,1,2,1,6,0,15,7,H,0.2366666666666668,0.01,0.3300000000000002,0.01
6,21,42,1,3,0.07,2,3,29,34,24,36,0.33000000000000007,0.08,0.21000000000000005,0.04,4,1,1,1,6,1,1,1,5,0.5,21,7,H,0.05500000000000001,0.08,0.21000000000000005,0.04
6,22,43,1,13,0.18000000000000002,2,3,110,109,11,112,0.5300000000000001,0.13999999999999999,0.7500000000000004,0.01,4,1,2,1,5,1,2,1,2,0.5,12,7,H,0.10600000000000001,0.13999999999999999,0.3750000000000002,0.01
6,22,44,1,15,0.16,2,3,74,17,19,82,0.4900000000000001,0.26000000000000006,0.01,0.18000000000000002,3,2,1,1,4,2,1,1,6,0,18,7,H,0.12250000000000003,0.12999999999999998,0.01,0.18000000000000002
7,1,1,0,3,0.3000000000000001,2,3,9,4,27,69,1.0700000000000005,0.3200000000000001,0.8500000000000005,0.01,3,1,3,1,4,1,3,1,5,0,21,7,H,0.2675000000000001,0.3200000000000001,0.2833333333333335,0.01
7,1,2,0,2,0.45000000000000023,2,5,40,15,44,55,1.4900000000000009,0.13999999999999999,0.09999999999999999,0.03,4,1,1,1,8,1,1,1,4,0,20,7,H,0.18625000000000005,0.13999999999999999,0.09999999999999999,0.03
7,2,3,0,8,0.22000000000000006,4,4,2,66,65,4,8.759999999999863,0.01,0.01,0.01,13,1,1,1,15,1,1,1,2,0,20,7,H,0.5840000000000002,0.01,0.01,0.01
7,2,4,0,10,0.23000000000000007,2,3,88,43,55,15,0.7600000000000003,1.370000000000001,0.01,0.01,4,2,1,1,5,2,1,1,3,0,18,7,H,0.15200000000000002,0.6850000000000004,0.01,0.01
7,3,5,0,3,0.2800000000000001,2,3,36,35,55,26,0.7000000000000003,3.3099999999999734,0.01,0.01,3,2,1,1,4,2,1,1,5,0.5,19,7,H,0.17500000000000004,1.6549999999999867,0.01,0.01
7,3,6,0,1,0.21000000000000005,1,2,13,115,64,14,1.3100000000000007,0.13999999999999999,0.12999999999999998,0.09999999999999999,4,1,1,1,6,1,1,1,3,0,18,7,H,0.2183333333333334,0.13999999999999999,0.12999999999999998,0.09999999999999999
7,4,7,0,5,0.4000000000000002,2,4,38,56,53,109,0.9400000000000004,0.5100000000000002,0.16,0.04,4,2,1,1,6,2,1,1,5,0,15,7,H,0.1566666666666667,0.25500000000000006,0.16,0.04
7,4,8,0,4,0.21000000000000005,1,2,98,63,106,104,0.7500000000000003,0.3300000000000001,0.09,0.08,3,1,1,1,4,1,1,1,2,0.5,10,7,H,0.18750000000000003,0.3300000000000001,0.09,0.08
7,5,9,0,7,0.3000000000000001,2,3,20,44,100,48,1.660000000000001,0.16,0.02,0.02,5,1,1,1,6,1,1,1,6,0,18,7,H,0.2766666666666668,0.16,0.02,0.02
7,5,10,0,10,0.3000000000000001,2,3,1,8,86,71,11.679999999999803,0.060000000000000005,0.01,0.01,15,1,1,1,17,1,1,1,3,0,19,7,H,0.6870588235294122,0.060000000000000005,0.01,0.01
7,6,11,0,10,0.24000000000000007,2,3,87,89,54,107,0.6200000000000002,0.16,0.48000000000000026,0.09,3,1,2,1,4,1,2,1,3,0,12,7,H,0.15500000000000003,0.16,0.24000000000000007,0.09
7,6,12,0,9,0.46000000000000024,2,5,69,17,109,117,0.9100000000000005,0.38000000000000017,0.18000000000000002,0.060000000000000005,4,2,2,1,7,2,2,2,4,0,14,7,H,0.13,0.19000000000000003,0.09,0.03
7,7,13,1,15,0.3200000000000001,2,3,94,21,108,13,1.0300000000000005,0.16,1.6600000000000013,7.929999999999875,4,1,3,8,6,1,3,10,6,0,17,7,H,0.17166666666666672,0.16,0.5533333333333337,0.7929999999999955
7,7,14,1,7,0.3900000000000002,2,3,52,118,109,57,1.3300000000000007,0.15,0.11999999999999998,0.07,5,1,1,1,7,1,1,1,6,0,12,7,H,0.19000000000000006,0.15,0.11999999999999998,0.07
7,8,15,1,13,0.4000000000000002,2,3,112,16,37,58,0.8900000000000005,0.46000000000000024,0.17,0.12999999999999998,4,2,1,1,5,2,1,1,2,0,17,7,H,0.17800000000000002,0.23000000000000007,0.17,0.12999999999999998
7,8,16,1,7,0.37000000000000016,3,4,100,102,31,6,1.1800000000000006,0.4000000000000002,2.3099999999999947,0.01,4,1,3,1,5,1,4,1,6,0,15,7,H,0.2360000000000001,0.4000000000000002,0.5775000000000005,0.01
7,9,17,1,12,0.36000000000000015,2,3,39,45,59,73,0.7900000000000004,1.0000000000000007,0.21000000000000005,1.2000000000000008,4,3,2,2,5,4,2,2,5,0,17,7,H,0.15800000000000003,0.2500000000000001,0.10500000000000001,0.6000000000000004
7,9,18,1,3,0.49000000000000027,4,5,63,5,27,90,1.2100000000000006,4.049999999999958,0.8600000000000005,0.16,5,2,2,1,6,2,3,1,5,0,18,7,H,0.20166666666666674,2.024999999999979,0.2866666666666668,0.16
7,10,19,1,11,0.34000000000000014,3,5,114,71,28,91,3.5599999999999756,0.5500000000000003,0.01,2.1399999999999983,8,2,1,4,11,2,1,5,4,0,14,7,H,0.32363636363636383,0.27500000000000013,0.01,0.4280000000000002
7,10,20,1,12,0.38000000000000017,2,3,46,15,83,84,0.9200000000000004,0.2800000000000001,0.2800000000000001,0.12999999999999998,4,1,1,2,5,1,1,2,5,0,17,7,H,0.18400000000000005,0.2800000000000001,0.2800000000000001,0.065
7,11,21,1,1,0.36000000000000015,2,3,68,5,119,82,1.4600000000000009,2.1799999999999975,0.02,0.01,4,2,1,1,5,2,1,1,3,0,15,7,H,0.29200000000000015,1.0899999999999987,0.02,0.01
7,11,22,1,8,1.2100000000000009,3,4,14,50,86,56,2.0900000000000016,0.3100000000000001,0.060000000000000005,0.01,5,2,1,1,6,2,1,1,2,0,17,7,H,0.34833333333333355,0.155,0.060000000000000005,0.01
7,12,23,1,12,1.370000000000001,7,11,48,88,37,40,2.0000000000000013,0.12999999999999998,0.17,0.09999999999999999,9,1,1,1,13,1,1,1,5,0.5,18,7,H,0.1538461538461539,0.12999999999999998,0.17,0.09999999999999999
7,12,24,1,15,0.3000000000000001,2,4,19,110,16,120,0.8600000000000003,0.23000000000000007,0.10999999999999999,0.8000000000000005,3,1,1,3,5,1,1,3,6,0,16,7,H,0.17200000000000007,0.23000000000000007,0.10999999999999999,0.2666666666666667
7,13,25,1,7,0.2900000000000001,2,6,12,29,63,6,0.6700000000000003,0.5500000000000003,0.16,0.060000000000000005,4,1,1,1,8,1,1,1,6,0,21,7,H,0.08375,0.5500000000000003,0.16,0.060000000000000005
7,13,26,1,2,0.21000000000000005,2,3,52,51,48,15,0.6600000000000003,0.15,0.9000000000000006,0.07,3,1,3,1,4,1,3,1,4,0,19,7,H,0.16500000000000006,0.15,0.3000000000000001,0.07
7,14,27,1,7,0.6400000000000003,8,10,36,8,3,1,1.1000000000000005,0.20000000000000004,1.5100000000000011,4.819999999999942,11,1,4,7,14,1,4,10,6,0.5,23,7,H,0.07857142857142858,0.20000000000000004,0.37750000000000017,0.48199999999999876
7,14,28,1,11,0.3000000000000001,2,3,18,21,98,64,0.9400000000000004,0.17,0.25000000000000006,0.09999999999999999,4,1,1,1,6,1,1,1,4,0,18,7,H,0.1566666666666667,0.17,0.25000000000000006,0.09999999999999999
7,15,29,1,14,0.09999999999999999,3,3,91,97,104,93,2.8499999999999854,0.3000000000000001,2.010000000000001,0.23000000000000007,10,3,2,2,12,3,3,2,3,0,10,7,H,0.2375000000000001,0.09999999999999999,0.6700000000000005,0.11500000000000003
7,15,30,1,13,0.4000000000000002,2,3,15,116,114,65,1.1400000000000006,0.3000000000000001,0.4100000000000002,0.02,3,2,2,1,4,2,2,1,2,0,14,7,H,0.28500000000000014,0.15000000000000005,0.2050000000000001,0.02
7,16,31,1,13,0.24000000000000007,2,3,63,112,62,16,0.6500000000000002,0.19000000000000003,0.12999999999999998,4.199999999999955,3,1,1,4,4,1,1,4,2,0,16,7,H,0.16250000000000003,0.19000000000000003,0.12999999999999998,1.0500000000000003
7,16,32,1,3,0.36000000000000015,2,3,51,97,26,94,1.720000000000001,0.02,0.02,0.060000000000000005,4,1,1,2,5,1,1,2,5,0,14,7,H,0.3440000000000002,0.02,0.02,0.030000000000000002
7,17,33,1,8,0.45000000000000023,6,7,99,95,96,12,1.0000000000000004,0.3000000000000001,0.12999999999999998,0.11999999999999998,8,2,1,1,9,4,1,1,2,0,14,7,H,0.11111111111111113,0.07500000000000001,0.12999999999999998,0.11999999999999998
7,17,34,1,15,0.47000000000000025,2,4,118,31,50,111,1.690000000000001,0.38000000000000017,0.26000000000000006,0.01,4,1,1,1,6,1,1,1,6,0,13,7,H,0.28166666666666684,0.38000000000000017,0.26000000000000006,0.01
7,18,35,1,1,0.3300000000000001,3,5,3,114,115,78,1.3100000000000007,11.419999999999801,11.889999999999791,2.3599999999999937,5,10,11,2,7,17,16,2,3,0,13,7,H,0.18714285714285722,0.6717647058823526,0.7431249999999999,1.1799999999999968
7,18,36,1,14,0.15,2,3,104,51,49,31,0.8100000000000004,0.6700000000000004,0.03,0.05,3,1,1,1,4,1,1,1,3,0,15,7,H,0.2025000000000001,0.6700000000000004,0.03,0.05
7,19,37,1,13,0.34000000000000014,2,3,3,88,71,86,1.1800000000000006,0.2700000000000001,0.04,0.36000000000000015,4,2,1,2,5,2,1,3,2,0,16,7,H,0.2360000000000001,0.13499999999999998,0.04,0.12000000000000002
7,19,38,1,8,0.21000000000000005,1,2,33,57,24,22,0.9100000000000005,0.24000000000000007,0.8200000000000005,0.01,2,1,2,1,3,1,2,1,2,0,21,7,H,0.30333333333333345,0.24000000000000007,0.41000000000000025,0.01
7,20,39,1,2,0.36000000000000015,9,9,52,4,57,5,0.7200000000000003,1.5600000000000012,0.01,0.15,10,4,1,2,10,4,1,2,4,0,20,7,H,0.07200000000000002,0.3900000000000002,0.01,0.075
7,20,40,1,3,0.2800000000000001,2,3,25,85,102,86,0.8300000000000003,0.21000000000000005,0.3100000000000001,0.2900000000000001,4,1,1,2,5,1,1,2,5,0,13,7,H,0.16600000000000004,0.21000000000000005,0.3100000000000001,0.14500000000000005
7,21,41,1,12,0.3100000000000001,2,4,42,11,5,103,0.8100000000000003,1.5200000000000011,0.01,0.01,4,3,1,1,6,3,1,1,5,0,19,7,H,0.135,0.506666666666667,0.01,0.01
7,21,42,1,1,0.25000000000000006,2,3,35,109,54,113,0.8000000000000003,0.6800000000000004,0.16,0.01,3,1,1,1,4,1,1,1,3,0,13,7,H,0.20000000000000007,0.6800000000000004,0.16,0.01
7,22,43,1,11,0.46000000000000024,2,4,61,5,7,112,0.9100000000000005,0.2700000000000001,1.0300000000000007,0.03,4,1,5,1,6,1,5,1,4,0,18,7,H,0.15166666666666667,0.2700000000000001,0.20600000000000007,0.03
7,22,44,1,3,0.21000000000000005,3,3,13,104,81,25,15.389999999999722,0.01,0.01,0.01,13,1,1,1,18,1,1,1,5,0,16,7,H,0.8549999999999989,0.01,0.01,0.01
8,1,1,0,6,0.3000000000000001,2,3,2,1,47,81,1.520000000000001,4.199999999999955,0.01,0.01,4,9,1,1,20,30,1,1,6,0,20,7,H,0.076,0.14000000000000004,0.01,0.01
8,1,2,0,9,0.2900000000000001,2,4,21,61,28,93,1.7600000000000011,0.22000000000000006,0.2700000000000001,0.15,4,2,2,1,17,3,3,1,4,0,18,7,H,0.1035294117647059,0.07333333333333333,0.09,0.15
8,2,3,0,2,0.3300000000000001,2,6,58,52,114,43,1.4400000000000008,0.34000000000000014,0.45000000000000023,0.16,4,2,2,1,14,4,3,1,4,0,15,7,H,0.10285714285714288,0.08499999999999999,0.15000000000000005,0.16
8,2,4,0,3,0.3300000000000001,2,3,31,32,24,21,1.3200000000000007,0.6400000000000003,0.2900000000000001,0.23000000000000007,4,2,3,2,13,8,5,4,5,0,22,7,H,0.10153846153846155,0.08,0.057999999999999996,0.0575
8,3,5,0,3,0.5700000000000003,2,8,114,28,3,35,1.8900000000000012,0.17,0.23000000000000007,0.17,4,1,1,1,20,1,1,1,5,0,18,7,H,0.0945,0.17,0.23000000000000007,0.17
8,3,6,0,7,0.48000000000000026,2,12,22,47,24,48,1.520000000000001,0.5600000000000003,0.2800000000000001,2.0000000000000013,5,2,2,4,16,5,4,20,6,0,22,7,H,0.09500000000000003,0.11200000000000002,0.07,0.10000000000000002
8,4,7,0,7,0.22000000000000006,2,3,20,60,17,16,0.9700000000000005,1.410000000000001,0.16,0.09,4,2,2,2,7,5,2,2,6,0.5,22,7,H,0.1385714285714286,0.2820000000000001,0.07999999999999999,0.045
8,4,8,0,5,0.7500000000000004,5,6,37,47,111,2,1.9900000000000013,0.25000000000000006,0.24000000000000007,0.16,7,2,1,2,14,3,1,3,5,0,18,7,H,0.14214285714285718,0.08333333333333333,0.24000000000000007,0.05333333333333333
8,5,9,0,10,0.4300000000000002,2,6,92,57,1,30,1.4300000000000008,1.0100000000000007,0.37000000000000016,1.360000000000001,4,2,3,3,18,9,5,8,3,0,18,7,H,0.07944444444444446,0.11222222222222222,0.074,0.17000000000000004
8,5,10,0,5,0.26000000000000006,2,5,45,117,38,18,1.3800000000000008,0.5300000000000002,0.09,0.19000000000000003,4,2,1,2,13,4,1,3,5,0,18,7,H,0.10615384615384617,0.13250000000000003,0.09,0.06333333333333332
8,6,11,0,2,0.46000000000000024,2,4,49,94,91,13,1.640000000000001,0.5800000000000003,0.17,0.11999999999999998,4,2,1,2,18,6,1,3,4,0,16,7,H,0.09111111111111111,0.09666666666666668,0.17,0.04
8,6,12,0,1,0.36000000000000015,2,4,82,99,101,31,1.520000000000001,0.7500000000000004,0.6600000000000004,0.060000000000000005,5,2,2,1,14,4,5,1,3,0,12,7,H,0.10857142857142858,0.18750000000000006,0.132,0.060000000000000005
8,7,13,1,2,0.5900000000000003,2,12,50,7,51,35,1.8500000000000012,1.2400000000000009,0.2900000000000001,0.07,4,2,2,2,24,10,2,3,4,0,19,7,H,0.07708333333333334,0.12400000000000003,0.14500000000000002,0.02333333333333333
8,7,14,1,14,0.3000000000000001,2,4,86,85,87,38,1.2200000000000006,0.3200000000000001,0.4100000000000002,0.09999999999999999,4,2,2,1,6,3,3,1,3,0.5,14,7,H,0.2033333333333334,0.10666666666666669,0.1366666666666667,0.09999999999999999
8,8,15,1,15,0.37000000000000016,2,6,23,91,24,13,1.8500000000000012,0.5800000000000003,0.04,1.290000000000001,4,3,1,4,12,6,1,9,6,0.5,21,7,H,0.1541666666666667,0.09666666666666668,0.04,0.14333333333333337
8,8,16,1,11,0.26000000000000006,2,3,67,71,108,73,1.1500000000000006,0.5200000000000002,0.7700000000000005,0.13999999999999999,4,2,3,1,8,9,7,1,4,0,13,7,H,0.14375000000000002,0.05777777777777778,0.11000000000000003,0.13999999999999999
8,9,17,1,3,0.49000000000000027,2,9,98,30,33,36,1.640000000000001,0.07,0.5400000000000003,0.05,5,1,4,1,20,1,6,1,5,0.5,17,7,H,0.08200000000000002,0.07,0.09000000000000001,0.05
8,9,18,1,12,0.3300000000000001,2,4,40,112,77,70,1.4500000000000008,0.7000000000000004,0.24000000000000007,0.49000000000000027,6,3,1,3,15,4,1,4,5,0,14,7,H,0.09666666666666668,0.17500000000000004,0.24000000000000007,0.12250000000000001
8,10,19,1,15,0.47000000000000025,2,6,21,31,24,82,1.520000000000001,0.6000000000000003,0.18000000000000002,1.1600000000000008,4,2,2,2,13,7,2,4,6,0,20,7,H,0.11692307692307694,0.08571428571428573,0.09,0.2900000000000001
8,10,20,1,14,0.35000000000000014,2,9,43,86,90,104,1.630000000000001,0.09,0.48000000000000026,0.08,4,1,3,1,20,1,6,1,3,0,13,7,H,0.08150000000000002,0.09,0.08,0.08
8,11,21,1,13,0.4000000000000002,2,4,116,117,2,34,1.7800000000000011,0.16,2.159999999999998,0.01,5,1,5,1,16,1,17,1,2,0,15,7,H,0.11125000000000002,0.16,0.1270588235294118,0.01
8,11,22,1,15,0.4000000000000002,5,6,14,19,16,23,1.580000000000001,0.5100000000000002,2.099999999999999,0.01,7,2,6,1,19,5,17,1,6,1,72,7,H,0.08315789473684211,0.10200000000000001,0.1235294117647059,0.01
8,12,23,1,11,0.3000000000000001,2,6,64,17,67,100,1.3400000000000007,3.46999999999997,0.01,0.5800000000000003,4,8,1,3,18,33,1,3,4,0,16,7,H,0.07444444444444445,0.10515151515151518,0.01,0.19333333333333338
8,12,24,1,2,0.20000000000000004,2,3,55,111,51,120,0.9600000000000005,0.4100000000000002,0.34000000000000014,0.11999999999999998,4,2,3,1,11,3,4,1,4,0,12,7,H,0.08727272727272728,0.1366666666666667,0.08499999999999999,0.11999999999999998
8,13,25,1,2,0.24000000000000007,2,4,15,55,56,54,9.299999999999851,0.01,0.01,0.05,18,1,1,2,68,1,1,2,4,0.5,18,7,H,0.13676470588235298,0.01,0.01,0.025
8,13,26,1,3,0.19000000000000003,2,5,32,120,112,27,1.2600000000000007,0.8100000000000005,0.26000000000000006,0.5300000000000002,6,3,1,5,15,6,1,6,5,0,14,7,H,0.084,0.135,0.26000000000000006,0.08833333333333333
8,14,27,1,14,0.3100000000000001,2,5,112,90,95,86,1.4200000000000008,0.15,0.24000000000000007,0.5300000000000002,7,1,2,4,14,1,4,4,3,0.5,11,7,H,0.10142857142857145,0.15,0.06,0.1325
8,14,28,1,1,0.24000000000000007,2,4,79,78,29,25,1.3600000000000008,0.09,0.38000000000000017,1.1400000000000008,4,1,2,10,12,1,3,11,3,0,16,7,H,0.11333333333333334,0.09,0.12666666666666668,0.10363636363636364
8,15,29,1,7,0.35000000000000014,2,5,11,3,110,81,1.2200000000000006,0.23000000000000007,0.38000000000000017,0.19000000000000003,5,1,2,1,11,1,3,1,6,0,17,7,H,0.11090909090909093,0.23000000000000007,0.12666666666666668,0.19000000000000003
8,15,30,1,8,0.10999999999999999,2,3,108,105,100,90,0.6400000000000002,0.5700000000000003,0.45000000000000023,1.7800000000000014,4,2,5,8,7,3,6,14,2,0.5,9,7,H,0.09142857142857146,0.19000000000000003,0.075,0.12714285714285717
8,16,31,1,8,0.5200000000000002,2,6,104,90,107,33,1.4400000000000008,1.0000000000000007,0.8500000000000005,0.3900000000000002,8,2,2,3,17,8,3,4,2,0,12,7,H,0.08470588235294117,0.12500000000000003,0.28333333333333344,0.09750000000000002
8,16,32,1,12,0.18000000000000002,2,4,44,79,80,73,0.8200000000000004,0.6900000000000004,0.3100000000000001,0.2800000000000001,4,3,2,2,6,5,4,4,5,0.5,14,7,H,0.13666666666666671,0.13800000000000004,0.0775,0.07
8,17,33,1,13,0.3300000000000001,2,5,111,119,10,90,1.750000000000001,0.09,0.6800000000000004,0.2700000000000001,4,1,3,2,19,1,7,3,2,0,13,7,H,0.09210526315789475,0.09,0.09714285714285716,0.09
8,17,34,1,1,0.35000000000000014,2,4,83,54,46,100,1.600000000000001,0.8400000000000005,0.060000000000000005,0.10999999999999999,5,3,1,2,12,9,2,2,3,0,14,7,H,0.13333333333333336,0.09333333333333337,0.03,0.05500000000000001
8,18,35,1,15,0.20000000000000004,2,4,21,14,31,15,0.9700000000000005,0.23000000000000007,0.8800000000000006,2.669999999999987,4,1,3,6,9,1,5,20,6,0.5,23,7,H,0.10777777777777779,0.23000000000000007,0.17600000000000005,0.13350000000000004
8,18,36,1,13,0.49000000000000027,2,13,116,1,39,113,1.650000000000001,0.23000000000000007,0.23000000000000007,0.060000000000000005,4,2,2,1,20,2,2,1,2,0,15,7,H,0.08250000000000002,0.11500000000000003,0.115,0.060000000000000005
8,19,37,1,1,0.7000000000000004,3,5,79,109,110,120,1.0400000000000005,1.360000000000001,0.25000000000000006,0.17,5,2,1,2,7,10,1,3,3,0.5,9,7,H,0.14857142857142863,0.13600000000000004,0.25000000000000006,0.05666666666666667
8,19,38,1,15,0.3000000000000001,1,2,14,52,53,87,1.1000000000000005,0.5600000000000003,0.2900000000000001,0.3000000000000001,3,2,3,2,6,6,4,3,6,0,17,7,H,0.18333333333333338,0.09333333333333334,0.0725,0.09999999999999999
8,20,39,1,13,0.6200000000000003,3,4,120,60,41,21,1.8300000000000012,0.4100000000000002,0.2800000000000001,0.38000000000000017,5,3,2,1,14,5,3,1,2,0,17,7,H,0.13071428571428573,0.08199999999999999,0.09333333333333334,0.38000000000000017
8,20,40,1,1,0.3900000000000002,2,4,78,75,83,25,1.3900000000000008,0.7500000000000004,0.11999999999999998,0.7500000000000004,4,3,2,4,10,5,2,8,3,0.5,14,7,H,0.13900000000000004,0.15000000000000002,0.06,0.09375
8,21,41,1,2,0.25000000000000006,2,3,49,112,110,79,1.520000000000001,0.09,0.6300000000000003,0.10999999999999999,4,1,3,2,13,1,5,4,4,0,11,7,H,0.11692307692307694,0.09,0.12600000000000003,0.027500000000000004
8,21,42,1,14,0.3100000000000001,4,5,86,19,13,61,1.5000000000000009,0.36000000000000015,0.2900000000000001,0.47000000000000025,9,2,2,3,13,2,3,6,3,0,19,7,H,0.1153846153846154,0.18000000000000005,0.09666666666666665,0.07833333333333334
8,22,43,1,12,0.21000000000000005,2,3,48,114,86,110,1.1600000000000006,0.4000000000000002,0.25000000000000006,1.0300000000000007,4,2,2,4,13,2,4,9,5,0,12,7,H,0.08923076923076924,0.20000000000000004,0.0625,0.11444444444444447
8,22,44,1,1,0.3100000000000001,3,7,75,77,57,22,1.1800000000000006,0.20000000000000004,1.500000000000001,0.09999999999999999,5,1,8,2,13,1,8,2,3,0,16,7,H,0.09076923076923078,0.20000000000000004,0.18750000000000006,0.05
9,1,1,0,9,0.3100000000000001,2,5,70,106,28,2,0.7600000000000003,0.5900000000000003,0.07,0.15,4,2,1,1,7,4,1,1,4,0,17,7,H,0.10857142857142858,0.14750000000000002,0.07,0.15
9,1,2,0,1,0.2800000000000001,2,3,79,40,38,80,0.8300000000000003,0.9400000000000006,0.3300000000000001,0.02,4,2,2,1,5,3,2,1,3,0,16,7,H,0.16600000000000004,0.31333333333333346,0.165,0.02
9,2,3,0,4,0.2900000000000001,2,4,107,105,5,102,0.8600000000000003,0.15,0.3100000000000001,0.5500000000000003,4,1,1,2,6,2,1,2,2,0.5,12,7,H,0.14333333333333337,0.075,0.3100000000000001,0.27500000000000013
9,2,4,0,7,0.34000000000000014,2,3,18,32,30,15,0.8100000000000004,0.6800000000000004,1.8900000000000015,0.01,4,2,4,1,5,4,5,1,6,0,22,7,H,0.16200000000000003,0.17000000000000004,0.37800000000000017,0.01
9,3,5,0,6,0.2800000000000001,1,2,6,74,28,1,1.1300000000000006,0.6700000000000004,2.259999999999996,0.01,3,2,4,1,4,2,10,1,6,0,20,7,H,0.2825000000000001,0.33500000000000013,0.2260000000000001,0.01
9,3,6,0,5,0.34000000000000014,2,3,39,23,93,15,1.1300000000000006,0.09,0.5100000000000002,0.22000000000000006,4,2,2,3,5,3,2,3,5,0,20,7,H,0.22600000000000006,0.030000000000000002,0.2550000000000001,0.07333333333333333
9,4,7,0,2,0.2700000000000001,2,3,22,119,52,51,1.1300000000000006,0.5200000000000002,0.01,0.04,3,2,1,1,4,2,1,1,4,0,16,7,H,0.28250000000000014,0.2600000000000001,0.01,0.04
9,4,8,0,6,0.3100000000000001,2,4,9,99,72,86,0.8700000000000003,2.7299999999999858,0.4300000000000002,0.8600000000000005,4,4,1,2,6,7,1,2,6,0,15,7,H,0.14500000000000002,0.3900000000000002,0.4300000000000002,0.43000000000000027
9,5,9,0,1,0.3000000000000001,2,3,81,77,31,84,0.9300000000000004,0.13999999999999999,0.38000000000000017,0.01,3,1,2,1,4,1,2,1,3,0.5,14,7,H,0.2325000000000001,0.13999999999999999,0.19000000000000003,0.01
9,5,10,0,6,0.3100000000000001,2,4,117,3,114,96,1.2100000000000006,0.03,2.99999999999998,2.07,4,1,5,4,7,1,7,4,6,0,13,7,H,0.1728571428571429,0.03,0.4285714285714288,0.5175000000000004
9,6,11,0,8,0.3900000000000002,2,3,60,111,116,91,1.3800000000000008,0.060000000000000005,0.24000000000000007,0.08,4,1,2,1,8,2,2,1,2,0,11,7,H,0.17250000000000004,0.03,0.11999999999999998,0.08
9,6,12,0,1,0.4200000000000002,2,3,80,33,5,81,1.0300000000000005,0.5600000000000003,0.09999999999999999,0.20000000000000004,4,2,1,2,9,6,1,2,3,0,17,7,H,0.11444444444444445,0.09333333333333334,0.09999999999999999,0.09999999999999999
9,7,13,1,13,0.34000000000000014,2,5,115,117,80,54,0.9800000000000004,0.13999999999999999,0.21000000000000005,0.3900000000000002,4,1,1,2,7,1,1,2,2,0,11,7,H,0.14000000000000004,0.13999999999999999,0.21000000000000005,0.19500000000000006
9,7,14,1,14,0.2700000000000001,2,3,93,85,7,64,0.9700000000000004,0.01,0.36000000000000015,0.13999999999999999,4,1,2,1,5,1,2,1,3,0,16,7,H,0.19400000000000006,0.01,0.18000000000000002,0.13999999999999999
9,8,15,1,13,0.3900000000000002,2,5,113,110,43,18,0.9700000000000004,0.26000000000000006,0.23000000000000007,0.20000000000000004,4,2,2,1,9,3,2,1,2,0,15,7,H,0.10777777777777779,0.08666666666666668,0.11500000000000002,0.20000000000000004
9,8,16,1,11,0.3200000000000001,2,3,68,93,31,102,0.8800000000000003,0.6400000000000003,0.21000000000000005,0.08,4,1,2,1,5,1,2,1,4,0,14,7,H,0.17600000000000005,0.6400000000000003,0.105,0.08
9,9,17,1,15,0.3200000000000001,2,3,87,16,106,60,1.1700000000000006,0.07,1.350000000000001,1.270000000000001,4,1,2,3,6,1,5,3,6,0,15,7,H,0.19500000000000006,0.07,0.27000000000000013,0.42333333333333356
9,9,18,1,1,0.36000000000000015,2,7,74,61,48,46,0.7800000000000004,0.5800000000000003,0.07,0.5600000000000003,4,2,1,2,9,2,1,2,3,0,17,7,H,0.08666666666666668,0.2900000000000001,0.07,0.28000000000000014
9,10,19,1,14,0.3900000000000002,2,4,55,91,99,1,0.9100000000000004,0.3000000000000001,0.16,0.4300000000000002,3,2,1,2,5,3,1,3,3,0,15,7,H,0.18200000000000005,0.09999999999999999,0.16,0.14333333333333337
9,10,20,1,13,0.3900000000000002,2,5,15,119,118,68,1.2600000000000007,0.02,0.19000000000000003,0.07,4,1,1,1,8,1,1,1,2,0,14,7,H,0.15750000000000003,0.02,0.19000000000000003,0.07
9,11,21,1,1,0.3000000000000001,2,3,84,57,83,26,0.9800000000000004,0.20000000000000004,0.04,0.45000000000000023,4,2,1,2,8,2,1,2,3,0,15,7,H,0.12250000000000001,0.1,0.04,0.22500000000000003
9,11,22,1,12,0.2900000000000001,3,4,44,39,69,109,0.9500000000000004,0.04,0.18000000000000002,0.2900000000000001,5,1,1,1,6,1,1,1,5,0,16,7,H,0.15833333333333338,0.04,0.18000000000000002,0.2900000000000001
9,12,23,1,14,0.7000000000000004,2,3,88,103,95,30,1.0300000000000005,0.5300000000000002,0.4300000000000002,0.09,4,1,2,1,5,1,2,1,3,0,13,7,H,0.20600000000000007,0.5300000000000002,0.21500000000000008,0.09
9,12,24,1,2,0.3300000000000001,2,3,54,40,55,22,1.0000000000000004,0.2900000000000001,0.22000000000000006,0.09999999999999999,4,1,1,2,5,1,1,2,4,0,19,7,H,0.20000000000000007,0.2900000000000001,0.22000000000000006,0.05
9,13,25,1,12,0.2700000000000001,2,4,46,47,43,22,0.9000000000000004,0.16,0.17,0.6000000000000003,4,1,1,3,6,2,1,4,5,0.5,21,7,H,0.15000000000000005,0.08,0.17,0.15000000000000005
9,13,26,1,3,0.8500000000000005,2,4,91,32,56,26,1.590000000000001,0.20000000000000004,0.45000000000000023,0.19000000000000003,4,1,2,2,7,1,3,2,5,0,17,7,H,0.22714285714285726,0.20000000000000004,0.15000000000000002,0.095
9,14,27,1,1,0.23000000000000007,2,3,83,102,20,76,1.0800000000000005,0.18000000000000002,0.11999999999999998,0.060000000000000005,4,1,1,1,7,1,1,1,3,0,14,7,H,0.15428571428571433,0.18000000000000002,0.11999999999999998,0.060000000000000005
9,14,28,1,13,0.6000000000000003,2,5,119,113,91,29,1.2600000000000007,0.3200000000000001,0.09999999999999999,0.24000000000000007,4,2,1,2,9,2,1,2,2,0,12,7,H,0.14000000000000004,0.16,0.09999999999999999,0.12000000000000001
9,15,29,1,1,0.24000000000000007,2,3,80,83,21,52,0.9800000000000005,0.09,0.48000000000000026,0.16,4,1,2,1,5,1,2,1,3,0,16,7,H,0.19600000000000006,0.09,0.24000000000000005,0.16
9,15,30,1,12,0.25000000000000006,2,3,3,46,88,37,1.4500000000000008,0.04,0.16,0.3100000000000001,4,1,1,2,6,1,1,3,5,0,19,7,H,0.24166666666666678,0.04,0.16,0.10333333333333335
9,16,31,1,1,0.6900000000000004,2,3,21,36,32,29,2.78,0.07,0.08,0.01,7,1,1,1,9,1,1,1,3,0.5,21,7,H,0.30888888888888905,0.07,0.08,0.01
9,16,32,1,12,0.24000000000000007,3,3,47,85,72,68,0.9700000000000005,0.5400000000000003,0.22000000000000006,0.9800000000000006,5,2,2,3,8,2,2,4,5,0,16,7,H,0.12125000000000001,0.27000000000000013,0.11000000000000001,0.2450000000000001
9,17,33,1,8,0.3300000000000001,2,3,30,104,82,20,1.1400000000000006,0.060000000000000005,0.17,0.16,3,1,1,1,4,1,1,1,2,0,16,7,H,0.28500000000000014,0.060000000000000005,0.17,0.16
9,17,34,1,14,0.35000000000000014,3,5,90,91,44,117,0.8700000000000003,0.15,0.3200000000000001,0.22000000000000006,4,1,2,1,6,1,3,1,3,0,13,7,H,0.14500000000000005,0.15,0.10666666666666669,0.22000000000000006
9,18,35,1,2,0.19000000000000003,2,3,60,106,2,104,0.7700000000000004,0.47000000000000025,0.07,0.11999999999999998,4,2,1,1,5,4,1,1,4,0,14,7,H,0.15400000000000003,0.11750000000000002,0.07,0.11999999999999998
9,18,36,1,11,0.48000000000000026,4,6,64,72,115,82,1.530000000000001,0.03,0.18000000000000002,0.05,6,1,1,1,10,1,1,1,4,0,13,7,H,0.15300000000000005,0.03,0.18000000000000002,0.05
9,19,37,1,14,0.2900000000000001,2,5,91,35,3,5,1.0200000000000005,0.5900000000000003,0.03,0.17,4,2,1,1,7,2,1,1,3,0,20,7,H,0.14571428571428577,0.29500000000000015,0.03,0.17
9,19,38,1,12,0.34000000000000014,2,4,37,61,73,70,0.9400000000000004,0.23000000000000007,0.36000000000000015,0.10999999999999999,4,1,1,2,6,1,1,2,5,0,16,7,H,0.1566666666666667,0.23000000000000007,0.36000000000000015,0.055
9,20,39,1,12,0.2700000000000001,2,3,89,38,3,108,0.9900000000000004,0.11999999999999998,0.24000000000000007,0.17,3,1,1,2,4,1,1,2,5,0,16,7,H,0.2475000000000001,0.11999999999999998,0.24000000000000007,0.08499999999999999
9,20,40,1,3,0.3100000000000001,2,5,30,64,29,23,0.7600000000000003,0.5300000000000002,0.4400000000000002,0.04,4,2,2,1,7,5,3,1,5,0,20,7,H,0.1085714285714286,0.10600000000000002,0.1466666666666667,0.04
9,21,41,1,3,0.2700000000000001,2,3,34,19,35,92,0.8000000000000003,0.45000000000000023,0.03,0.3100000000000001,4,2,1,1,5,4,1,1,5,0,19,7,H,0.16000000000000003,0.11250000000000002,0.03,0.3100000000000001
9,21,42,1,12,0.4300000000000002,3,5,39,102,37,105,1.0100000000000005,0.26000000000000006,0.25000000000000006,0.5000000000000002,5,1,2,2,9,1,3,2,5,0,14,7,H,0.11222222222222225,0.26000000000000006,0.08333333333333333,0.2500000000000001
9,22,43,1,14,0.4100000000000002,2,3,96,16,115,13,0.9600000000000004,0.25000000000000006,1.5800000000000012,0.01,4,1,3,1,5,1,3,1,3,0,17,7,H,0.19200000000000003,0.25000000000000006,0.526666666666667,0.01
9,22,44,1,1,0.22000000000000006,2,3,76,103,4,78,1.9100000000000013,0.03,0.03,0.6200000000000003,4,1,1,2,5,1,1,2,3,0,14,7,H,0.38200000000000023,0.03,0.03,0.31000000000000016
10,1,1,0,1,0.22000000000000006,2,3,53,112,38,59,1.720000000000001,0.060000000000000005,0.3100000000000001,0.09999999999999999,4,1,1,2,5,1,1,2,3,0,15,7,H,0.3440000000000002,0.060000000000000005,0.3100000000000001,0.05
10,1,2,0,7,0.34000000000000014,2,3,16,14,107,18,1.2800000000000007,4.989999999999938,0.24000000000000007,0.24000000000000007,4,7,1,1,5,7,1,1,6,0.5,20,7,H,0.25600000000000006,0.7128571428571433,0.24000000000000007,0.24000000000000007
10,2,3,0,6,0.2800000000000001,2,3,7,6,1,31,0.8700000000000003,0.12999999999999998,0.18000000000000002,0.3100000000000001,4,1,1,2,7,1,1,3,6,0.5,23,7,H,0.12428571428571428,0.12999999999999998,0.18000000000000002,0.10333333333333333
10,2,4,0,10,0.26000000000000006,2,3,120,95,38,92,1.0200000000000005,0.10999999999999999,0.34000000000000014,0.05,4,1,1,1,6,1,1,1,3,0,13,7,H,0.17000000000000004,0.10999999999999999,0.34000000000000014,0.05
10,3,5,0,9,0.18000000000000002,2,3,112,62,96,92,0.9100000000000005,0.03,0.21000000000000005,0.15,4,1,1,1,6,1,1,1,4,0,12,7,H,0.15166666666666673,0.03,0.21000000000000005,0.15
10,3,6,0,5,0.2900000000000001,2,4,39,53,58,22,0.7400000000000003,0.5600000000000003,0.3900000000000002,0.19000000000000003,4,2,1,2,6,2,1,2,5,0,19,7,H,0.12333333333333336,0.28000000000000014,0.3900000000000002,0.095
10,4,7,0,2,0.19000000000000003,2,3,50,45,107,104,0.9100000000000005,0.08,0.2900000000000001,0.18000000000000002,4,1,1,1,5,1,1,1,4,0,13,7,H,0.18200000000000005,0.08,0.2900000000000001,0.18000000000000002
10,4,8,0,9,0.2700000000000001,2,3,71,61,19,118,0.8700000000000003,0.09999999999999999,0.2700000000000001,0.13999999999999999,5,1,1,1,7,1,1,1,4,0,16,7,H,0.1242857142857143,0.09999999999999999,0.2700000000000001,0.13999999999999999
10,5,9,0,2,0.25000000000000006,2,3,51,52,58,35,1.0900000000000005,0.5100000000000002,0.05,0.20000000000000004,3,1,1,1,4,1,1,1,4,0.5,17,7,H,0.27250000000000013,0.5100000000000002,0.05,0.20000000000000004
10,5,10,0,9,0.21000000000000005,2,3,68,66,1,79,0.6700000000000003,0.21000000000000005,0.5100000000000002,0.25000000000000006,3,1,2,1,4,1,2,1,4,0,17,7,H,0.16750000000000007,0.21000000000000005,0.25500000000000006,0.25000000000000006
10,6,11,0,7,0.3200000000000001,2,3,16,14,37,104,0.9900000000000004,25.180000000001137,0.05,0.01,4,14,1,1,5,31,1,1,6,0,19,7,H,0.19800000000000006,0.8122580645161294,0.05,0.01
10,6,12,0,2,0.36000000000000015,6,7,26,11,2,8,1.2500000000000007,3.47999999999997,7.569999999999883,6.379999999999908,7,4,7,4,8,4,8,5,4,0.5,23,7,H,0.15625000000000008,0.8700000000000006,0.9462499999999989,1.2759999999999934
10,7,13,1,8,0.2700000000000001,2,3,70,100,16,18,1.0000000000000004,0.11999999999999998,0.37000000000000016,0.060000000000000005,5,1,3,1,6,1,3,1,2,0,18,7,H,0.1666666666666667,0.11999999999999998,0.12333333333333335,0.060000000000000005
10,7,14,1,7,0.6000000000000003,13,13,12,39,11,118,1.0600000000000005,0.24000000000000007,0.09999999999999999,0.3100000000000001,14,1,1,2,14,1,1,3,6,0,19,7,H,0.07571428571428573,0.24000000000000007,0.09999999999999999,0.10333333333333336
10,8,15,1,13,0.4000000000000002,7,9,68,116,61,72,0.9600000000000004,0.25000000000000006,0.18000000000000002,0.10999999999999999,8,1,1,1,10,1,1,1,2,0.5,14,7,H,0.09600000000000003,0.25000000000000006,0.18000000000000002,0.10999999999999999
10,8,16,1,2,0.17,2,3,57,20,58,22,0.6100000000000002,0.4100000000000002,0.07,0.9000000000000006,3,2,1,2,4,2,1,2,4,0,20,7,H,0.15250000000000005,0.2050000000000001,0.07,0.4500000000000003
10,9,17,1,14,0.22000000000000006,2,3,87,47,18,38,0.6100000000000002,0.3900000000000002,0.15,0.16,4,2,1,1,5,4,1,1,3,0,19,7,H,0.12200000000000001,0.09750000000000003,0.15,0.16
10,9,18,1,7,0.23000000000000007,2,3,12,71,77,69,0.7000000000000003,0.34000000000000014,0.4300000000000002,0.11999999999999998,4,1,1,1,5,1,1,1,6,0,17,7,H,0.14,0.34000000000000014,0.4300000000000002,0.11999999999999998
10,10,19,1,1,0.2700000000000001,2,3,48,78,49,13,0.8800000000000003,0.12999999999999998,0.5900000000000003,0.03,3,1,2,1,4,1,2,1,3,0,18,7,H,0.22000000000000008,0.12999999999999998,0.2950000000000001,0.03
10,10,20,1,11,0.26000000000000006,2,3,66,110,88,6,1.0100000000000005,0.22000000000000006,0.25000000000000006,0.49000000000000027,4,1,1,2,5,1,1,2,4,0,15,7,H,0.20200000000000007,0.22000000000000006,0.25000000000000006,0.24500000000000013
10,11,21,1,12,0.26000000000000006,2,3,4,55,39,57,1.650000000000001,0.03,1.1500000000000008,0.01,4,1,3,1,5,1,3,1,5,0,19,7,H,0.3300000000000002,0.03,0.3833333333333335,0.01
10,11,22,1,1,0.20000000000000004,2,3,20,75,26,79,0.7500000000000003,0.11999999999999998,0.5800000000000003,0.04,3,1,1,1,4,1,1,1,3,0,17,7,H,0.18750000000000006,0.11999999999999998,0.5800000000000003,0.04
10,12,23,1,12,0.23000000000000007,2,3,41,5,71,10,0.8100000000000004,0.3200000000000001,0.22000000000000006,0.09999999999999999,4,1,1,1,5,1,1,1,5,0,21,7,H,0.16200000000000003,0.3200000000000001,0.22000000000000006,0.09999999999999999
10,12,24,1,1,0.36000000000000015,1,2,81,53,84,50,0.9500000000000004,0.2900000000000001,0.6200000000000003,0.04,3,1,2,1,4,1,2,1,3,0,14,7,H,0.23750000000000007,0.2900000000000001,0.31000000000000016,0.04
10,13,25,1,2,5.179999999999934,6,10,4,52,119,111,5.589999999999934,0.21000000000000005,0.12999999999999998,0.25000000000000006,7,1,2,1,11,1,2,1,4,0,14,7,H,0.5081818181818167,0.21000000000000005,0.065,0.25000000000000006
10,13,26,1,3,0.16,2,3,66,31,107,34,0.8100000000000004,0.07,0.7500000000000004,0.08,4,1,2,2,6,1,2,2,5,0,16,7,H,0.13500000000000006,0.07,0.37500000000000017,0.04
10,14,27,1,3,0.22000000000000006,2,3,34,28,110,18,0.7200000000000003,0.12999999999999998,0.26000000000000006,0.16,3,1,1,2,4,1,1,2,5,0,18,7,H,0.18000000000000005,0.12999999999999998,0.26000000000000006,0.08
10,14,28,1,8,7.459999999999885,12,23,94,58,8,107,7.469999999999885,0.03,0.01,1.320000000000001,13,1,1,3,24,1,1,3,2,0,15,7,H,0.3112500000000002,0.03,0.01,0.4400000000000002
10,15,29,1,7,0.3300000000000001,2,5,7,91,25,92,0.9600000000000004,0.3900000000000002,0.8100000000000005,10.919999999999812,4,1,2,6,7,1,2,8,6,0,17,7,H,0.13714285714285718,0.3900000000000002,0.40500000000000025,1.3649999999999936
10,15,30,1,13,2.5899999999999888,5,11,40,24,111,21,3.189999999999989,0.24000000000000007,2.4499999999999917,4.559999999999947,7,1,3,5,14,1,3,5,2,0,19,7,H,0.22785714285714295,0.24000000000000007,0.8166666666666672,0.9119999999999953
10,16,31,1,12,0.5000000000000002,4,6,42,5,120,59,0.9400000000000004,0.5600000000000003,0.23000000000000007,0.07,6,1,2,1,8,1,2,1,5,0,17,7,H,0.11750000000000001,0.5600000000000003,0.11499999999999999,0.07
10,16,32,1,11,0.49000000000000027,3,4,65,68,21,64,0.9500000000000005,0.21000000000000005,0.20000000000000004,0.060000000000000005,4,1,2,1,5,1,2,1,4,0.5,18,7,H,0.19000000000000009,0.21000000000000005,0.09999999999999999,0.060000000000000005
10,17,33,1,13,0.2700000000000001,2,3,114,26,21,52,0.7000000000000003,0.2700000000000001,0.15,0.34000000000000014,4,1,1,2,5,1,1,2,2,0,17,7,H,0.14,0.2700000000000001,0.15,0.17
10,17,34,1,14,0.25000000000000006,2,4,95,96,48,62,0.6300000000000002,0.2700000000000001,0.16,0.37000000000000016,4,1,1,1,6,1,1,1,3,0,15,7,H,0.10500000000000002,0.2700000000000001,0.16,0.37000000000000016
10,18,35,1,11,0.20000000000000004,2,3,72,47,91,1,0.7700000000000004,0.11999999999999998,0.6300000000000003,0.05,4,1,2,1,5,1,2,1,4,0,18,7,H,0.15400000000000005,0.11999999999999998,0.3150000000000001,0.05
10,18,36,1,13,0.3300000000000001,2,3,118,84,23,29,1.2100000000000006,0.02,0.2700000000000001,0.03,5,1,1,1,9,1,1,1,2,0,16,7,H,0.13444444444444448,0.02,0.2700000000000001,0.03
10,19,37,1,1,0.22000000000000006,2,3,65,84,112,114,1.0000000000000004,0.09999999999999999,0.17,0.16,3,1,1,1,4,1,1,1,3,0,11,7,H,0.2500000000000001,0.09999999999999999,0.17,0.16
10,19,38,1,3,0.5700000000000003,8,9,49,28,12,6,1.2200000000000006,2.159999999999998,0.01,0.01,9,3,1,1,10,4,1,1,5,0,21,7,H,0.12200000000000004,0.5400000000000004,0.01,0.01
10,20,39,1,13,0.37000000000000016,2,3,109,86,59,35,1.4100000000000008,0.02,0.17,0.07,5,1,1,2,7,1,1,2,2,0,14,7,H,0.20142857142857148,0.02,0.17,0.035
10,20,40,1,12,0.35000000000000014,3,5,37,39,83,84,0.7000000000000003,0.37000000000000016,1.6800000000000013,0.01,4,1,3,1,6,1,3,1,5,0,16,7,H,0.1166666666666667,0.37000000000000016,0.5600000000000004,0.01
10,21,41,1,13,0.12999999999999998,2,2,14,34,109,66,23.690000000000882,0.02,0.09,0.01,17,1,1,1,35,1,1,1,2,0,17,7,H,0.6768571428571418,0.02,0.09,0.01
10,21,42,1,7,0.19000000000000003,2,3,8,7,2,84,0.6700000000000003,0.18000000000000002,35.67000000000147,0.3100000000000001,3,1,17,2,4,1,50,2,6,0.5,21,7,H,0.16750000000000007,0.18000000000000002,0.713399999999999,0.15500000000000005
11,1,1,0,5,0.13999999999999999,2,4,41,17,77,58,0.4,0.25000000000000006,0.05,0.15,4,2,1,1,6,2,1,1,5,0,18,7,H,0.06666666666666667,0.125,0.05,0.15
11,1,2,0,10,0.22000000000000006,2,3,66,103,100,88,0.7100000000000003,0.04,0.03,0.04,3,1,1,1,4,1,1,1,3,0,11,7,H,0.17750000000000007,0.04,0.03,0.04
11,2,3,0,8,0.16,2,4,37,74,72,83,0.5300000000000001,0.15,0.11999999999999998,0.01,3,1,2,1,5,1,2,1,2,0,15,7,H,0.10600000000000004,0.15,0.06,0.01
11,2,4,0,10,0.3200000000000001,10,11,92,27,108,57,0.7100000000000003,0.17,0.03,0.09999999999999999,12,2,1,1,13,2,1,1,3,0,14,7,H,0.05461538461538462,0.085,0.03,0.09999999999999999
11,3,5,0,9,0.16,2,3,114,20,92,116,0.5300000000000001,0.09,0.04,0.09,3,1,1,1,4,1,1,1,4,0,13,7,H,0.13250000000000003,0.09,0.04,0.09
11,3,6,0,1,0.21000000000000005,2,3,74,104,6,77,0.37000000000000005,0.18000000000000002,0.11999999999999998,0.08,4,1,1,3,5,1,1,3,3,0,14,7,H,0.074,0.18000000000000002,0.11999999999999998,0.026666666666666665
11,4,7,0,6,0.22000000000000006,2,3,4,6,2,97,0.5300000000000001,0.09,0.7300000000000004,0.13999999999999999,4,1,4,1,7,1,4,1,6,0.5,20,7,H,0.07571428571428572,0.09,0.18250000000000008,0.13999999999999999
11,4,8,0,8,0.17,2,3,115,45,39,73,0.43000000000000005,0.16,0.16,0.05,3,1,3,1,4,1,3,1,2,0,15,7,H,0.10750000000000001,0.16,0.05333333333333333,0.05
11,5,9,0,9,0.16,2,2,2,92,68,36,8.009999999999877,0.02,0.01,0.01,15,1,1,1,26,1,1,1,4,0,18,7,H,0.3080769230769228,0.02,0.01,0.01
11,5,10,0,5,0.10999999999999999,1,2,37,44,52,107,0.5300000000000002,0.07,0.7200000000000004,0.01,3,2,2,1,4,2,2,1,5,0,16,7,H,0.13250000000000003,0.035,0.36000000000000015,0.01
11,6,11,0,4,0.20000000000000004,2,3,97,86,47,99,0.4100000000000001,0.23000000000000007,0.04,0.03,4,2,1,1,5,3,1,1,2,0,12,7,H,0.082,0.07666666666666666,0.04,0.03
11,6,12,0,8,0.10999999999999999,2,3,15,30,34,114,16.599999999999778,0.01,0.02,0.01,19,1,2,1,35,1,2,1,2,0,18,7,H,0.4742857142857142,0.01,0.01,0.01
11,7,13,1,2,0.15,2,3,60,22,106,59,0.37000000000000005,0.12999999999999998,0.47000000000000025,0.04,3,1,3,1,4,1,3,1,4,0,16,7,H,0.09250000000000001,0.12999999999999998,0.15666666666666673,0.04
11,7,14,1,13,0.16,1,2,120,39,63,65,0.4000000000000001,0.20000000000000004,0.08,0.04,2,2,2,1,3,2,3,1,2,0,15,7,H,0.13333333333333336,0.09999999999999999,0.02666666666666667,0.04
11,8,15,1,13,0.20000000000000004,2,3,23,109,112,59,0.5100000000000001,0.09,0.08,0.04,4,1,1,1,6,1,1,1,2,0,14,7,H,0.085,0.09,0.08,0.04
11,8,16,1,11,0.35000000000000014,12,13,67,3,105,104,0.7500000000000003,0.09999999999999999,1.0600000000000007,1.1500000000000008,15,2,4,6,17,2,4,6,4,0,14,7,H,0.04411764705882353,0.05,0.2650000000000001,0.19166666666666674
11,9,17,1,11,0.18000000000000002,2,4,6,8,47,68,4.709999999999948,0.01,0.01,0.02,18,1,1,1,26,1,1,1,4,0,21,7,H,0.18115384615384622,0.01,0.01,0.02
11,9,18,1,13,0.20000000000000004,2,3,119,117,28,31,0.4200000000000001,0.11999999999999998,0.12999999999999998,0.07,4,1,2,1,5,1,2,1,2,0,14,7,H,0.084,0.11999999999999998,0.065,0.07
11,10,19,1,1,0.08,1,2,78,31,10,79,0.42000000000000015,0.26000000000000006,0.5700000000000003,0.01,2,1,2,1,3,1,2,1,3,0,17,7,H,0.14000000000000004,0.26000000000000006,0.28500000000000014,0.01
11,10,20,1,2,0.17,2,4,114,20,116,57,0.4700000000000001,0.16,0.8400000000000005,0.09999999999999999,3,2,4,2,5,2,4,2,4,0,14,7,H,0.09400000000000003,0.08,0.21000000000000008,0.049999999999999996
11,11,21,1,8,0.20000000000000004,2,3,101,67,33,64,0.4200000000000001,0.13999999999999999,0.07,0.09999999999999999,3,1,1,1,4,1,1,1,2,0,15,7,H,0.10500000000000001,0.13999999999999999,0.07,0.09999999999999999
11,11,22,1,12,0.16,1,2,120,55,110,109,0.44000000000000006,0.16,0.05,0.04,2,1,1,1,3,1,1,1,5,0.5,10,7,H,0.1466666666666667,0.16,0.05,0.04
11,12,23,1,7,0.18000000000000002,2,4,59,58,28,25,0.5300000000000001,0.13999999999999999,0.01,0.08,3,2,1,1,5,3,1,1,6,0,18,7,H,0.10600000000000002,0.04666666666666667,0.01,0.08
11,12,24,1,12,0.18000000000000002,2,3,37,63,100,17,0.4600000000000001,0.18000000000000002,0.03,0.04,3,2,1,1,4,3,1,1,5,0,17,7,H,0.11500000000000002,0.06,0.03,0.04
11,13,25,1,13,0.20000000000000004,2,3,92,32,115,71,0.9100000000000005,0.01,0.01,0.11999999999999998,3,1,1,2,4,1,1,2,2,0,14,7,H,0.2275000000000001,0.01,0.01,0.05999999999999999
11,13,26,1,7,0.18000000000000002,2,4,60,79,97,59,0.5400000000000001,0.09999999999999999,0.03,0.05,4,2,1,1,6,2,1,1,6,0,13,7,H,0.09000000000000001,0.05,0.03,0.05
11,14,27,1,3,0.20000000000000004,5,5,3,103,30,32,1.520000000000001,0.01,0.01,0.01,8,1,1,1,8,1,1,1,5,0,18,7,H,0.1900000000000001,0.01,0.01,0.01
11,14,28,1,2,0.18000000000000002,2,3,53,24,77,78,0.4800000000000001,0.13999999999999999,0.7400000000000004,0.03,4,1,2,2,5,1,2,2,4,0,16,7,H,0.096,0.13999999999999999,0.37000000000000016,0.015
11,15,29,1,14,0.16,3,4,19,92,86,71,0.5400000000000001,0.04,0.04,0.09,5,1,1,1,6,1,1,1,3,0,16,7,H,0.09000000000000001,0.04,0.04,0.09
11,15,30,1,13,0.21000000000000005,2,4,119,5,42,110,0.4900000000000001,0.13999999999999999,0.060000000000000005,0.04,4,1,1,1,8,2,1,1,2,0,15,7,H,0.06125,0.06999999999999999,0.060000000000000005,0.04
11,16,31,1,1,0.15,2,3,75,112,71,5,0.39000000000000007,0.17,0.09999999999999999,0.05,3,1,2,2,4,1,2,2,3,0,15,7,H,0.09750000000000002,0.17,0.05,0.025
11,16,32,1,8,0.25000000000000006,8,8,108,29,101,20,0.4800000000000001,0.6800000000000004,0.02,0.01,10,4,1,1,11,4,1,1,2,0,15,7,H,0.04363636363636363,0.17000000000000004,0.02,0.01
11,17,33,1,12,0.17,2,4,37,46,18,79,0.4600000000000001,0.12999999999999998,0.09,0.05,4,2,1,2,6,2,1,2,5,0,19,7,H,0.07666666666666666,0.065,0.09,0.025
11,17,34,1,14,0.16,2,3,11,97,9,28,0.4900000000000001,0.09999999999999999,0.08,0.01,3,1,1,1,4,1,1,1,3,0,19,7,H,0.12250000000000004,0.09999999999999999,0.08,0.01
11,18,35,1,1,0.3900000000000002,14,14,79,43,74,47,0.7000000000000003,0.47000000000000025,0.01,0.01,16,2,1,1,17,2,1,1,3,0,16,7,H,0.041176470588235294,0.23500000000000013,0.01,0.01
11,18,36,1,13,0.20000000000000004,2,4,116,117,120,1,2.1600000000000015,0.5100000000000002,0.4200000000000002,3.6299999999999666,7,3,2,10,12,3,2,13,2,0.5,12,7,H,0.18000000000000008,0.17000000000000004,0.2100000000000001,0.27923076923076934
11,19,37,1,8,0.22000000000000006,2,3,100,15,47,98,0.4000000000000001,0.25000000000000006,0.060000000000000005,0.04,3,2,1,1,4,2,1,1,2,0,15,7,H,0.1,0.12499999999999997,0.060000000000000005,0.04
11,19,38,1,7,0.17,3,5,5,56,4,110,0.4700000000000001,0.23000000000000007,0.03,0.5200000000000002,4,2,1,4,6,2,1,4,6,0,18,7,H,0.07833333333333335,0.11499999999999999,0.03,0.13000000000000003
11,20,39,1,14,0.17,2,4,69,109,71,13,0.6500000000000002,0.12999999999999998,0.01,0.02,4,2,1,1,7,2,1,1,3,0,16,7,H,0.09285714285714287,0.06499999999999999,0.01,0.02
11,20,40,1,1,0.15,2,4,74,60,38,2,0.42000000000000004,0.12999999999999998,0.07,0.09,4,1,1,1,6,1,1,1,3,0,18,7,H,0.07,0.12999999999999998,0.07,0.09
11,21,41,1,2,0.20000000000000004,2,3,53,45,19,115,0.45000000000000007,0.21000000000000005,0.04,0.02,4,2,1,1,5,2,1,1,4,0,17,7,H,0.09,0.10499999999999998,0.04,0.02
11,21,42,1,8,0.21000000000000005,2,3,104,11,9,26,0.36000000000000004,0.20000000000000004,0.6600000000000004,0.24000000000000007,3,1,2,2,5,1,2,2,2,0,19,7,H,0.072,0.20000000000000004,0.3300000000000002,0.12000000000000004
11,22,43,1,11,0.10999999999999999,2,3,68,9,10,114,0.37000000000000005,0.12999999999999998,0.19000000000000003,0.02,4,1,3,1,5,1,3,1,4,0,18,7,H,0.074,0.12999999999999998,0.06333333333333334,0.02
11,22,44,1,2,0.22000000000000006,2,3,84,98,43,100,0.7200000000000003,0.02,0.05,0.03,5,1,1,1,7,1,1,1,4,0,12,7,H,0.10285714285714287,0.02,0.05,0.03
12,1,1,0,9,0.21000000000000005,2,4,71,64,96,95,0.6100000000000002,0.10999999999999999,0.3200000000000001,0.16,3,1,1,2,5,1,2,3,4,0,14,7,H,0.12200000000000004,0.10999999999999999,0.16,0.05333333333333333
12,1,2,0,1,0.18000000000000002,2,3,81,3,12,118,0.6300000000000002,0.26000000000000006,0.01,0.18000000000000002,4,2,1,1,5,2,1,1,3,0,17,7,H,0.12600000000000003,0.13,0.01,0.18000000000000002
12,2,3,0,8,0.20000000000000004,2,3,112,91,113,95,0.6100000000000002,0.21000000000000005,0.060000000000000005,0.19000000000000003,4,2,1,1,7,2,1,1,2,0,10,7,H,0.08714285714285715,0.10500000000000002,0.060000000000000005,0.19000000000000003
12,2,4,0,3,0.20000000000000004,3,4,26,57,101,25,0.5500000000000002,0.6200000000000003,0.05,0.01,5,2,1,1,8,4,1,1,5,0,16,7,H,0.06875,0.15500000000000003,0.05,0.01
12,3,5,0,2,0.19000000000000003,2,3,52,91,108,107,0.7400000000000003,0.3200000000000001,1.490000000000001,0.01,4,2,2,1,5,2,2,1,4,0,11,7,H,0.14800000000000005,0.16000000000000003,0.7450000000000006,0.01
12,3,6,0,9,0.21000000000000005,2,5,61,62,36,75,0.6100000000000002,0.05,0.17,0.20000000000000004,4,1,1,1,7,1,1,1,4,0,16,7,H,0.08714285714285716,0.05,0.17,0.20000000000000004
12,4,7,0,8,0.18000000000000002,2,5,116,34,2,25,0.6700000000000003,0.09999999999999999,0.18000000000000002,0.7700000000000005,4,1,1,3,7,1,1,4,2,0,18,7,H,0.09571428571428574,0.09999999999999999,0.18000000000000002,0.19250000000000006
12,4,8,0,9,0.25000000000000006,3,4,71,69,87,86,0.7000000000000003,0.01,0.09999999999999999,0.08,5,1,1,1,6,1,1,1,4,0,14,7,H,0.11666666666666668,0.01,0.09999999999999999,0.08
12,5,9,0,5,0.19000000000000003,2,4,45,47,49,108,0.5000000000000001,0.23000000000000007,0.25000000000000006,0.04,4,2,2,1,6,3,2,1,5,0,16,7,H,0.08333333333333334,0.07666666666666666,0.12499999999999997,0.04
12,5,10,0,8,0.22000000000000006,3,4,113,34,36,110,0.6000000000000002,0.34000000000000014,0.060000000000000005,0.7500000000000004,5,2,1,3,6,5,1,3,2,0,14,7,H,0.1,0.068,0.060000000000000005,0.2500000000000001
12,6,11,0,10,0.15,2,3,85,39,38,90,0.5700000000000002,0.34000000000000014,0.07,0.03,4,2,1,2,5,2,2,2,3,0,16,7,H,0.11400000000000002,0.17000000000000004,0.035,0.015
12,6,12,0,4,0.20000000000000004,2,3,101,99,27,84,0.6500000000000002,0.04,0.2800000000000001,0.18000000000000002,4,1,2,1,5,1,3,1,2,0,12,7,H,0.13000000000000003,0.04,0.09333333333333334,0.18000000000000002
12,7,13,1,14,0.16,2,4,91,13,15,116,0.5000000000000001,0.3000000000000001,0.13999999999999999,0.04,4,2,1,1,7,4,1,1,3,0,17,7,H,0.07142857142857144,0.075,0.13999999999999999,0.04
12,7,14,1,7,0.18000000000000002,2,3,5,107,69,76,0.6800000000000003,2.6099999999999883,1.280000000000001,0.01,5,5,3,1,7,8,3,1,6,0,15,7,H,0.09714285714285716,0.32625000000000015,0.4266666666666669,0.01
12,8,15,1,14,0.20000000000000004,2,3,85,33,52,92,0.8400000000000004,0.16,0.01,0.19000000000000003,4,2,1,2,5,4,1,2,3,0,15,7,H,0.16800000000000007,0.04,0.01,0.09500000000000001
12,8,16,1,11,0.20000000000000004,2,3,65,68,22,72,0.6500000000000002,0.03,0.20000000000000004,0.07,4,1,2,1,6,1,2,1,4,0.5,18,7,H,0.10833333333333335,0.03,0.1,0.07
12,9,17,1,12,0.15,2,4,42,105,37,70,0.5600000000000002,0.45000000000000023,0.04,0.01,4,3,2,1,6,3,2,1,5,0,16,7,H,0.09333333333333335,0.15000000000000005,0.02,0.01
12,9,18,1,13,0.20000000000000004,2,4,111,33,118,117,0.7100000000000003,0.2700000000000001,0.04,0.04,4,2,1,1,8,3,1,1,2,0.5,11,7,H,0.08875000000000002,0.09000000000000001,0.04,0.04
12,10,19,1,2,0.20000000000000004,3,5,51,98,93,9,0.7400000000000003,0.36000000000000015,0.21000000000000005,0.01,5,2,1,1,7,2,1,1,4,0,15,7,H,0.10571428571428576,0.18000000000000002,0.21000000000000005,0.01
12,10,20,1,15,0.20000000000000004,3,4,21,71,24,14,0.6500000000000002,0.34000000000000014,0.02,0.03,5,2,1,1,6,2,1,1,6,0.5,22,7,H,0.10833333333333335,0.17000000000000004,0.02,0.03
12,11,21,1,11,0.18000000000000002,2,6,64,105,24,29,0.7200000000000003,0.04,0.11999999999999998,0.12999999999999998,4,1,1,1,8,1,1,1,4,0,17,7,H,0.09000000000000002,0.04,0.11999999999999998,0.12999999999999998
12,11,22,1,13,0.15,2,4,115,113,78,55,0.5200000000000001,0.05,0.3000000000000001,0.04,4,1,2,1,8,1,2,1,2,0,11,7,H,0.065,0.05,0.15000000000000002,0.04
12,12,23,1,14,0.18000000000000002,2,4,86,39,112,22,0.6000000000000002,0.19000000000000003,0.2700000000000001,0.01,4,2,2,1,8,2,4,1,3,0,16,7,H,0.07500000000000001,0.09499999999999999,0.0675,0.01
12,12,24,1,1,0.36000000000000015,4,5,78,79,66,80,0.9000000000000004,0.05,0.10999999999999999,0.09,6,1,1,1,8,1,1,1,3,0.5,13,7,H,0.11250000000000003,0.05,0.10999999999999999,0.09
12,13,25,1,15,0.17,2,3,15,92,35,27,0.5100000000000001,0.25000000000000006,0.08,0.11999999999999998,4,1,1,1,5,1,1,1,6,0,19,7,H,0.10200000000000001,0.25000000000000006,0.08,0.11999999999999998
12,13,26,1,2,0.4000000000000002,12,13,56,52,58,41,0.6100000000000002,0.21000000000000005,0.09,0.12999999999999998,13,2,1,1,14,4,1,1,4,0.5,17,7,H,0.04357142857142857,0.0525,0.09,0.12999999999999998
12,14,27,1,12,0.23000000000000007,2,5,37,13,39,15,0.9600000000000005,0.02,0.05,0.3300000000000001,5,1,2,2,9,1,2,2,5,0,22,7,H,0.1066666666666667,0.02,0.025,0.16500000000000006
12,14,28,1,3,0.35000000000000014,2,4,27,85,91,11,0.7200000000000003,0.15,0.12999999999999998,0.3100000000000001,4,1,1,1,6,1,1,1,5,0,17,7,H,0.12000000000000002,0.15,0.12999999999999998,0.3100000000000001
12,15,29,1,11,0.18000000000000002,2,4,68,65,93,61,0.5700000000000002,0.5000000000000002,0.01,0.01,4,2,1,1,6,2,1,1,4,0.5,15,7,H,0.09500000000000001,0.2500000000000001,0.01,0.01
12,15,30,1,2,0.13999999999999999,2,3,54,47,44,43,0.6100000000000002,0.12999999999999998,0.09,0.37000000000000016,4,2,1,3,6,3,1,3,4,0.5,19,7,H,0.10166666666666667,0.04333333333333333,0.09,0.12333333333333336
12,16,31,1,2,0.15,2,3,51,40,56,42,0.9500000000000005,0.2800000000000001,0.04,0.03,4,2,1,1,5,2,1,1,4,0,18,7,H,0.19000000000000009,0.13999999999999999,0.04,0.03
12,16,32,1,7,0.16,2,3,10,1,12,31,0.6100000000000002,0.05,0.09,0.12999999999999998,4,1,1,1,5,1,1,1,6,0.5,23,7,H,0.12200000000000003,0.05,0.09,0.12999999999999998
12,17,33,1,15,0.26000000000000006,4,4,14,17,41,87,0.7900000000000003,0.02,0.35000000000000014,0.05,6,1,1,1,7,1,1,1,6,0,20,7,H,0.11285714285714288,0.02,0.35000000000000014,0.05
12,17,34,1,7,0.20000000000000004,2,4,5,3,81,111,0.5200000000000001,0.13999999999999999,0.24000000000000007,0.07,4,1,2,1,8,1,2,1,6,0,17,7,H,0.065,0.13999999999999999,0.12,0.07
12,18,35,1,11,0.5500000000000003,12,14,63,70,110,23,0.6800000000000003,0.3900000000000002,0.4200000000000002,0.6500000000000004,13,2,2,2,15,3,2,2,4,0,16,7,H,0.04533333333333333,0.13000000000000003,0.2100000000000001,0.3250000000000002
12,18,36,1,2,0.22000000000000006,2,3,55,7,11,76,0.6500000000000002,0.09,0.07,0.13999999999999999,5,1,1,1,7,1,1,1,4,0,19,7,H,0.09285714285714286,0.09,0.07,0.13999999999999999
12,19,37,1,7,0.2700000000000001,3,4,10,4,70,47,0.6600000000000003,0.19000000000000003,0.08,0.03,5,1,1,1,6,1,1,1,6,0,21,7,H,0.11000000000000003,0.19000000000000003,0.08,0.03
12,19,38,1,3,0.19000000000000003,2,3,35,58,16,103,0.6400000000000002,0.20000000000000004,0.05,0.09999999999999999,4,2,2,1,5,3,2,1,5,0,17,7,H,0.12800000000000003,0.06666666666666667,0.025,0.09999999999999999
12,20,39,1,7,0.26000000000000006,2,3,9,71,36,84,0.6300000000000002,0.22000000000000006,0.08,0.6900000000000004,4,2,1,2,9,3,2,2,6,0,18,7,H,0.06999999999999999,0.07333333333333333,0.04,0.34500000000000014
12,20,40,1,12,0.20000000000000004,2,4,47,40,60,14,0.6000000000000002,0.13999999999999999,0.36000000000000015,0.01,4,2,2,1,7,2,2,1,5,0,20,7,H,0.08571428571428572,0.07,0.18000000000000002,0.01
12,21,41,1,1,0.3000000000000001,9,10,73,74,71,5,0.7000000000000003,0.09999999999999999,0.9700000000000006,0.19000000000000003,11,1,3,2,13,1,6,2,3,0,16,7,H,0.05384615384615384,0.09999999999999999,0.16166666666666674,0.09500000000000001
12,21,42,1,12,0.24000000000000007,7,8,46,43,116,22,0.5000000000000001,0.16,1.370000000000001,0.01,9,1,4,1,11,1,8,1,5,0,18,7,H,0.045454545454545456,0.16,0.17125000000000004,0.01
12,22,43,1,8,0.7400000000000004,4,6,101,77,100,80,0.7900000000000005,0.5200000000000002,0.02,0.11999999999999998,5,2,1,1,7,2,1,1,2,0,10,7,H,0.11285714285714288,0.2600000000000001,0.02,0.11999999999999998
12,22,44,1,11,0.19000000000000003,2,4,65,62,110,120,0.5500000000000002,0.13999999999999999,0.18000000000000002,0.21000000000000005,3,1,2,2,5,1,2,2,4,0,12,7,H,0.11000000000000003,0.13999999999999999,0.09,0.10499999999999998
13,1,1,0,6,0.18000000000000002,2,4,3,1,4,97,0.6500000000000002,4.509999999999948,0.01,0.01,4,8,1,1,6,8,1,1,6,0.5,20,7,H,0.10833333333333335,0.5637499999999985,0.01,0.01
13,1,2,0,7,0.19000000000000003,2,3,44,14,115,21,1.0100000000000005,0.04,0.05,0.04,3,1,1,1,4,1,1,1,6,0,19,7,H,0.2525000000000001,0.04,0.05,0.04
