Subject,Round,Phase,afterbreak,Schema,Schema_RT,Schema_OB,Schema_AS,Cho_1,Cho_2,Cho_3,Cho_4,RT_1,RT_2,RT_3,RT_4,OB_1,OB_2,OB_3,OB_4,AS_1,AS_2,AS_3,AS_4,schema_payoff,AC,performance,breakR,type,dwellmean_1,dwellmean_2,dwellmean_3,dwellmean_4
1,1,1,0,10,0.5200000000000002,2,4,87,15,85,86,9.729999999999848,1.9600000000000015,2.389999999999993,0.5500000000000003,14,3,6,3,25,6,7,3,3,0.5,24,7,L,0.3892000000000002,0.3266666666666668,0.3414285714285716,0.18333333333333335
1,1,2,0,2,0.5300000000000002,2,4,25,79,2,97,13.059999999999778,0.6800000000000004,0.5000000000000002,1.2100000000000009,15,1,1,2,29,1,1,2,4,0,16,7,L,0.45034482758620714,0.6800000000000004,0.5000000000000002,0.6050000000000003
1,2,3,0,10,0.36000000000000015,2,3,85,45,104,94,4.7799999999999505,5.329999999999931,5.0599999999999365,4.089999999999957,8,5,6,6,13,6,8,10,3,0,13,7,L,0.36769230769230793,0.888333333333334,0.6325000000000004,0.4090000000000002
1,2,4,0,7,0.5900000000000003,2,3,14,80,21,15,9.279999999999859,1.9400000000000015,0.34000000000000014,10.54999999999982,12,6,1,11,20,6,1,25,6,0.5,39,7,L,0.46400000000000025,0.3233333333333335,0.34000000000000014,0.4220000000000002
1,3,5,0,8,0.4300000000000002,2,3,19,36,91,118,11.349999999999811,1.490000000000001,0.8500000000000005,0.4300000000000002,14,3,3,4,31,5,3,5,2,0,16,7,L,0.3661290322580647,0.29800000000000015,0.28333333333333344,0.086
1,3,6,0,2,0.35000000000000014,2,3,49,3,39,51,6.809999999999907,6.509999999999906,1.9200000000000015,0.07,11,9,5,1,16,22,6,1,4,0,19,7,L,0.4256250000000002,0.29590909090909107,0.3200000000000001,0.07
1,4,7,0,7,1.8200000000000014,3,8,14,16,59,19,7.119999999999933,5.739999999999922,1.5300000000000011,0.37000000000000016,7,8,2,1,14,12,3,1,6,0.5,40,7,L,0.5085714285714289,0.4783333333333336,0.5100000000000002,0.37000000000000016
1,4,8,0,10,0.5100000000000002,2,5,86,9,93,92,8.869999999999866,2.259999999999996,0.5700000000000003,0.3200000000000001,10,4,2,1,22,4,2,1,3,0.5,24,7,L,0.4031818181818184,0.5650000000000004,0.2850000000000001,0.3200000000000001
1,5,9,0,4,0.7300000000000004,2,3,105,1,102,77,21.70000000000048,0.3000000000000001,2.0400000000000005,0.060000000000000005,19,2,4,1,39,2,4,1,2,0,13,7,L,0.5564102564102561,0.15,0.5100000000000003,0.060000000000000005
1,5,10,0,7,1.290000000000001,4,7,110,94,33,22,10.799999999999843,3.429999999999971,1.310000000000001,0.3300000000000001,15,6,2,2,30,7,2,3,6,0,16,7,L,0.3600000000000002,0.49000000000000027,0.6550000000000004,0.11000000000000003
1,6,11,0,3,0.2900000000000001,3,4,28,36,101,97,2.6499999999999937,5.569999999999926,2.1199999999999988,3.419999999999971,6,9,4,4,9,11,6,6,5,0,14,7,L,0.2944444444444446,0.5063636363636367,0.3533333333333335,0.5699999999999981
1,6,12,0,2,0.3300000000000001,2,3,57,58,50,120,5.559999999999933,1.0600000000000007,0.6400000000000003,6.989999999999895,6,2,1,9,9,3,1,13,4,0.5,26,7,L,0.6177777777777771,0.3533333333333335,0.6400000000000003,0.537692307692308
1,7,13,1,13,0.4000000000000002,2,3,96,119,116,111,13.369999999999768,1.310000000000001,2.0000000000000013,0.09999999999999999,15,2,4,1,35,2,6,1,2,0.5,15,7,L,0.3820000000000002,0.6550000000000004,0.3333333333333335,0.09999999999999999
1,7,14,1,1,1.6200000000000012,4,7,75,105,62,61,12.259999999999819,0.18000000000000002,0.7400000000000004,1.2100000000000009,15,1,2,3,28,1,2,6,3,0,13,7,L,0.43785714285714306,0.18000000000000002,0.37000000000000016,0.20166666666666674
1,8,15,1,15,7.869999999999877,10,20,51,58,76,106,14.389999999999782,2.6599999999999873,0.4100000000000002,0.2800000000000001,17,5,2,1,35,5,3,1,6,0,13,7,L,0.41114285714285737,0.5320000000000004,0.1366666666666667,0.2800000000000001
1,8,16,1,7,0.17,2,2,3,4,120,88,10.749999999999819,2.349999999999994,1.7200000000000013,1.6500000000000012,14,5,4,4,26,7,5,4,6,0,17,7,L,0.41346153846153866,0.33571428571428585,0.34400000000000014,0.4125000000000002
1,9,17,1,8,0.2700000000000001,2,3,99,103,78,77,8.119999999999877,0.5200000000000002,3.559999999999968,2.3099999999999947,11,2,8,4,16,2,10,5,2,0,10,7,L,0.5075000000000003,0.26000000000000006,0.3560000000000002,0.46200000000000024
1,9,18,1,11,0.4000000000000002,2,5,70,63,116,64,11.799999999999802,0.21000000000000005,4.369999999999951,0.47000000000000025,16,1,8,2,35,1,10,2,4,0.5,26,7,L,0.3371428571428573,0.21000000000000005,0.4370000000000002,0.2350000000000001
1,10,19,1,2,0.5000000000000002,2,4,81,6,57,51,7.339999999999899,4.88999999999994,0.6200000000000003,0.5100000000000002,12,10,2,3,20,12,2,3,4,0,17,7,L,0.36700000000000016,0.4075000000000002,0.3100000000000001,0.17000000000000004
1,10,20,1,15,0.34000000000000014,2,3,13,22,15,18,13.159999999999771,0.6000000000000003,0.15,2.5099999999999905,16,4,1,8,30,5,1,9,6,1,72,7,L,0.4386666666666669,0.12,0.15,0.278888888888889
1,11,21,1,12,0.21000000000000005,1,2,42,45,39,38,5.249999999999937,8.789999999999857,0.13999999999999999,0.13999999999999999,7,12,2,2,12,19,2,2,5,1,60,7,L,0.4375000000000002,0.46263157894736867,0.06999999999999999,0.06999999999999999
1,11,22,1,3,0.37000000000000016,2,3,28,60,96,33,11.009999999999819,2.679999999999987,2.669999999999987,2.8399999999999834,13,5,3,6,22,6,5,8,5,0,17,7,L,0.5004545454545452,0.4466666666666669,0.5340000000000004,0.3549999999999998
1,12,23,1,3,0.7600000000000005,2,7,32,60,54,30,6.029999999999933,1.460000000000001,1.460000000000001,1.9100000000000015,10,3,4,3,18,3,6,3,5,0,18,7,L,0.3350000000000002,0.4866666666666669,0.2433333333333334,0.636666666666667
1,12,24,1,8,0.20000000000000004,2,3,24,21,48,107,21.920000000000595,1.9000000000000015,1.2200000000000009,2.010000000000001,20,3,1,4,57,3,1,5,2,0,19,7,L,0.3845614035087721,0.6333333333333337,1.2200000000000009,0.4020000000000002
1,13,25,1,7,2.9199999999999817,4,6,31,3,11,32,10.679999999999861,0.6800000000000004,3.619999999999967,1.2400000000000009,14,1,5,4,26,1,13,5,6,0,22,7,L,0.410769230769231,0.6800000000000004,0.2784615384615386,0.24800000000000005
1,13,26,1,11,0.5800000000000003,3,6,63,48,75,18,8.979999999999865,4.069999999999958,0.9200000000000006,0.8500000000000005,14,7,2,2,29,11,2,2,4,0,18,7,L,0.30965517241379326,0.37000000000000016,0.4600000000000002,0.4250000000000002
1,14,27,1,1,0.45000000000000023,2,4,28,100,32,83,6.419999999999917,1.9900000000000015,0.9700000000000006,0.8600000000000005,10,3,2,3,15,5,2,4,3,0,15,7,L,0.4280000000000002,0.3980000000000002,0.4850000000000002,0.21500000000000008
1,14,28,1,12,0.36000000000000015,2,3,38,43,37,14,5.789999999999929,9.57999999999984,0.10999999999999999,0.20000000000000004,10,11,1,1,15,19,1,1,5,0.5,36,7,L,0.3860000000000002,0.5042105263157898,0.10999999999999999,0.20000000000000004
1,15,29,1,12,0.38000000000000017,2,3,41,45,37,60,9.659999999999847,2.899999999999982,4.599999999999946,4.529999999999948,12,7,8,9,18,8,12,11,5,0.5,34,7,L,0.5366666666666658,0.36250000000000016,0.3833333333333335,0.411818181818182
1,15,30,1,7,0.38000000000000017,2,3,101,4,108,2,5.959999999999925,1.8300000000000014,0.5800000000000003,17.65999999999996,8,3,1,16,12,3,1,46,6,0,16,7,L,0.4966666666666669,0.6100000000000003,0.5800000000000003,0.38391304347826105
1,16,31,1,12,0.6400000000000003,2,6,39,37,8,2,5.5399999999999405,4.769999999999943,2.9799999999999804,0.4300000000000002,6,7,5,1,11,8,5,1,5,0,22,7,L,0.503636363636364,0.5962500000000004,0.5960000000000003,0.4300000000000002
1,16,32,1,15,0.36000000000000015,2,3,24,101,106,17,8.569999999999869,1.280000000000001,2.6599999999999873,2.8799999999999826,14,5,6,6,18,9,8,8,6,0,16,7,L,0.4761111111111114,0.14222222222222225,0.33250000000000013,0.3600000000000002
1,17,33,1,15,0.5800000000000003,2,4,19,17,59,58,9.509999999999854,1.0800000000000007,0.8600000000000005,0.7300000000000004,12,4,2,2,26,5,3,2,6,0,20,7,L,0.36576923076923096,0.21600000000000008,0.28666666666666674,0.36500000000000016
1,17,34,1,3,0.3200000000000001,2,3,32,30,8,1,7.079999999999901,3.889999999999961,0.5400000000000003,1.8500000000000014,11,5,2,3,20,6,3,3,5,0,22,7,L,0.35400000000000015,0.6483333333333318,0.18000000000000005,0.616666666666667
1,18,35,1,2,0.6500000000000004,2,9,59,53,51,54,8.309999999999881,1.0500000000000007,4.519999999999948,0.15,16,2,9,1,31,2,16,1,4,1,48,7,L,0.26806451612903237,0.5250000000000002,0.2825000000000001,0.15
1,18,36,1,3,0.4000000000000002,2,6,29,68,26,35,8.979999999999862,2.5099999999999905,1.8300000000000014,0.35000000000000014,12,5,4,2,25,6,4,2,5,0.5,34,7,L,0.3592000000000002,0.41833333333333356,0.45750000000000024,0.17500000000000004
1,19,37,1,13,0.3100000000000001,2,3,76,83,80,67,8.07999999999988,2.6399999999999877,2.020000000000001,0.26000000000000006,10,6,4,1,28,7,5,1,2,0.5,22,7,L,0.2885714285714287,0.37714285714285734,0.4040000000000002,0.26000000000000006
1,19,38,1,2,0.5700000000000003,2,4,54,10,31,4,7.949999999999887,1.8900000000000015,1.8600000000000014,0.6000000000000003,9,3,5,2,18,8,6,2,4,0,21,7,L,0.44166666666666693,0.2362500000000001,0.3100000000000001,0.3000000000000001
2,1,1,0,7,0.35000000000000014,2,3,16,103,20,55,3.119999999999985,2.9699999999999807,0.05,0.09999999999999999,6,4,1,1,8,5,1,1,6,0,18,7,L,0.39000000000000024,0.5940000000000003,0.05,0.09999999999999999
2,1,2,0,8,0.34000000000000014,2,3,41,110,93,6,3.9999999999999662,0.24000000000000007,0.5800000000000003,0.4000000000000002,5,2,2,2,9,2,2,2,2,0,16,7,L,0.4444444444444447,0.12,0.2900000000000001,0.20000000000000007
2,2,3,0,10,0.5000000000000002,3,5,117,120,10,109,2.530000000000001,3.00999999999998,0.19000000000000003,0.24000000000000007,7,5,1,2,9,8,1,2,3,0.5,18,7,L,0.28111111111111126,0.3762500000000002,0.19000000000000003,0.12000000000000001
2,2,4,0,9,0.17,1,2,62,66,16,83,4.239999999999958,0.2800000000000001,0.5800000000000003,0.9600000000000006,6,2,1,2,8,2,1,3,4,0,17,7,L,0.5300000000000004,0.13999999999999999,0.5800000000000003,0.3200000000000001
2,3,5,0,2,0.2900000000000001,2,3,7,58,51,80,3.6799999999999717,0.7000000000000004,2.249999999999996,0.09999999999999999,6,3,4,1,8,4,6,1,4,0,17,7,L,0.46000000000000024,0.17500000000000002,0.3750000000000002,0.09999999999999999
2,3,6,0,10,0.3100000000000001,2,3,70,89,30,69,2.939999999999988,1.1500000000000008,1.0100000000000007,0.3000000000000001,3,3,2,1,5,5,2,1,3,0,16,7,L,0.5880000000000002,0.23000000000000007,0.5050000000000002,0.3000000000000001
2,4,7,0,2,0.3000000000000001,2,3,55,29,20,13,2.459999999999998,1.5400000000000011,0.5500000000000003,0.25000000000000006,5,1,2,1,7,1,2,1,4,0,21,7,L,0.3514285714285716,1.5400000000000011,0.2750000000000001,0.25000000000000006
2,4,8,0,5,0.34000000000000014,2,3,5,8,72,65,6.069999999999922,0.08,0.04,0.09,11,1,1,2,14,1,1,2,5,0,20,7,L,0.4335714285714287,0.08,0.04,0.045
2,5,9,0,7,0.25000000000000006,2,3,22,16,108,15,3.6999999999999704,0.3000000000000001,2.0300000000000007,0.04,9,2,3,1,10,2,3,1,6,0.5,38,7,L,0.3700000000000002,0.15000000000000002,0.6766666666666671,0.04
2,5,10,0,8,0.10999999999999999,2,2,3,56,117,57,35.570000000001514,0.01,0.01,0.01,20,1,1,1,64,1,1,1,2,0,16,7,L,0.5557812500000001,0.01,0.01,0.01
2,6,11,0,2,0.3300000000000001,2,3,23,13,115,51,2.310000000000002,1.2100000000000009,0.9000000000000006,0.22000000000000006,6,3,2,2,7,4,2,2,4,0,18,7,L,0.3300000000000001,0.3025000000000001,0.45000000000000023,0.10999999999999999
2,6,12,0,4,0.2700000000000001,2,3,102,87,7,105,2.839999999999989,2.289999999999995,0.16,0.07,7,5,1,1,13,8,1,1,2,0,13,7,L,0.21846153846153854,0.2862500000000001,0.16,0.07
2,7,13,1,8,1.1700000000000008,3,6,55,108,13,23,4.419999999999975,1.7200000000000013,0.9900000000000007,0.23000000000000007,7,6,2,2,11,7,2,2,2,0,18,7,L,0.401818181818182,0.2457142857142858,0.4950000000000002,0.11500000000000003
2,7,14,1,13,0.13999999999999999,2,2,1,88,42,40,12.13999999999979,0.01,0.02,0.01,13,1,1,1,22,1,1,1,2,0,19,7,L,0.5518181818181819,0.01,0.02,0.01
2,8,15,1,1,0.34000000000000014,4,4,46,111,77,63,7.6499999999998884,0.6600000000000004,0.02,0.01,14,3,1,1,19,3,1,1,3,0,14,7,L,0.4026315789473686,0.22000000000000008,0.02,0.01
2,8,16,1,7,0.07,2,2,1,91,98,58,4.939999999999941,0.11999999999999998,0.5600000000000003,0.20000000000000004,11,1,2,2,14,1,3,2,6,0,15,7,L,0.3528571428571431,0.11999999999999998,0.18666666666666668,0.09999999999999999
2,9,17,1,13,0.6200000000000003,7,7,63,36,61,119,3.0099999999999936,2.1399999999999983,0.16,3.2999999999999736,9,3,2,6,9,3,2,9,2,0,15,7,L,0.33444444444444466,0.7133333333333338,0.08,0.36666666666666686
2,9,18,1,14,0.36000000000000015,2,4,108,55,52,91,4.339999999999959,0.22000000000000006,0.18000000000000002,0.11999999999999998,10,1,1,1,16,1,1,1,3,0,13,7,L,0.2712500000000001,0.22000000000000006,0.18000000000000002,0.11999999999999998
2,10,19,1,13,0.8600000000000005,3,4,61,81,114,77,2.640000000000002,2.52999999999999,0.45000000000000023,0.23000000000000007,5,5,1,2,6,7,1,2,2,0,12,7,L,0.4400000000000002,0.3614285714285716,0.45000000000000023,0.11500000000000002
2,10,20,1,14,0.5200000000000002,2,4,16,94,38,17,5.0399999999999485,0.15,0.17,0.25000000000000006,7,2,1,1,13,2,1,1,3,0,20,7,L,0.3876923076923079,0.07499999999999998,0.17,0.25000000000000006
2,11,21,1,14,0.7900000000000005,2,4,38,44,111,39,2.700000000000002,1.8600000000000014,0.6900000000000004,2.819999999999984,7,5,2,3,9,8,2,4,3,0.5,32,7,L,0.3000000000000001,0.23250000000000007,0.34500000000000014,0.7050000000000005
2,11,22,1,3,0.49000000000000027,3,4,32,33,29,106,2.8799999999999932,0.38000000000000017,0.2900000000000001,0.7600000000000005,7,1,1,2,8,1,1,3,5,0.5,32,7,L,0.36000000000000015,0.38000000000000017,0.2900000000000001,0.2533333333333334
2,12,23,1,3,0.4300000000000002,2,4,29,31,54,36,4.919999999999949,0.12999999999999998,1.1100000000000008,0.15,9,1,2,2,18,1,2,2,5,0.5,34,7,L,0.27333333333333343,0.12999999999999998,0.5550000000000003,0.07499999999999998
2,12,24,1,15,0.8000000000000005,6,7,38,77,102,17,3.529999999999986,1.260000000000001,1.9200000000000015,0.02,11,5,8,1,14,5,12,1,6,0,16,7,L,0.2521428571428573,0.2520000000000001,0.16000000000000006,0.02
2,13,25,1,11,0.7200000000000004,11,13,70,68,72,39,2.070000000000001,0.8600000000000005,0.35000000000000014,2.0899999999999994,12,2,1,4,14,2,1,5,4,0.5,29,7,L,0.14785714285714294,0.4300000000000002,0.35000000000000014,0.4180000000000002
2,13,26,1,3,0.24000000000000007,2,4,30,34,87,115,2.509999999999996,0.47000000000000025,0.8800000000000006,0.4300000000000002,7,1,2,2,10,1,2,3,5,0,15,7,L,0.2510000000000001,0.47000000000000025,0.44000000000000017,0.14333333333333334
2,14,27,1,12,0.24000000000000007,2,3,44,92,38,94,2.7699999999999902,4.019999999999959,0.37000000000000016,0.22000000000000006,7,10,2,2,12,10,2,2,5,0,16,7,L,0.23083333333333342,0.4020000000000002,0.18500000000000005,0.11000000000000001
2,14,28,1,3,0.38000000000000017,2,4,36,82,100,102,3.4299999999999793,2.2299999999999964,1.1400000000000008,0.3900000000000002,7,2,2,2,11,2,2,2,5,0,12,7,L,0.31181818181818194,1.1150000000000004,0.5700000000000004,0.195
2,15,29,1,3,0.4300000000000002,2,4,88,115,92,31,4.409999999999959,1.500000000000001,0.15,0.07,9,1,1,1,11,1,1,1,5,0,13,7,L,0.4009090909090911,1.500000000000001,0.15,0.07
2,15,30,1,12,0.25000000000000006,2,3,77,82,78,43,1.9400000000000013,0.8700000000000006,1.290000000000001,0.09,3,2,2,1,4,2,4,1,5,0.5,23,7,L,0.4850000000000003,0.4350000000000003,0.3225000000000001,0.09
2,16,31,1,7,0.3300000000000001,2,2,2,82,43,39,9.679999999999845,0.6600000000000004,0.01,0.02,15,3,1,1,25,3,1,1,6,0,19,7,L,0.38720000000000016,0.2200000000000001,0.01,0.02
2,16,32,1,3,0.3200000000000001,3,4,27,32,108,52,3.4899999999999767,0.7300000000000004,0.11999999999999998,0.35000000000000014,8,3,1,2,13,3,1,3,5,0,16,7,L,0.2684615384615386,0.2433333333333334,0.11999999999999998,0.11666666666666667
2,17,33,1,3,0.6300000000000003,2,4,96,119,28,36,5.969999999999931,0.7400000000000004,1.340000000000001,0.02,11,2,4,1,19,2,5,1,5,0,15,7,L,0.3142105263157896,0.37000000000000016,0.2680000000000001,0.02
2,17,34,1,8,0.17,2,3,103,56,8,49,2.4799999999999947,1.0400000000000007,0.49000000000000027,0.19000000000000003,5,5,2,1,7,9,2,1,2,0,16,7,L,0.3542857142857145,0.11555555555555556,0.24500000000000013,0.19000000000000003
2,18,35,1,12,0.2800000000000001,2,4,95,39,9,43,4.18999999999996,0.05,0.8600000000000005,0.05,6,1,4,1,10,1,6,1,5,0,19,7,L,0.41900000000000026,0.05,0.14333333333333337,0.05
2,18,36,1,15,0.2700000000000001,2,3,34,82,60,20,2.3599999999999994,1.9300000000000015,0.11999999999999998,0.060000000000000005,4,3,1,1,5,4,1,1,6,0,18,7,L,0.4720000000000003,0.48250000000000026,0.11999999999999998,0.060000000000000005
2,19,37,1,7,0.2800000000000001,2,2,1,76,82,68,24.880000000001047,0.01,0.01,0.01,20,1,1,1,55,1,1,1,6,0,16,7,L,0.45236363636363663,0.01,0.01,0.01
2,19,38,1,15,0.21000000000000005,2,3,14,58,49,21,6.02999999999992,0.07,0.38000000000000017,0.02,11,1,3,1,19,1,3,1,6,0,20,7,L,0.31736842105263174,0.07,0.1266666666666667,0.02
2,20,39,1,2,0.48000000000000026,2,5,59,99,76,81,2.4900000000000015,2.2799999999999954,3.3099999999999734,0.02,4,6,4,1,7,7,5,1,4,0,12,7,L,0.3557142857142859,0.32571428571428584,0.6620000000000005,0.02
2,20,40,1,14,0.5000000000000002,4,5,63,19,65,31,3.6899999999999764,0.6100000000000003,1.470000000000001,0.3200000000000001,9,2,4,1,12,4,4,1,3,0,19,7,L,0.30750000000000016,0.15250000000000002,0.36750000000000016,0.3200000000000001
2,21,41,1,12,1.6100000000000012,6,9,66,102,41,67,5.3199999999999665,0.46000000000000024,2.249999999999996,0.02,13,2,6,1,19,2,6,1,5,0,15,7,L,0.28000000000000014,0.2300000000000001,0.3750000000000002,0.02
2,21,42,1,2,0.38000000000000017,2,3,30,18,78,51,3.6999999999999735,1.380000000000001,1.390000000000001,0.060000000000000005,7,6,4,2,9,11,4,2,4,0,18,7,L,0.4111111111111113,0.12545454545454549,0.3475000000000002,0.03
3,1,1,0,9,0.36000000000000015,2,5,7,8,112,65,4.81999999999995,0.6100000000000003,0.48000000000000026,0.09,9,1,1,1,14,1,1,1,4,0,18,7,L,0.3442857142857145,0.6100000000000003,0.48000000000000026,0.09
3,1,2,0,2,0.4200000000000002,2,3,60,13,54,90,2.1300000000000017,3.419999999999971,1.0700000000000007,0.38000000000000017,5,6,3,1,7,10,4,1,4,0,17,7,L,0.30428571428571444,0.34200000000000014,0.2675000000000001,0.38000000000000017
3,2,3,0,4,0.4400000000000002,2,3,105,55,106,13,3.7699999999999734,3.4099999999999713,0.7800000000000005,0.060000000000000005,7,7,4,1,11,8,4,1,2,0,14,7,L,0.3427272727272729,0.42625000000000024,0.1950000000000001,0.060000000000000005
3,2,4,0,6,0.5900000000000003,2,4,9,96,112,93,2.1700000000000017,1.8000000000000014,1.440000000000001,1.0400000000000007,5,2,4,3,8,2,4,3,6,0,14,7,L,0.2712500000000001,0.9000000000000007,0.36000000000000015,0.34666666666666685
3,3,5,0,8,0.6100000000000003,7,8,54,46,42,111,4.3799999999999635,0.8200000000000005,1.9200000000000015,0.03,13,1,2,1,16,1,2,1,2,0,16,7,L,0.2737500000000001,0.8200000000000005,0.9600000000000006,0.03
3,3,6,0,9,0.35000000000000014,3,4,71,102,100,67,2.699999999999994,2.3299999999999943,2.99999999999998,0.03,7,2,3,1,10,3,4,1,4,0,12,7,L,0.27000000000000013,0.7766666666666672,0.7500000000000001,0.03
3,4,7,0,7,0.3200000000000001,2,3,72,38,19,71,4.0899999999999634,0.9700000000000006,0.15,2.669999999999987,6,2,1,4,10,2,1,5,6,0,19,7,L,0.4090000000000002,0.4850000000000002,0.15,0.5340000000000003
3,4,8,0,6,0.3200000000000001,2,3,2,7,118,114,28.58000000000162,0.01,0.01,0.02,20,1,1,2,58,1,1,2,6,0,16,7,L,0.4927586206896553,0.01,0.01,0.01
3,5,9,0,2,0.17,2,3,51,55,42,48,3.8099999999999663,3.5899999999999674,0.09,0.8000000000000005,11,9,1,3,14,9,1,3,4,0,18,7,L,0.27214285714285724,0.39888888888888907,0.09,0.2666666666666668
3,5,10,0,4,0.5500000000000003,8,9,99,105,101,19,4.599999999999959,0.22000000000000006,0.6500000000000004,2.489999999999991,13,1,3,4,20,1,4,5,2,0.5,18,7,L,0.2300000000000001,0.22000000000000006,0.16250000000000003,0.4980000000000003
3,6,11,0,6,0.5100000000000002,2,4,77,5,82,114,4.889999999999951,0.23000000000000007,6.6099999999999035,3.0599999999999787,7,1,5,7,11,1,6,8,6,0,14,7,L,0.4445454545454548,0.23000000000000007,1.1016666666666588,0.3825000000000002
3,6,12,0,10,0.38000000000000017,2,3,96,94,51,92,3.529999999999977,0.5800000000000003,0.5500000000000003,0.15,8,2,1,1,10,2,1,1,3,0.5,22,7,L,0.35300000000000015,0.2900000000000001,0.5500000000000003,0.15
3,7,13,1,11,0.47000000000000025,3,5,5,64,62,94,3.239999999999985,1.380000000000001,3.00999999999998,0.7000000000000004,7,4,3,1,10,6,4,1,4,0,17,7,L,0.3240000000000001,0.23000000000000007,0.7524999999999953,0.7000000000000004
3,7,14,1,15,0.7400000000000004,2,7,18,55,20,17,2.6300000000000017,1.0800000000000007,0.5500000000000003,0.4300000000000002,5,3,3,2,11,3,3,3,6,0.5,40,7,L,0.2390909090909092,0.36000000000000015,0.18333333333333338,0.14333333333333334
3,8,15,1,7,0.45000000000000023,2,3,5,4,115,52,4.279999999999963,18.600000000000108,0.8100000000000005,0.01,9,15,5,1,12,32,5,1,6,0,18,7,L,0.35666666666666685,0.5812499999999997,0.16200000000000006,0.01
3,8,16,1,11,0.7300000000000004,4,5,63,24,99,15,3.4499999999999864,2.5999999999999885,0.3100000000000001,0.5500000000000003,7,5,2,2,9,8,2,2,4,0,18,7,L,0.3833333333333335,0.3250000000000001,0.155,0.2750000000000001
3,9,17,1,12,0.24000000000000007,2,3,55,51,56,40,2.829999999999989,0.5400000000000003,0.48000000000000026,0.2800000000000001,6,2,2,1,7,3,2,1,5,0.5,29,7,L,0.40428571428571447,0.18000000000000008,0.24000000000000005,0.2800000000000001
3,9,18,1,1,0.2900000000000001,2,3,15,108,17,73,5.549999999999932,0.09,0.4200000000000002,0.09999999999999999,9,1,2,2,13,1,3,2,3,0,17,7,L,0.4269230769230771,0.09,0.14,0.05
3,10,19,1,1,0.5900000000000003,3,6,74,38,63,80,6.649999999999915,0.4400000000000002,0.7900000000000005,0.02,10,2,3,1,15,2,3,1,3,0,15,7,L,0.44333333333333264,0.22000000000000003,0.2633333333333334,0.02
3,10,20,1,3,0.35000000000000014,2,3,52,30,53,14,2.2000000000000015,0.9800000000000006,0.7100000000000004,0.8700000000000006,6,3,3,2,8,4,3,3,5,0,19,7,L,0.27500000000000013,0.24500000000000008,0.23666666666666672,0.29000000000000015
3,11,21,1,12,1.1000000000000008,4,6,43,63,61,23,6.739999999999925,0.2700000000000001,0.07,0.7000000000000004,11,2,1,2,16,2,1,2,5,0,19,7,L,0.42125000000000024,0.135,0.07,0.3500000000000002
3,11,22,1,8,0.3100000000000001,2,4,104,80,11,74,3.359999999999979,2.289999999999995,0.25000000000000006,0.6400000000000003,6,4,1,1,13,4,1,1,2,0,14,7,L,0.2584615384615386,0.5725000000000003,0.25000000000000006,0.6400000000000003
3,12,23,1,8,2.769999999999985,7,11,63,12,11,71,6.199999999999956,3.1699999999999764,0.6400000000000003,0.22000000000000006,13,6,2,2,22,7,2,2,2,0,20,7,L,0.28181818181818197,0.45285714285714307,0.3200000000000001,0.11000000000000001
3,12,24,1,2,0.3000000000000001,2,3,50,44,48,77,3.689999999999972,2.020000000000001,0.20000000000000004,0.16,8,6,1,1,16,9,2,1,4,0,17,7,L,0.23062500000000008,0.22444444444444453,0.09999999999999999,0.16
3,13,25,1,15,1.6500000000000012,6,7,100,14,13,103,3.2500000000000027,2.809999999999984,16.6299999999998,0.09,8,5,16,2,10,6,27,3,6,0,16,7,L,0.3250000000000001,0.4683333333333336,0.615925925925925,0.030000000000000002
3,13,26,1,13,2.759999999999985,4,6,53,112,114,74,5.829999999999964,0.9600000000000006,0.4300000000000002,0.5400000000000003,10,3,1,2,14,3,1,2,2,0,11,7,L,0.41642857142857165,0.3200000000000001,0.4300000000000002,0.27000000000000013
3,14,27,1,1,0.3300000000000001,2,3,111,84,23,74,6.109999999999921,0.08,1.390000000000001,0.37000000000000016,11,1,3,3,16,1,3,3,3,0,14,7,L,0.3818750000000001,0.08,0.46333333333333365,0.12333333333333336
3,14,28,1,14,0.12999999999999998,2,2,7,94,12,98,34.990000000001636,0.01,0.02,1.0100000000000007,20,1,1,2,78,1,1,2,3,0,17,7,L,0.4485897435897437,0.01,0.02,0.5050000000000003
3,15,29,1,8,0.19000000000000003,2,3,51,20,100,16,3.419999999999975,0.6900000000000004,1.0800000000000007,0.26000000000000006,5,2,2,1,6,2,2,1,2,0,18,7,L,0.5700000000000001,0.3450000000000002,0.5400000000000004,0.26000000000000006
3,15,30,1,11,0.3900000000000002,4,5,71,66,65,61,2.0700000000000016,2.819999999999984,0.11999999999999998,3.7699999999999636,7,4,1,5,9,5,1,5,4,1,48,7,L,0.2300000000000001,0.564,0.11999999999999998,0.7539999999999955
3,16,31,1,8,0.17,2,4,101,103,80,79,2.3099999999999983,0.16,2.7399999999999856,1.2000000000000008,8,1,5,3,10,1,6,3,2,0,10,7,L,0.2310000000000001,0.16,0.4566666666666669,0.4000000000000002
3,16,32,1,13,0.17,1,2,110,59,89,58,2.2000000000000006,3.4899999999999696,1.7200000000000013,0.01,4,5,4,1,5,5,5,1,2,0,13,7,L,0.4400000000000002,0.6980000000000004,0.3440000000000002,0.01
3,17,33,1,8,0.4400000000000002,6,7,108,92,61,97,1.620000000000001,2.6499999999999875,2.8299999999999836,0.7600000000000005,9,7,5,3,11,7,6,3,2,0,11,7,L,0.1472727272727273,0.3785714285714287,0.47166666666666696,0.2533333333333334
3,17,34,1,1,0.3300000000000001,2,3,5,32,31,78,6.5699999999999115,1.490000000000001,0.9800000000000006,0.48000000000000026,12,4,2,2,17,4,2,2,3,0,19,7,L,0.38647058823529434,0.3725000000000002,0.4900000000000002,0.24000000000000013
3,18,35,1,15,0.23000000000000007,2,3,41,18,58,50,4.119999999999961,1.1400000000000008,0.18000000000000002,0.18000000000000002,7,2,1,2,10,2,1,3,6,0,19,7,L,0.4120000000000002,0.5700000000000004,0.18000000000000002,0.060000000000000005
3,18,36,1,11,0.13999999999999999,1,2,62,32,96,69,1.2200000000000006,2.149999999999998,0.6200000000000003,0.5500000000000003,2,4,2,2,3,5,2,2,4,0,16,7,L,0.4066666666666669,0.43000000000000027,0.3100000000000001,0.2750000000000001
3,19,37,1,15,1.1800000000000008,6,9,26,16,57,87,4.119999999999982,0.2900000000000001,0.2700000000000001,0.4100000000000002,10,1,1,1,13,1,1,1,6,0,18,7,L,0.3169230769230771,0.2900000000000001,0.2700000000000001,0.4100000000000002
3,19,38,1,12,0.36000000000000015,2,3,42,48,100,72,4.189999999999962,1.0300000000000007,2.4099999999999926,2.2199999999999966,8,3,4,6,10,3,6,6,5,0,16,7,L,0.41900000000000026,0.3433333333333335,0.4016666666666669,0.37000000000000016
3,20,39,1,2,0.19000000000000003,2,3,57,50,55,32,1.2700000000000007,1.6100000000000012,0.25000000000000006,0.7900000000000005,4,5,1,1,5,7,1,1,4,0.5,29,7,L,0.2540000000000001,0.23000000000000007,0.25000000000000006,0.7900000000000005
3,20,40,1,15,0.8800000000000006,4,5,21,71,94,72,3.0699999999999976,6.0499999999999154,1.1100000000000008,0.5600000000000003,7,9,2,3,8,13,3,3,6,0,17,7,L,0.3837500000000002,0.4653846153846156,0.37000000000000016,0.18666666666666673
4,1,1,0,1,0.25000000000000006,2,3,42,113,81,37,3.069999999999984,0.6500000000000004,0.13999999999999999,0.5800000000000003,6,1,1,2,9,2,1,2,3,0,15,7,L,0.34111111111111125,0.3250000000000001,0.13999999999999999,0.2900000000000001
4,1,2,0,3,0.24000000000000007,2,3,5,35,108,85,4.029999999999963,0.09,2.7799999999999847,0.07,10,1,3,2,15,1,4,2,5,0,16,7,L,0.2686666666666668,0.09,0.6950000000000004,0.035
4,2,3,0,2,0.3300000000000001,3,4,15,42,79,18,3.4499999999999775,1.0100000000000007,0.25000000000000006,0.34000000000000014,7,5,1,2,9,5,1,2,4,0,20,7,L,0.3833333333333335,0.20200000000000004,0.25000000000000006,0.17
4,2,4,0,6,0.7100000000000004,7,8,7,2,62,35,3.3299999999999885,9.60999999999984,2.259999999999996,0.01,10,12,2,1,14,18,2,1,6,0,21,7,L,0.23785714285714296,0.5338888888888892,1.129999999999998,0.01
4,3,5,0,1,0.47000000000000025,2,3,76,30,52,74,3.5499999999999785,0.3300000000000001,0.8100000000000005,0.09999999999999999,8,1,4,1,12,1,4,1,3,0,15,7,L,0.29583333333333345,0.3300000000000001,0.20250000000000004,0.09999999999999999
4,3,6,0,6,0.3200000000000001,2,3,41,10,1,37,3.9699999999999664,0.7000000000000004,0.04,3.099999999999978,6,4,1,7,7,4,1,7,6,0,22,7,L,0.5671428571428575,0.17500000000000007,0.04,0.4428571428571431
4,4,7,0,3,0.5000000000000002,5,6,25,3,34,11,1.710000000000001,1.360000000000001,1.5500000000000012,0.9900000000000007,6,4,4,4,7,6,5,4,5,0,22,7,L,0.2442857142857144,0.22666666666666674,0.31000000000000016,0.2475000000000001
4,4,8,0,7,0.23000000000000007,2,3,70,64,39,17,2.5399999999999947,1.340000000000001,2.52999999999999,0.01,5,4,6,1,8,4,6,1,6,0,19,7,L,0.31750000000000017,0.33500000000000013,0.4216666666666669,0.01
4,5,9,0,10,0.20000000000000004,2,3,8,92,113,68,2.839999999999988,0.34000000000000014,0.3100000000000001,0.25000000000000006,8,2,1,1,11,2,1,1,3,0,15,7,L,0.2581818181818183,0.17,0.3100000000000001,0.25000000000000006
4,5,10,0,2,0.6700000000000004,5,6,60,104,106,108,4.069999999999972,2.2199999999999966,0.37000000000000016,0.9200000000000006,11,9,4,4,13,9,4,4,4,0.5,16,7,L,0.31307692307692325,0.24666666666666678,0.09249999999999999,0.2300000000000001
4,6,11,0,2,0.24000000000000007,2,2,1,108,57,48,6.869999999999903,0.09,0.07,0.01,11,2,2,1,18,2,2,1,4,0,17,7,L,0.3816666666666662,0.045,0.035,0.01
4,6,12,0,7,0.3100000000000001,3,4,13,111,15,118,5.069999999999943,0.23000000000000007,0.09999999999999999,0.8500000000000005,11,3,3,2,14,3,3,2,6,0,16,7,L,0.3621428571428574,0.07666666666666666,0.03333333333333333,0.4250000000000002
4,7,13,1,14,0.3900000000000002,2,4,91,11,61,1,2.839999999999992,1.370000000000001,0.20000000000000004,0.3200000000000001,6,2,1,2,9,2,1,2,3,0,19,7,L,0.3155555555555557,0.6850000000000004,0.20000000000000004,0.16000000000000003
4,7,14,1,13,0.34000000000000014,2,3,20,119,43,56,4.6899999999999515,0.4400000000000002,0.12999999999999998,0.10999999999999999,7,3,1,1,10,3,1,1,2,0,17,7,L,0.46900000000000025,0.14666666666666672,0.12999999999999998,0.10999999999999999
4,8,15,1,2,0.6500000000000004,2,3,48,14,76,40,5.4499999999999424,0.13999999999999999,0.16,0.09999999999999999,9,1,1,1,11,1,1,1,4,0,19,7,L,0.49545454545454576,0.13999999999999999,0.16,0.09999999999999999
4,8,16,1,3,0.18000000000000002,2,3,87,29,64,25,2.5599999999999934,0.47000000000000025,0.4200000000000002,1.1300000000000008,5,3,2,4,7,4,3,4,5,0,17,7,L,0.36571428571428594,0.11750000000000001,0.14,0.2825000000000002
4,9,17,1,13,0.8800000000000006,3,4,118,113,82,51,1.600000000000001,1.260000000000001,1.1300000000000008,1.400000000000001,5,4,3,4,6,4,4,4,2,0,11,7,L,0.2666666666666668,0.3150000000000001,0.28250000000000014,0.35000000000000014
4,9,18,1,11,0.5400000000000003,5,6,89,94,67,72,2.3900000000000015,0.6000000000000003,1.0500000000000007,0.15,9,1,4,1,11,1,5,1,4,0,14,7,L,0.21727272727272734,0.6000000000000003,0.21000000000000005,0.15
4,10,19,1,15,0.48000000000000026,6,7,24,23,13,88,3.309999999999984,4.479999999999949,4.289999999999953,8.66999999999986,10,9,9,14,11,13,12,24,6,0.5,39,7,L,0.30090909090909107,0.34461538461538477,0.35750000000000015,0.3612500000000002
4,10,20,1,7,0.46000000000000024,6,7,4,44,84,11,3.7799999999999736,0.6500000000000004,0.5800000000000003,0.01,11,1,4,1,14,1,4,1,6,0,20,7,L,0.27000000000000013,0.6500000000000004,0.14500000000000005,0.01
4,11,21,1,12,1.8900000000000015,5,8,21,77,113,119,3.9900000000000007,8.859999999999856,0.01,1.380000000000001,11,9,1,2,14,11,1,2,5,0,13,7,L,0.28500000000000014,0.8054545454545459,0.01,0.6900000000000004
4,11,22,1,3,0.26000000000000006,2,3,68,30,88,100,3.5399999999999743,0.4300000000000002,2.1199999999999988,1.1100000000000008,11,4,8,3,14,5,8,3,5,0,14,7,L,0.25285714285714295,0.086,0.2650000000000001,0.37000000000000016
4,12,23,1,7,0.34000000000000014,2,3,5,2,85,6,1.730000000000001,1.300000000000001,0.5800000000000003,0.5100000000000002,4,4,1,2,5,5,1,2,6,0.5,39,7,L,0.34600000000000014,0.2600000000000001,0.5800000000000003,0.2550000000000001
4,12,24,1,15,0.5400000000000003,2,4,13,46,82,18,5.749999999999933,0.15,0.02,0.02,13,1,1,1,19,1,1,1,6,0,20,7,L,0.30263157894736853,0.15,0.02,0.02
4,13,25,1,1,0.7900000000000005,3,4,77,82,112,63,2.660000000000002,1.1400000000000008,0.2800000000000001,1.8400000000000014,6,3,1,2,7,3,1,3,3,0,12,7,L,0.3800000000000002,0.38000000000000017,0.2800000000000001,0.6133333333333337
4,13,26,1,8,0.37000000000000016,4,4,102,87,104,17,10.309999999999834,1.430000000000001,3.0299999999999794,0.38000000000000017,16,2,5,2,22,2,8,2,2,0,13,7,L,0.4686363636363639,0.7150000000000004,0.3787500000000002,0.19000000000000009
4,14,27,1,11,0.3900000000000002,5,6,113,69,117,120,2.599999999999997,0.2700000000000001,1.5400000000000011,0.18000000000000002,8,1,7,1,10,1,8,1,4,0.5,16,7,L,0.2600000000000001,0.2700000000000001,0.19250000000000006,0.18000000000000002
4,14,28,1,8,0.21000000000000005,2,3,98,1,97,105,2.9599999999999853,1.370000000000001,0.47000000000000025,0.04,8,4,4,1,12,4,4,1,2,0.5,18,7,L,0.24666666666666676,0.34250000000000014,0.11750000000000002,0.04
4,15,29,1,8,0.18000000000000002,2,3,97,67,62,69,2.1100000000000017,7.0799999999998935,0.8300000000000005,0.5500000000000003,8,8,2,1,11,13,2,1,2,0.5,26,7,L,0.1918181818181819,0.544615384615384,0.4150000000000002,0.5500000000000003
4,15,30,1,14,0.19000000000000003,2,4,90,111,88,87,2.3699999999999974,0.3200000000000001,0.3300000000000001,2.4499999999999917,7,2,2,8,10,2,3,8,3,0.5,20,7,L,0.2370000000000001,0.16000000000000003,0.10999999999999999,0.30625000000000013
4,16,31,1,2,0.13999999999999999,2,3,51,58,19,49,3.3499999999999757,0.7400000000000004,0.5400000000000003,0.01,10,3,3,1,12,3,3,1,4,0.5,30,7,L,0.2791666666666668,0.24666666666666676,0.18000000000000002,0.01
4,16,32,1,12,0.46000000000000024,4,5,61,63,42,62,2.879999999999993,1.0400000000000007,0.21000000000000005,0.3200000000000001,9,1,1,1,14,1,1,1,5,0.5,29,7,L,0.2057142857142858,1.0400000000000007,0.21000000000000005,0.3200000000000001
4,17,33,1,12,1.6800000000000013,5,10,111,42,16,117,3.700000000000002,0.6500000000000004,0.24000000000000007,0.18000000000000002,8,1,3,1,14,1,3,1,5,0,15,7,L,0.2642857142857144,0.6500000000000004,0.07999999999999999,0.18000000000000002
4,17,34,1,11,0.3300000000000001,3,4,100,101,66,63,3.9199999999999675,1.320000000000001,0.04,0.04,7,3,1,1,10,3,1,1,4,0,12,7,L,0.3920000000000002,0.4400000000000002,0.04,0.04
4,18,35,1,13,0.34000000000000014,3,4,113,119,116,23,1.8900000000000012,1.360000000000001,0.5900000000000003,0.5900000000000003,6,4,2,2,8,7,2,2,2,0.5,18,7,L,0.23625000000000007,0.19428571428571437,0.2950000000000001,0.29500000000000015
4,18,36,1,3,0.22000000000000006,2,4,68,104,63,29,2.8299999999999885,2.0500000000000003,0.07,0.02,7,3,1,1,9,3,1,1,5,0,15,7,L,0.3144444444444446,0.6833333333333338,0.07,0.02
4,19,37,1,12,0.18000000000000002,2,3,38,15,101,71,2.819999999999988,1.6400000000000012,0.5500000000000003,0.9100000000000006,6,5,1,3,8,5,1,3,5,0,17,7,L,0.3525000000000002,0.3280000000000002,0.5500000000000003,0.30333333333333345
4,19,38,1,7,0.2700000000000001,2,3,55,75,59,9,2.0600000000000014,0.9100000000000006,0.08,0.20000000000000004,5,2,1,3,7,2,1,5,6,0,17,7,L,0.29428571428571443,0.45500000000000024,0.08,0.04
4,20,39,1,15,0.3200000000000001,3,4,76,65,39,17,2.6099999999999954,1.6600000000000013,1.400000000000001,0.01,7,3,2,1,8,3,3,1,6,0,18,7,L,0.32625000000000015,0.5533333333333337,0.46666666666666695,0.01
4,20,40,1,7,0.3200000000000001,2,4,4,28,27,49,4.819999999999949,0.4300000000000002,0.2800000000000001,0.4000000000000002,11,2,2,1,16,2,2,1,6,0,20,7,L,0.3012499999999996,0.21500000000000008,0.14,0.4000000000000002
4,21,41,1,3,3.2699999999999743,6,10,61,70,29,28,6.249999999999955,0.19000000000000003,2.5099999999999905,0.47000000000000025,11,1,8,4,15,1,8,4,5,0,18,7,L,0.41666666666666674,0.19000000000000003,0.31375000000000014,0.11750000000000002
4,21,42,1,13,0.17,1,2,117,58,12,40,3.9399999999999635,0.15,0.17,0.060000000000000005,10,2,1,1,15,2,1,1,2,0,17,7,L,0.26266666666666677,0.075,0.17,0.060000000000000005
5,1,1,0,2,0.6500000000000004,2,4,55,54,50,44,2.1700000000000017,1.5700000000000012,0.4100000000000002,0.7000000000000004,4,5,2,2,6,8,2,3,4,0.5,29,7,L,0.36166666666666686,0.19625000000000006,0.20500000000000007,0.2333333333333334
5,1,2,0,1,0.49000000000000027,2,4,7,36,4,83,4.959999999999949,0.2700000000000001,0.5500000000000003,0.38000000000000017,8,2,4,3,16,2,4,3,3,0,20,7,L,0.31000000000000016,0.135,0.13750000000000004,0.12666666666666668
5,2,3,0,10,0.7800000000000005,3,8,95,50,7,113,3.5499999999999856,1.2500000000000009,0.3300000000000001,0.4000000000000002,10,4,2,1,17,5,2,1,3,0,15,7,L,0.20882352941176477,0.25000000000000006,0.165,0.4000000000000002
5,2,4,0,7,0.4200000000000002,2,3,26,25,19,21,4.36999999999996,0.6300000000000003,0.09,0.3200000000000001,11,2,2,2,16,3,2,3,6,0,22,7,L,0.2731250000000001,0.21000000000000005,0.045,0.10666666666666669
5,3,5,0,1,0.6400000000000003,4,7,110,29,19,57,4.769999999999957,0.18000000000000002,0.21000000000000005,0.3200000000000001,15,1,1,1,28,1,1,1,3,0,17,7,L,0.1703571428571429,0.18000000000000002,0.21000000000000005,0.3200000000000001
5,3,6,0,4,0.4400000000000002,3,5,97,98,93,5,3.1199999999999872,0.38000000000000017,1.9200000000000015,0.49000000000000027,8,2,6,3,12,2,7,3,2,0,13,7,L,0.2600000000000001,0.19000000000000003,0.2742857142857144,0.16333333333333339
5,4,7,0,5,0.5600000000000003,4,6,60,40,3,47,2.909999999999994,0.4300000000000002,0.7100000000000004,0.21000000000000005,9,1,2,1,12,1,2,1,5,0,20,7,L,0.2425000000000001,0.4300000000000002,0.3550000000000002,0.21000000000000005
5,4,8,0,7,0.5500000000000003,2,4,79,15,17,19,4.729999999999956,0.5800000000000003,0.38000000000000017,0.5600000000000003,10,2,5,3,18,2,5,3,6,0.5,39,7,L,0.2627777777777779,0.2900000000000001,0.076,0.18666666666666673
5,5,9,0,4,0.6100000000000003,3,9,107,2,33,7,3.4099999999999846,1.8500000000000014,2.1199999999999988,0.15,7,8,4,2,15,11,4,2,2,0,19,7,L,0.22733333333333344,0.16818181818181824,0.5300000000000004,0.075
5,5,10,0,7,0.5100000000000002,3,4,16,45,23,57,10.949999999999822,0.01,0.01,0.01,17,1,1,1,33,1,1,1,6,0,21,7,L,0.33181818181818196,0.01,0.01,0.01
5,6,11,0,3,0.3000000000000001,2,4,109,5,12,29,3.77999999999997,0.4100000000000002,0.9100000000000006,0.6400000000000003,11,2,2,6,17,2,2,9,5,0,19,7,L,0.22235294117647067,0.20500000000000004,0.45500000000000024,0.07111111111111111
5,6,12,0,5,0.5700000000000003,3,4,13,54,60,38,3.3799999999999844,1.8100000000000014,0.5400000000000003,0.060000000000000005,11,9,3,1,12,10,3,1,5,0,19,7,L,0.2816666666666668,0.18100000000000005,0.18000000000000005,0.060000000000000005
5,7,13,1,3,0.4200000000000002,3,4,30,117,70,28,3.3199999999999825,0.8500000000000005,0.5200000000000002,0.060000000000000005,10,4,3,1,16,5,3,1,5,0,16,7,L,0.20750000000000007,0.17000000000000004,0.17333333333333337,0.060000000000000005
5,7,14,1,7,0.7400000000000004,2,5,52,44,53,12,3.8799999999999777,0.7900000000000005,0.3300000000000001,0.48000000000000026,10,1,3,3,15,1,3,3,6,0,19,7,L,0.25866666666666677,0.7900000000000005,0.10999999999999999,0.16000000000000003
5,8,15,1,13,0.6600000000000004,3,6,93,56,95,53,4.16999999999997,0.17,0.7400000000000004,0.2800000000000001,11,2,2,3,20,3,2,4,2,0,14,7,L,0.20850000000000007,0.056666666666666664,0.37000000000000016,0.07
5,8,16,1,7,0.4400000000000002,2,3,71,69,97,81,3.6699999999999755,0.48000000000000026,2.7999999999999843,0.35000000000000014,9,2,9,1,16,2,13,1,6,0,13,7,L,0.22937500000000008,0.24000000000000005,0.21538461538461548,0.35000000000000014
5,9,17,1,7,0.7200000000000004,5,7,11,98,99,7,3.5999999999999828,1.2300000000000009,0.4100000000000002,0.12999999999999998,12,4,2,1,19,5,2,1,6,0,16,7,L,0.18947368421052638,0.24600000000000008,0.20500000000000007,0.12999999999999998
5,9,18,1,2,0.5200000000000002,3,5,81,56,55,31,2.9299999999999926,1.9400000000000015,0.5300000000000002,0.8800000000000006,7,4,4,3,13,4,4,3,4,0,16,7,L,0.22538461538461546,0.48500000000000026,0.13250000000000003,0.29333333333333345
5,10,19,1,15,0.49000000000000027,2,5,17,93,57,114,4.889999999999951,0.25000000000000006,0.11999999999999998,0.3100000000000001,11,2,1,2,23,2,1,2,6,0,15,7,L,0.212608695652174,0.125,0.11999999999999998,0.155
5,10,20,1,8,0.49000000000000027,4,5,105,71,1,4,4.519999999999959,0.21000000000000005,0.6200000000000003,0.16,14,1,1,1,18,1,1,1,2,0,18,7,L,0.25111111111111123,0.21000000000000005,0.6200000000000003,0.16
5,11,21,1,11,0.7100000000000004,2,8,120,68,11,7,4.5999999999999615,0.24000000000000007,0.10999999999999999,0.16,12,2,1,1,27,3,1,1,4,0,18,7,L,0.17037037037037042,0.07999999999999999,0.10999999999999999,0.16
5,11,22,1,12,0.6500000000000004,2,9,38,41,102,103,4.069999999999972,0.16,0.4400000000000002,0.15,9,1,2,2,19,1,2,2,5,0,14,7,L,0.21421052631578955,0.16,0.22000000000000003,0.075
5,12,23,1,8,1.0100000000000007,8,8,41,71,69,48,4.6099999999999675,0.8700000000000006,0.48000000000000026,0.7800000000000005,17,3,2,3,21,5,2,3,2,0,18,7,L,0.2195238095238096,0.17400000000000007,0.2400000000000001,0.2600000000000001
5,12,24,1,1,0.4000000000000002,3,6,81,76,73,56,3.849999999999971,0.2900000000000001,0.48000000000000026,0.12999999999999998,8,2,3,1,20,2,4,1,3,0.5,22,7,L,0.19250000000000006,0.145,0.12000000000000001,0.12999999999999998
5,13,25,1,1,0.5200000000000002,2,4,70,42,106,4,3.7199999999999758,0.5600000000000003,0.21000000000000005,0.20000000000000004,8,1,1,2,15,1,1,3,3,0,17,7,L,0.2480000000000001,0.5600000000000003,0.21000000000000005,0.06666666666666667
5,13,26,1,14,0.5000000000000002,2,5,90,55,56,27,3.0199999999999907,0.48000000000000026,0.9000000000000006,1.9900000000000015,4,2,2,9,7,3,2,12,3,0,16,7,L,0.4314285714285711,0.16000000000000003,0.4500000000000002,0.1658333333333334
5,14,27,1,2,0.6700000000000004,3,3,102,105,106,4,6.589999999999918,0.19000000000000003,14.31999999999974,5.099999999999936,13,3,17,10,21,3,56,15,4,0.5,18,7,L,0.313809523809524,0.06333333333333332,0.25571428571428584,0.3400000000000002
5,14,28,1,14,0.37000000000000016,2,3,89,68,94,118,3.1599999999999846,0.6300000000000003,0.6900000000000004,0.5200000000000002,9,4,3,1,16,4,5,1,3,0,12,7,L,0.19750000000000006,0.15750000000000003,0.13800000000000004,0.5200000000000002
5,15,29,1,14,0.2900000000000001,2,3,50,24,87,109,3.799999999999969,1.6700000000000013,0.2700000000000001,0.08,8,4,2,1,14,4,2,1,3,0,15,7,L,0.2714285714285715,0.4175000000000002,0.13500000000000004,0.08
5,15,30,1,12,0.3000000000000001,2,3,69,48,100,71,3.959999999999966,0.21000000000000005,0.19000000000000003,0.13999999999999999,12,2,1,1,19,2,1,1,5,0,15,7,L,0.208421052631579,0.10499999999999998,0.19000000000000003,0.13999999999999999
5,16,31,1,1,0.4000000000000002,2,3,49,56,108,23,4.079999999999965,0.8900000000000006,0.45000000000000023,0.07,11,3,2,1,19,5,2,1,3,0,16,7,L,0.21473684210526323,0.17800000000000005,0.22500000000000012,0.07
5,16,32,1,7,1.470000000000001,3,5,10,112,68,46,3.729999999999997,0.8700000000000006,0.5400000000000003,0.4400000000000002,10,2,3,3,19,3,4,4,6,0,17,7,L,0.19631578947368428,0.29000000000000015,0.135,0.11000000000000001
5,17,33,1,3,0.4300000000000002,4,7,65,75,63,80,4.0699999999999665,0.9200000000000006,0.09999999999999999,0.18000000000000002,12,3,1,1,24,3,1,1,5,0,14,7,L,0.1695833333333334,0.30666666666666675,0.09999999999999999,0.18000000000000002
5,17,34,1,2,0.37000000000000016,2,3,50,56,92,96,3.099999999999986,0.34000000000000014,0.8900000000000006,0.9400000000000006,6,2,3,3,11,3,5,3,4,0,14,7,L,0.2818181818181819,0.11333333333333334,0.17800000000000005,0.31333333333333346
5,18,35,1,2,0.8500000000000005,4,8,48,1,9,59,4.359999999999969,0.8200000000000005,0.21000000000000005,0.7700000000000005,14,8,1,3,22,11,1,4,4,0,21,7,L,0.19818181818181824,0.07454545454545455,0.21000000000000005,0.19250000000000006
5,18,36,1,14,0.3900000000000002,2,4,87,17,15,91,3.819999999999971,0.17,0.4000000000000002,0.6800000000000004,14,1,3,8,23,1,3,8,3,0,18,7,L,0.1660869565217392,0.17,0.13333333333333333,0.085
5,19,37,1,3,0.5300000000000002,3,4,30,25,49,55,2.5900000000000003,0.6000000000000003,0.7200000000000004,0.21000000000000005,8,2,4,3,11,3,4,3,5,0,18,7,L,0.23545454545454556,0.20000000000000004,0.18000000000000002,0.06999999999999999
5,19,38,1,14,0.6700000000000004,3,8,66,63,21,86,5.369999999999944,0.3100000000000001,0.5900000000000003,0.02,16,3,2,1,28,3,3,1,3,0,17,7,L,0.19178571428571434,0.10333333333333335,0.1966666666666667,0.02
5,20,39,1,1,0.5800000000000003,4,6,74,53,44,45,3.7099999999999778,0.20000000000000004,0.6200000000000003,1.0300000000000007,13,3,3,3,18,4,3,3,3,0,17,7,L,0.2061111111111112,0.049999999999999996,0.20666666666666675,0.3433333333333335
5,20,40,1,3,0.8300000000000005,5,7,69,28,103,64,3.8399999999999803,0.20000000000000004,0.8400000000000005,0.23000000000000007,9,1,4,2,14,1,4,2,5,0,15,7,L,0.2742857142857144,0.20000000000000004,0.21000000000000008,0.11499999999999999
5,21,41,1,8,0.4000000000000002,3,4,14,72,95,104,14.579999999999742,0.01,0.01,0.01,20,1,1,1,53,1,1,1,2,0,15,7,L,0.2750943396226416,0.01,0.01,0.01
5,21,42,1,13,0.2700000000000001,2,3,51,43,4,119,3.829999999999968,4.7799999999999425,0.03,0.11999999999999998,11,11,2,2,14,15,2,2,2,0,17,7,L,0.2735714285714287,0.3186666666666668,0.015,0.06
6,1,1,0,3,0.6600000000000004,2,5,32,31,82,77,4.1799999999999695,0.47000000000000025,0.6400000000000003,0.4200000000000002,5,2,1,1,10,3,1,1,5,0,16,7,L,0.41800000000000026,0.15666666666666673,0.6400000000000003,0.4200000000000002
6,1,2,0,6,0.6800000000000004,2,3,3,2,11,42,4.709999999999959,0.4200000000000002,0.3900000000000002,0.5000000000000002,9,2,2,3,15,2,2,3,6,0.5,41,7,L,0.31400000000000017,0.21000000000000002,0.19500000000000003,0.16666666666666669
6,2,3,0,7,0.5200000000000002,2,4,17,81,77,45,4.669999999999956,0.6900000000000004,0.2700000000000001,0.9300000000000006,10,3,1,4,20,4,1,4,6,0,17,7,L,0.2335000000000001,0.17250000000000004,0.2700000000000001,0.23250000000000007
6,2,4,0,10,0.6600000000000004,2,6,87,68,92,117,4.309999999999967,2.3099999999999947,0.08,0.3000000000000001,10,2,1,2,18,2,1,2,3,0,12,7,L,0.23944444444444454,1.1550000000000007,0.08,0.15000000000000005
6,3,5,0,2,0.9900000000000007,3,9,118,52,27,91,6.199999999999934,0.4300000000000002,0.2900000000000001,0.35000000000000014,12,3,2,2,28,3,3,2,4,0,14,7,L,0.2214285714285715,0.14333333333333334,0.09666666666666666,0.17500000000000004
6,3,6,0,7,0.7800000000000005,2,5,43,21,16,24,5.529999999999943,0.7600000000000005,0.09,0.07,12,3,1,1,19,5,1,1,6,0.5,41,7,L,0.2910526315789475,0.15200000000000002,0.09,0.07
6,4,7,0,10,0.47000000000000025,2,3,58,86,114,47,3.5099999999999794,0.4200000000000002,1.320000000000001,1.0100000000000007,7,1,4,4,9,1,4,5,3,0,14,7,L,0.3900000000000002,0.4200000000000002,0.3300000000000001,0.20200000000000007
6,4,8,0,1,0.7500000000000004,3,6,3,68,74,29,4.3099999999999685,1.8700000000000014,0.3100000000000001,1.1300000000000008,9,4,2,3,15,4,3,3,3,0,18,7,L,0.28733333333333344,0.46750000000000025,0.10333333333333332,0.37666666666666687
6,5,9,0,6,0.5300000000000002,1,2,1,74,45,77,7.909999999999887,0.04,0.05,0.18000000000000002,12,1,1,1,22,1,1,1,6,0,17,7,L,0.3595454545454547,0.04,0.05,0.18000000000000002
6,5,10,0,4,0.6300000000000003,2,4,65,90,94,93,5.859999999999934,0.23000000000000007,0.26000000000000006,0.7500000000000004,11,1,2,3,23,1,3,3,2,0.5,22,7,L,0.2547826086956523,0.23000000000000007,0.08666666666666667,0.2500000000000001
6,6,11,0,2,0.46000000000000024,2,3,93,53,38,89,3.4499999999999806,1.5200000000000011,2.9399999999999813,0.03,7,6,6,1,16,7,7,1,4,0,15,7,L,0.2156250000000001,0.21714285714285722,0.4200000000000002,0.03
6,6,12,0,3,1.0400000000000007,3,4,75,74,26,119,4.099999999999979,0.7300000000000004,0.5100000000000002,2.06,7,2,3,3,12,3,4,3,5,0,13,7,L,0.34166666666666684,0.2433333333333334,0.12750000000000003,0.6866666666666671
6,7,13,1,7,0.8700000000000006,3,7,7,82,71,6,2.1300000000000017,1.360000000000001,0.9000000000000006,0.3300000000000001,5,2,2,2,9,3,2,2,6,0,19,7,L,0.23666666666666675,0.4533333333333336,0.45000000000000023,0.16500000000000004
6,7,14,1,15,0.5600000000000003,3,4,19,106,16,88,3.509999999999981,1.5700000000000012,0.18000000000000002,0.37000000000000016,9,3,2,1,13,5,2,1,6,0,17,7,L,0.27000000000000013,0.3140000000000001,0.09000000000000001,0.37000000000000016
6,8,15,1,14,0.7500000000000004,3,5,27,28,71,95,3.479999999999986,0.9300000000000006,0.5000000000000002,1.8100000000000014,8,3,2,5,11,3,2,8,3,0,17,7,L,0.3163636363636365,0.3100000000000001,0.2500000000000001,0.22625000000000006
6,8,16,1,2,0.46000000000000024,2,5,50,3,74,98,4.279999999999963,0.9600000000000006,0.7400000000000004,0.3200000000000001,9,2,4,1,13,2,4,1,4,0,15,7,L,0.3292307692307694,0.48000000000000026,0.18500000000000003,0.3200000000000001
6,9,17,1,11,0.5700000000000003,2,3,92,64,62,4,3.9399999999999724,0.5800000000000003,1.0500000000000007,1.0400000000000007,6,2,3,4,10,2,5,5,4,0,17,7,L,0.3940000000000002,0.2900000000000001,0.21000000000000008,0.20800000000000005
6,9,18,1,13,2.339999999999994,9,16,54,119,57,29,4.979999999999982,2.199999999999997,0.6800000000000004,1.340000000000001,13,5,2,4,25,5,2,5,2,0,15,7,L,0.19920000000000007,0.4400000000000002,0.34000000000000014,0.2680000000000001
6,10,19,1,15,0.4300000000000002,2,3,23,16,93,119,5.449999999999938,9.429999999999843,1.1400000000000008,0.7600000000000005,12,16,3,1,22,32,3,1,6,0,17,7,L,0.24772727272727282,0.2946875000000001,0.3800000000000002,0.7600000000000005
6,10,20,1,11,1.5300000000000011,3,6,63,61,71,70,6.279999999999944,0.6700000000000004,0.37000000000000016,0.6400000000000003,13,3,3,4,19,5,3,5,4,1,48,7,L,0.33052631578947383,0.13400000000000004,0.12333333333333335,0.12800000000000003
6,11,21,1,2,0.9200000000000006,3,6,111,93,49,88,4.169999999999975,2.2699999999999956,0.12999999999999998,0.3100000000000001,9,6,1,2,13,7,1,2,4,0,12,7,L,0.3207692307692309,0.32428571428571445,0.12999999999999998,0.15500000000000003
6,11,22,1,1,0.5000000000000002,2,3,62,74,10,78,3.5999999999999783,1.5900000000000012,2.7799999999999847,0.03,7,6,4,1,9,6,4,1,3,0,16,7,L,0.4000000000000002,0.26500000000000007,0.6949999999999995,0.03
6,12,23,1,12,0.7700000000000005,6,7,45,37,110,111,4.4499999999999655,3.649999999999966,0.3300000000000001,0.3300000000000001,9,10,2,1,11,13,3,1,5,0,14,7,L,0.404545454545453,0.2807692307692309,0.11000000000000003,0.3300000000000001
6,12,24,1,2,0.9800000000000006,2,8,50,97,108,85,3.8199999999999843,1.6900000000000013,0.5000000000000002,2.0400000000000005,8,2,2,6,15,2,2,6,4,0,11,7,L,0.25466666666666676,0.8450000000000005,0.25000000000000006,0.34000000000000014
6,13,25,1,1,0.7000000000000004,3,7,103,106,84,78,4.339999999999967,1.7500000000000013,0.11999999999999998,0.15,9,3,2,2,17,4,2,2,3,0,10,7,L,0.25529411764705895,0.4375000000000002,0.06,0.075
6,13,26,1,14,0.4200000000000002,2,3,114,117,67,89,4.059999999999967,0.3900000000000002,0.37000000000000016,0.24000000000000007,7,1,1,2,14,1,1,2,3,0,11,7,L,0.2900000000000001,0.3900000000000002,0.37000000000000016,0.12000000000000002
6,14,27,1,15,0.4400000000000002,2,4,24,50,75,108,6.639999999999913,0.38000000000000017,0.26000000000000006,0.16,9,3,2,2,18,3,2,2,6,0,15,7,L,0.3688888888888891,0.12666666666666668,0.13,0.08
6,14,28,1,7,0.4100000000000002,3,4,33,26,12,8,4.519999999999957,0.7300000000000004,0.12999999999999998,0.15,12,4,1,2,18,5,1,3,6,0,22,7,L,0.25111111111111123,0.14600000000000005,0.12999999999999998,0.05
6,15,29,1,8,0.8000000000000005,3,7,78,73,13,104,5.449999999999946,0.9000000000000006,2.7799999999999847,0.7200000000000004,10,2,5,3,15,2,7,3,2,0,14,7,L,0.3633333333333335,0.45000000000000023,0.3971428571428574,0.24000000000000007
6,15,30,1,13,0.6100000000000003,3,5,110,7,112,6,3.0799999999999916,2.629999999999988,2.1399999999999983,0.45000000000000023,7,5,7,3,12,7,7,3,2,0,16,7,L,0.25666666666666677,0.3757142857142859,0.3057142857142858,0.15
6,16,31,1,1,0.6600000000000004,2,4,76,75,109,115,6.549999999999919,0.2800000000000001,0.07,0.09,10,2,1,1,14,2,1,1,3,0,10,7,L,0.46785714285714314,0.13999999999999999,0.07,0.09
6,16,32,1,14,0.4200000000000002,2,3,90,1,86,10,5.369999999999939,0.4400000000000002,0.9500000000000006,2.0300000000000007,13,1,4,7,19,1,4,9,3,0,18,7,L,0.2826315789473685,0.4400000000000002,0.23750000000000007,0.22555555555555562
6,17,33,1,14,0.5900000000000003,3,7,91,51,93,57,5.619999999999937,1.2400000000000009,4.719999999999944,0.01,11,3,3,1,17,4,6,1,3,0,14,7,L,0.3305882352941178,0.3100000000000001,0.7866666666666672,0.01
6,17,34,1,13,0.8500000000000005,3,5,8,34,2,12,4.419999999999968,1.8200000000000014,0.13999999999999999,2.619999999999988,8,3,1,4,12,3,1,4,2,0.5,41,7,L,0.3683333333333335,0.606666666666667,0.13999999999999999,0.654999999999999
6,18,35,1,7,0.6800000000000004,2,4,83,11,1,76,6.959999999999911,0.35000000000000014,0.4200000000000002,3.839999999999962,15,2,2,9,22,2,2,10,6,0,18,7,L,0.3163636363636365,0.17500000000000002,0.21000000000000008,0.38400000000000023
6,18,36,1,13,0.2700000000000001,1,2,111,32,57,27,2.529999999999996,0.8600000000000005,0.4300000000000002,0.21000000000000005,5,3,1,2,10,4,1,3,2,0,16,7,L,0.2530000000000001,0.21500000000000008,0.4300000000000002,0.06999999999999999
6,19,37,1,12,0.5000000000000002,2,4,39,43,9,48,1.750000000000001,1.0800000000000007,2.0400000000000005,0.15,4,3,5,1,7,3,7,1,5,0.5,36,7,L,0.2500000000000001,0.36000000000000015,0.29142857142857154,0.15
6,19,38,1,2,0.8900000000000006,6,7,77,17,120,14,5.539999999999946,24.310000000001,3.6699999999999657,2.0899999999999994,14,18,9,8,17,53,10,10,4,0,17,7,L,0.3258823529411766,0.45867924528301907,0.36700000000000016,0.20900000000000007
6,20,39,1,8,0.2700000000000001,2,3,97,54,55,104,3.9899999999999647,0.24000000000000007,1.6800000000000013,1.6200000000000012,10,1,2,6,15,1,3,8,2,0,12,7,L,0.2660000000000001,0.24000000000000007,0.5600000000000003,0.20250000000000007
6,20,40,1,3,0.36000000000000015,2,3,79,36,13,76,4.469999999999957,0.9600000000000006,0.11999999999999998,0.17,9,5,1,1,15,5,1,1,5,0,17,7,L,0.29800000000000015,0.19200000000000006,0.11999999999999998,0.17
6,21,41,1,8,1.2500000000000009,3,10,79,103,15,42,5.20999999999996,1.0300000000000007,0.25000000000000006,2.199999999999997,9,2,1,3,20,2,1,4,2,0,16,7,L,0.2605000000000001,0.5150000000000002,0.25000000000000006,0.5500000000000003
6,21,42,1,14,2.099999999999999,3,5,90,60,33,51,4.339999999999995,0.7900000000000005,0.3000000000000001,2.199999999999997,6,2,1,3,10,2,1,3,3,0,16,7,L,0.4340000000000002,0.3950000000000002,0.3000000000000001,0.7333333333333336
7,1,1,0,9,0.4200000000000002,2,3,66,5,40,97,5.169999999999943,0.7400000000000004,0.23000000000000007,0.3900000000000002,8,4,1,1,17,4,1,1,4,0,17,7,L,0.30411764705882366,0.18500000000000003,0.23000000000000007,0.3900000000000002
7,1,2,0,3,0.7100000000000004,2,4,30,19,22,113,3.3799999999999875,1.420000000000001,5.35999999999993,0.09999999999999999,8,3,8,1,13,3,13,1,5,0,19,7,L,0.26000000000000006,0.4733333333333336,0.41230769230769254,0.09999999999999999
7,2,3,0,10,0.46000000000000024,3,4,90,15,87,69,3.3199999999999834,1.5100000000000011,0.5600000000000003,0.2900000000000001,6,6,2,2,11,8,2,2,3,0,16,7,L,0.30181818181818193,0.18875000000000006,0.2800000000000001,0.14500000000000002
7,2,4,0,1,1.0400000000000007,4,6,118,9,40,42,4.249999999999976,1.5100000000000011,0.16,0.09999999999999999,8,2,1,1,18,2,1,1,3,0,18,7,L,0.2361111111111112,0.7550000000000006,0.16,0.09999999999999999
7,3,5,0,1,0.36000000000000015,2,5,2,49,42,39,9.92999999999984,0.01,0.01,0.01,14,1,1,1,35,1,1,1,3,0,20,7,L,0.28371428571428586,0.01,0.01,0.01
7,3,6,0,10,0.5800000000000003,3,5,22,72,66,110,3.9199999999999733,0.4000000000000002,0.3200000000000001,0.4300000000000002,11,1,1,1,20,1,1,1,3,0,16,7,L,0.19600000000000006,0.4000000000000002,0.3200000000000001,0.4300000000000002
7,4,7,0,9,0.7700000000000005,2,3,72,65,48,47,5.189999999999951,0.7500000000000004,0.49000000000000027,0.19000000000000003,9,3,3,1,14,3,3,1,4,0,18,7,L,0.3707142857142859,0.2500000000000001,0.16333333333333336,0.19000000000000003
7,4,8,0,1,0.5300000000000002,2,5,83,51,4,31,4.309999999999963,0.46000000000000024,0.3900000000000002,0.8500000000000005,9,1,1,4,18,1,2,4,3,0,18,7,L,0.23944444444444454,0.46000000000000024,0.19500000000000006,0.21250000000000005
7,5,9,0,3,0.6000000000000003,2,6,28,29,109,94,5.189999999999947,0.18000000000000002,0.6700000000000004,0.8300000000000005,12,2,3,3,19,3,3,3,5,0,15,7,L,0.2731578947368422,0.06,0.22333333333333338,0.2766666666666668
7,5,10,0,5,0.5500000000000003,2,6,9,42,41,44,4.49999999999996,0.23000000000000007,0.6800000000000004,0.2800000000000001,8,1,3,2,17,1,4,2,5,0.5,36,7,L,0.2647058823529413,0.23000000000000007,0.17,0.14
7,6,11,0,4,0.47000000000000025,2,4,105,102,61,69,4.369999999999961,1.5400000000000011,1.0000000000000007,0.46000000000000024,9,4,5,3,16,7,5,3,2,0,12,7,L,0.2731250000000001,0.22000000000000006,0.20000000000000007,0.15333333333333335
7,6,12,0,2,0.5800000000000003,2,5,4,60,110,75,5.039999999999949,5.319999999999931,0.01,0.01,11,10,1,1,22,16,1,1,4,0,15,7,L,0.22909090909090918,0.33250000000000013,0.01,0.01
7,7,13,1,2,0.6800000000000004,2,5,55,45,98,13,2.9199999999999964,3.3499999999999726,1.490000000000001,0.3100000000000001,6,5,4,1,17,9,4,1,4,0,17,7,L,0.17176470588235299,0.3722222222222224,0.3725000000000002,0.3100000000000001
7,7,14,1,3,0.26000000000000006,2,3,25,35,29,114,3.929999999999966,0.3300000000000001,0.23000000000000007,0.4100000000000002,8,2,2,1,14,2,2,1,5,0.5,32,7,L,0.2807142857142858,0.165,0.11499999999999999,0.4100000000000002
7,8,15,1,13,0.5400000000000003,2,3,111,113,117,54,3.7299999999999764,1.1200000000000008,0.4300000000000002,0.20000000000000004,9,4,3,2,11,5,5,2,2,0.5,16,7,L,0.3390909090909092,0.22400000000000006,0.086,0.1
7,8,16,1,15,0.6100000000000003,3,4,105,75,13,61,5.109999999999949,0.7800000000000005,0.12999999999999998,0.47000000000000025,11,4,1,3,15,7,1,3,6,0,15,7,L,0.34066666666666684,0.11142857142857145,0.12999999999999998,0.1566666666666667
7,9,17,1,7,0.36000000000000015,2,3,7,10,78,74,4.139999999999963,0.6300000000000003,2.0300000000000007,0.08,10,4,5,1,16,4,5,1,6,0,18,7,L,0.2587500000000001,0.15750000000000003,0.4060000000000002,0.08
7,9,18,1,14,0.6900000000000004,2,8,97,89,94,91,3.289999999999989,0.48000000000000026,0.48000000000000026,0.9100000000000006,5,3,2,3,14,4,3,4,3,0.5,20,7,L,0.2350000000000001,0.12000000000000002,0.16000000000000003,0.22750000000000004
7,10,19,1,13,0.6100000000000003,2,5,51,8,109,4,4.639999999999959,0.9700000000000006,0.4000000000000002,0.34000000000000014,11,4,2,1,18,5,4,2,2,0,18,7,L,0.2577777777777779,0.19400000000000006,0.1,0.17000000000000004
7,10,20,1,11,0.5900000000000003,2,4,64,82,67,68,3.7699999999999765,1.2300000000000009,0.10999999999999999,0.13999999999999999,7,3,1,1,10,6,1,1,4,0.5,27,7,L,0.3770000000000002,0.20500000000000004,0.10999999999999999,0.13999999999999999
7,11,21,1,11,0.4200000000000002,3,4,70,98,106,69,2.2100000000000017,4.479999999999949,0.23000000000000007,0.04,6,7,1,1,10,10,1,1,4,0,12,7,L,0.22100000000000009,0.44800000000000023,0.23000000000000007,0.04
7,11,22,1,12,0.7400000000000004,2,6,47,39,89,86,4.289999999999969,1.280000000000001,0.8600000000000005,0.2800000000000001,9,6,3,1,15,8,5,1,5,0,16,7,L,0.28600000000000014,0.16000000000000003,0.17200000000000004,0.2800000000000001
7,12,23,1,7,0.3900000000000002,2,3,56,9,55,12,4.299999999999961,0.17,1.270000000000001,1.400000000000001,8,1,5,6,14,1,6,8,6,0,20,7,L,0.3071428571428573,0.17,0.21166666666666673,0.17500000000000004
7,12,24,1,11,0.38000000000000017,3,4,18,85,24,69,20.040000000000273,0.02,0.02,0.01,20,1,1,1,53,1,1,1,4,0,19,7,L,0.37811320754717,0.02,0.02,0.01
7,13,25,1,7,0.36000000000000015,2,4,10,6,50,91,3.649999999999974,4.659999999999945,0.05,0.02,8,9,1,1,16,16,1,1,6,0,19,7,L,0.22812500000000008,0.2912500000000001,0.05,0.02
7,13,26,1,13,0.6400000000000003,2,6,66,117,79,76,3.1999999999999895,0.37000000000000016,1.2300000000000009,0.34000000000000014,5,1,3,1,16,1,5,1,2,0,12,7,L,0.20000000000000007,0.37000000000000016,0.24600000000000008,0.34000000000000014
7,14,27,1,8,0.5700000000000003,2,5,108,86,61,10,2.8099999999999965,1.1400000000000008,0.5000000000000002,0.5300000000000002,5,3,2,1,11,4,4,1,2,0,15,7,L,0.25545454545454555,0.2850000000000001,0.12500000000000006,0.5300000000000002
7,14,28,1,13,0.3200000000000001,2,4,116,44,81,110,3.1099999999999848,1.8100000000000014,0.7100000000000004,0.37000000000000016,7,4,2,2,13,5,2,2,2,0,12,7,L,0.23923076923076933,0.36200000000000015,0.35500000000000015,0.18500000000000005
7,15,29,1,1,0.45000000000000023,2,3,71,43,70,73,5.33999999999994,0.18000000000000002,0.3300000000000001,0.09,12,2,2,1,17,2,2,1,3,0,16,7,L,0.31411764705882367,0.09,0.16500000000000004,0.09
7,15,30,1,3,1.6600000000000013,4,9,49,91,107,101,3.0100000000000025,2.4599999999999915,0.6200000000000003,0.5200000000000002,7,5,1,1,12,7,1,1,5,0,11,7,L,0.2508333333333334,0.3514285714285716,0.6200000000000003,0.5200000000000002
7,16,31,1,3,0.7700000000000005,4,6,86,111,4,64,4.24999999999997,0.8700000000000006,0.4000000000000002,0.12999999999999998,10,1,2,1,14,1,2,1,5,0,15,7,L,0.3035714285714287,0.8700000000000006,0.20000000000000004,0.12999999999999998
7,16,32,1,15,0.4200000000000002,2,3,75,43,20,59,3.8499999999999712,2.4499999999999917,0.05,2.339999999999994,10,4,1,6,19,4,1,10,6,0,18,7,L,0.2026315789473685,0.6125000000000003,0.05,0.2340000000000001
7,17,33,1,12,0.6300000000000003,2,6,45,91,58,102,2.4400000000000017,1.8000000000000014,0.5800000000000003,0.8300000000000005,6,4,3,3,12,7,4,6,5,0,14,7,L,0.2033333333333334,0.25714285714285723,0.14500000000000002,0.13833333333333334
7,17,34,1,3,1.0500000000000007,3,5,27,2,72,26,3.749999999999987,0.6300000000000003,0.3100000000000001,0.2700000000000001,9,1,2,2,14,1,2,2,5,0,20,7,L,0.26785714285714296,0.6300000000000003,0.15500000000000003,0.13500000000000004
7,18,35,1,7,1.6400000000000012,3,7,91,116,40,6,3.2600000000000025,0.9300000000000006,1.1300000000000008,1.370000000000001,6,2,4,4,11,2,5,8,6,0,16,7,L,0.2963636363636365,0.46500000000000025,0.22600000000000006,0.17125000000000004
7,18,36,1,1,0.2900000000000001,1,2,80,79,76,105,3.009999999999986,0.5700000000000003,1.260000000000001,0.6500000000000004,7,3,3,2,16,4,5,2,3,0.5,20,7,L,0.18812500000000007,0.14250000000000002,0.25200000000000006,0.3250000000000001
7,19,37,1,1,0.6800000000000004,3,7,8,78,67,75,2.600000000000002,0.8100000000000005,2.0300000000000007,0.13999999999999999,6,3,6,1,12,3,6,1,3,0,16,7,L,0.21666666666666676,0.27000000000000013,0.3383333333333335,0.13999999999999999
7,19,38,1,15,1.0400000000000007,2,6,19,96,112,87,5.6299999999999475,0.19000000000000003,0.8600000000000005,0.5600000000000003,13,1,3,2,22,1,4,2,6,0,14,7,L,0.25590909090909103,0.19000000000000003,0.21500000000000005,0.28000000000000014
7,20,39,1,8,0.5600000000000003,2,4,20,14,81,35,3.6799999999999775,0.8900000000000006,0.4400000000000002,0.8200000000000005,8,4,1,1,14,4,1,1,2,0,20,7,L,0.26285714285714296,0.22250000000000006,0.4400000000000002,0.8200000000000005
7,20,40,1,12,0.48000000000000026,2,3,45,65,96,61,2.0100000000000016,2.4999999999999907,0.4300000000000002,0.6100000000000003,3,5,2,2,4,7,2,3,5,0,16,7,L,0.5025000000000003,0.3571428571428573,0.21500000000000008,0.2033333333333334
7,21,41,1,1,0.5200000000000002,2,3,104,18,73,41,5.299999999999943,0.22000000000000006,0.12999999999999998,0.24000000000000007,9,1,1,2,22,1,1,3,3,0,16,7,L,0.240909090909091,0.22000000000000006,0.12999999999999998,0.07999999999999999
7,21,42,1,14,1.280000000000001,4,8,30,96,3,35,3.6899999999999933,0.5500000000000003,0.5900000000000003,1.370000000000001,8,2,1,3,13,2,1,3,3,0,19,7,L,0.28384615384615397,0.27500000000000013,0.5900000000000003,0.4566666666666669
8,1,1,0,1,1.1600000000000008,2,9,82,44,46,6,1.9200000000000013,1.280000000000001,0.6100000000000003,0.6900000000000004,4,3,2,2,13,8,3,6,3,0,19,7,L,0.14769230769230773,0.16000000000000006,0.2033333333333334,0.11500000000000002
8,1,2,0,10,0.9500000000000006,13,13,86,92,36,29,2.640000000000002,0.2700000000000001,0.5900000000000003,0.18000000000000002,15,1,2,2,20,1,4,2,3,0,16,7,L,0.13200000000000003,0.2700000000000001,0.14750000000000002,0.09
8,2,3,0,9,0.5000000000000002,2,7,69,19,17,93,1.2600000000000007,0.8000000000000005,0.5500000000000003,0.48000000000000026,4,2,2,2,13,7,3,2,4,0,19,7,L,0.09692307692307693,0.1142857142857143,0.18333333333333335,0.24000000000000005
8,2,4,0,8,0.9300000000000006,2,10,111,44,52,11,2.730000000000002,0.4000000000000002,0.22000000000000006,0.26000000000000006,4,2,1,2,22,3,1,2,2,0,17,7,L,0.12409090909090911,0.13333333333333336,0.22000000000000006,0.13000000000000003
8,3,5,0,1,0.8700000000000006,2,9,78,114,112,17,1.0600000000000005,2.4599999999999915,0.7200000000000004,5.1099999999999355,3,3,2,7,10,7,6,30,3,0,13,7,L,0.106,0.3514285714285716,0.12000000000000004,0.1703333333333334
8,3,6,0,2,0.49000000000000027,5,6,12,56,90,60,9.239999999999858,0.01,0.01,0.01,14,1,1,1,53,1,1,1,4,0,17,7,L,0.17433962264150948,0.01,0.01,0.01
8,4,7,0,3,1.290000000000001,16,18,21,25,84,79,2.4400000000000017,0.13999999999999999,0.8700000000000006,0.4200000000000002,18,1,2,2,27,1,7,2,5,0,17,7,L,0.09037037037037038,0.13999999999999999,0.12428571428571429,0.21000000000000005
8,4,8,0,4,0.4100000000000002,2,3,104,58,52,103,1.9700000000000013,0.34000000000000014,0.2900000000000001,0.20000000000000004,4,2,1,2,13,2,1,2,2,0,12,7,L,0.15153846153846157,0.17000000000000007,0.2900000000000001,0.09999999999999999
8,5,9,0,6,1.9300000000000015,16,23,7,88,29,62,2.1400000000000015,0.7600000000000005,0.2700000000000001,1.7100000000000013,18,2,2,3,25,3,2,9,6,0,18,7,L,0.08560000000000001,0.25333333333333347,0.13500000000000004,0.19000000000000006
8,5,10,0,1,0.9800000000000006,2,7,84,81,52,113,1.5000000000000009,1.5700000000000012,0.36000000000000015,0.26000000000000006,4,2,2,2,11,7,2,5,3,0,12,7,L,0.13636363636363638,0.22428571428571437,0.18000000000000002,0.052
8,6,11,0,8,0.8300000000000005,3,6,110,10,9,120,1.9400000000000013,0.6400000000000003,0.5100000000000002,0.15,5,3,3,1,14,6,7,1,2,0,16,7,L,0.1385714285714286,0.10666666666666667,0.07285714285714286,0.15
8,6,12,0,5,0.6300000000000003,2,6,46,48,92,43,0.9500000000000004,0.9100000000000006,1.5200000000000011,0.18000000000000002,4,2,2,2,8,3,10,2,5,0.5,33,7,L,0.11875000000000002,0.30333333333333345,0.15200000000000002,0.09000000000000001
8,7,13,1,14,1.5500000000000012,16,21,90,25,112,120,2.490000000000002,0.8700000000000006,4.319999999999952,1.320000000000001,18,2,4,3,25,5,20,6,3,0,12,7,L,0.09960000000000002,0.17400000000000004,0.21600000000000008,0.22000000000000008
8,7,14,1,12,0.48000000000000026,2,5,39,83,70,1,1.520000000000001,1.6800000000000013,0.18000000000000002,0.09999999999999999,4,3,2,1,9,14,2,1,5,0,18,7,L,0.16888888888888895,0.12000000000000001,0.09,0.09999999999999999
8,8,15,1,15,0.9000000000000006,3,11,15,22,113,14,1.2600000000000007,0.2700000000000001,0.8200000000000005,0.6500000000000004,4,1,1,2,12,1,1,4,6,0.5,38,7,L,0.10500000000000001,0.2700000000000001,0.8200000000000005,0.16250000000000003
8,8,16,1,3,1.6000000000000012,2,10,29,30,1,98,2.640000000000002,1.1500000000000008,0.6200000000000003,0.19000000000000003,4,2,2,2,20,7,2,2,5,0,18,7,L,0.132,0.16428571428571434,0.3100000000000001,0.095
8,9,17,1,13,1.6100000000000012,2,11,112,117,25,70,2.2600000000000016,0.49000000000000027,0.8800000000000006,0.34000000000000014,4,2,2,2,13,5,6,2,2,0,13,7,L,0.17384615384615387,0.09800000000000003,0.14666666666666667,0.17
8,9,18,1,8,0.7000000000000004,2,6,101,106,102,21,2.3600000000000017,0.38000000000000017,0.46000000000000024,0.5400000000000003,4,2,2,1,14,3,2,1,2,0.5,18,7,L,0.16857142857142862,0.1266666666666667,0.23000000000000004,0.5400000000000003
8,10,19,1,15,0.8500000000000005,2,4,18,34,98,106,1.8200000000000012,0.6900000000000004,0.9200000000000006,0.7900000000000005,4,2,2,3,10,4,3,6,6,0,15,7,L,0.18200000000000005,0.17250000000000004,0.30666666666666675,0.13166666666666668
8,10,20,1,11,0.9100000000000006,13,14,114,118,111,2,7.489999999999904,1.8400000000000014,0.01,0.6100000000000003,18,4,1,5,40,4,1,6,4,0.5,18,7,L,0.18725000000000006,0.4600000000000003,0.01,0.10166666666666667
8,11,21,1,7,0.6400000000000003,2,3,11,1,70,66,1.530000000000001,0.48000000000000026,0.9800000000000006,0.26000000000000006,4,2,2,1,7,4,6,1,6,0,20,7,L,0.21857142857142864,0.12000000000000002,0.16333333333333339,0.26000000000000006
8,11,22,1,15,0.6000000000000003,2,7,13,50,52,40,6.239999999999925,0.04,0.02,0.060000000000000005,6,1,1,1,32,1,1,1,6,0,19,7,L,0.19500000000000006,0.04,0.02,0.060000000000000005
8,12,23,1,12,0.7100000000000004,2,5,42,44,58,56,1.8200000000000012,0.7000000000000004,1.360000000000001,0.18000000000000002,4,2,6,1,13,5,8,1,5,0,18,7,L,0.14,0.14,0.17000000000000004,0.18000000000000002
8,12,24,1,11,1.0300000000000007,2,6,62,112,72,76,1.560000000000001,1.320000000000001,0.8800000000000006,0.5700000000000003,4,3,2,2,10,6,5,4,4,0,13,7,L,0.15600000000000003,0.22000000000000008,0.17600000000000002,0.14250000000000002
8,13,25,1,11,0.7700000000000005,7,10,69,65,39,80,1.8300000000000012,0.23000000000000007,0.37000000000000016,1.2500000000000009,9,1,2,2,16,1,2,12,4,0,16,7,L,0.11437500000000002,0.23000000000000007,0.18500000000000005,0.10416666666666666
8,13,26,1,8,0.6700000000000004,2,7,104,106,26,34,1.2500000000000007,0.5800000000000003,0.9100000000000006,0.35000000000000014,4,2,2,2,10,3,5,2,2,0,14,7,L,0.125,0.19333333333333338,0.18200000000000005,0.17500000000000007
8,14,27,1,8,0.45000000000000023,2,3,100,97,68,102,1.1600000000000006,1.1600000000000008,0.47000000000000025,0.48000000000000026,4,2,2,3,9,6,4,6,2,0.5,16,7,L,0.12888888888888891,0.19333333333333338,0.11750000000000002,0.08
8,14,28,1,1,1.5900000000000012,19,27,76,47,23,16,2.640000000000002,1.0900000000000007,0.6600000000000004,0.5200000000000002,20,2,2,2,32,4,4,4,3,0,20,7,L,0.08250000000000002,0.2725000000000001,0.165,0.13
8,15,29,1,2,1.2200000000000009,2,11,58,55,112,52,1.8100000000000012,1.260000000000001,0.8300000000000005,0.9200000000000006,4,3,3,4,15,11,7,6,4,0.5,26,7,L,0.12066666666666669,0.11454545454545455,0.11857142857142859,0.15333333333333338
8,15,30,1,11,0.34000000000000014,4,4,18,23,76,77,25.780000000001177,0.01,0.01,0.01,20,1,1,1,113,1,1,1,4,0,18,7,L,0.22814159292035407,0.01,0.01,0.01
8,16,31,1,1,1.2200000000000009,2,10,42,74,47,84,2.3800000000000017,0.17,0.7100000000000004,0.19000000000000003,5,1,2,1,18,1,3,1,3,0,16,7,L,0.13222222222222224,0.17,0.23666666666666678,0.19000000000000003
8,16,32,1,14,0.49000000000000027,8,8,91,94,119,110,1.8000000000000012,0.6200000000000003,0.6600000000000004,1.5300000000000011,10,2,2,4,15,7,2,6,3,0,10,7,L,0.12000000000000002,0.08857142857142858,0.3300000000000001,0.2550000000000001
8,17,33,1,12,0.6200000000000003,2,4,40,53,60,84,0.9700000000000004,1.5400000000000011,0.4400000000000002,0.5600000000000003,4,3,1,2,7,14,1,4,5,0,16,7,L,0.1385714285714286,0.11000000000000001,0.4400000000000002,0.14
8,17,34,1,14,0.9500000000000006,2,8,92,95,61,64,1.1500000000000006,1.310000000000001,1.290000000000001,0.20000000000000004,3,5,3,2,9,8,10,2,3,0,14,7,L,0.1277777777777778,0.16375000000000003,0.129,0.09999999999999999
8,18,35,1,2,0.6000000000000003,2,3,96,28,97,2,3.6799999999999784,0.4200000000000002,0.20000000000000004,0.18000000000000002,5,3,1,2,15,4,1,2,4,0,16,7,L,0.24533333333333343,0.105,0.20000000000000004,0.09
8,18,36,1,13,0.25000000000000006,3,3,44,77,62,83,10.399999999999828,0.01,0.01,0.01,15,1,1,1,44,1,1,1,2,0,15,7,L,0.23636363636363647,0.01,0.01,0.01
8,19,37,1,12,0.7700000000000005,10,10,49,39,41,60,3.7699999999999805,0.7300000000000004,0.05,0.18000000000000002,13,2,1,1,25,2,1,1,5,0,18,7,L,0.15080000000000002,0.36500000000000016,0.05,0.18000000000000002
8,19,38,1,3,0.13999999999999999,2,2,13,74,33,72,12.499999999999782,0.01,0.01,0.01,19,1,1,1,72,1,1,1,5,0,18,7,L,0.17361111111111116,0.01,0.01,0.01
8,20,39,1,13,0.7000000000000004,9,9,118,62,6,2,1.3500000000000008,4.459999999999949,3.3599999999999723,0.05,11,4,10,3,12,21,23,3,2,0,18,7,L,0.11250000000000003,0.21238095238095245,0.14608695652173917,0.016666666666666666
8,20,40,1,8,0.8800000000000006,2,7,105,107,50,48,1.620000000000001,0.3900000000000002,1.1800000000000008,0.11999999999999998,4,1,2,1,9,1,11,1,2,0,13,7,L,0.18000000000000005,0.3900000000000002,0.10727272727272728,0.11999999999999998
8,21,41,1,13,1.6800000000000013,17,24,112,34,120,29,2.820000000000002,0.7300000000000004,4.009999999999959,0.5800000000000003,19,2,5,4,30,2,22,4,2,0,14,7,L,0.094,0.36500000000000016,0.1822727272727273,0.14500000000000005
8,21,42,1,12,1.5500000000000012,19,24,92,91,37,14,2.2000000000000015,1.340000000000001,1.0400000000000007,3.749999999999964,20,2,2,5,25,16,4,23,5,0,17,7,L,0.08800000000000001,0.08375,0.2600000000000001,0.16304347826086962
9,1,1,0,7,1.9200000000000015,2,9,18,48,38,13,4.849999999999983,3.1099999999999777,2.4499999999999917,6.379999999999908,5,3,3,6,21,14,9,17,6,0,22,7,L,0.23095238095238105,0.22214285714285723,0.27222222222222237,0.375294117647059
9,1,2,0,1,1.480000000000001,9,11,83,74,26,4,4.99999999999997,1.1100000000000008,0.8200000000000005,12.559999999999777,11,2,3,9,25,5,3,38,3,0,17,7,L,0.20000000000000007,0.22200000000000006,0.27333333333333343,0.3305263157894738
9,2,3,0,3,0.8800000000000006,2,4,30,93,85,12,5.3199999999999505,2.9299999999999815,0.5700000000000003,0.5300000000000002,6,2,2,2,20,14,3,3,5,0,17,7,L,0.2660000000000001,0.20928571428571435,0.19000000000000006,0.1766666666666667
9,2,4,0,1,1.9600000000000015,2,9,21,75,82,22,6.049999999999959,0.8800000000000006,0.4100000000000002,0.46000000000000024,5,2,2,1,22,4,3,1,3,0,18,7,L,0.2750000000000001,0.22000000000000006,0.1366666666666667,0.46000000000000024
9,3,5,0,4,0.9000000000000006,9,9,53,4,83,77,5.3699999999999495,0.5100000000000002,10.469999999999821,0.7900000000000005,13,1,8,2,24,1,29,5,2,0,16,7,L,0.2237500000000001,0.5100000000000002,0.3610344827586209,0.15800000000000006
9,3,6,0,10,0.8200000000000005,2,4,88,62,95,15,3.7899999999999814,9.279999999999847,0.060000000000000005,1.7400000000000013,4,5,1,3,20,33,1,7,3,0,16,7,L,0.18950000000000006,0.2812121212121213,0.060000000000000005,0.24857142857142867
9,4,7,0,8,1.390000000000001,2,6,75,42,78,48,7.189999999999921,1.0000000000000007,0.37000000000000016,1.1600000000000008,5,2,1,2,28,2,1,2,2,0,16,7,L,0.2567857142857144,0.5000000000000002,0.37000000000000016,0.5800000000000003
9,4,8,0,7,0.8800000000000006,11,12,16,22,32,61,4.579999999999965,3.049999999999979,0.7300000000000004,1.470000000000001,13,6,2,2,25,17,2,8,6,0,21,7,L,0.18320000000000006,0.1794117647058824,0.36500000000000016,0.18375000000000005
9,5,9,0,10,1.5400000000000011,3,10,85,19,41,39,3.1400000000000023,3.5299999999999687,2.9799999999999804,0.6800000000000004,5,4,5,2,13,12,19,8,3,0,19,7,L,0.24153846153846165,0.2941666666666668,0.15684210526315792,0.08499999999999999
9,5,10,0,3,2.159999999999998,2,12,25,33,12,63,3.6999999999999993,3.369999999999972,0.7300000000000004,0.5000000000000002,4,3,2,1,20,11,3,1,5,0,20,7,L,0.18500000000000005,0.3063636363636365,0.24333333333333343,0.5000000000000002
9,6,11,0,3,1.1100000000000008,3,5,87,63,69,30,6.449999999999932,0.34000000000000014,0.3100000000000001,1.370000000000001,8,1,1,3,24,1,1,4,5,0,16,7,L,0.2687500000000001,0.34000000000000014,0.3100000000000001,0.3425000000000002
9,6,12,0,5,0.9000000000000006,2,7,43,113,45,48,4.229999999999974,2.859999999999983,1.0900000000000007,0.26000000000000006,5,3,2,1,17,13,10,1,5,0.5,32,7,L,0.2488235294117648,0.22000000000000008,0.10900000000000001,0.26000000000000006
9,7,13,1,13,0.9600000000000006,2,5,120,91,118,117,4.549999999999968,1.490000000000001,0.5800000000000003,1.300000000000001,4,2,2,2,23,3,3,6,2,0.5,15,7,L,0.1978260869565218,0.4966666666666669,0.19333333333333338,0.21666666666666673
9,7,14,1,12,0.6800000000000004,2,4,47,77,41,104,1.4300000000000008,3.2499999999999747,1.490000000000001,1.6900000000000013,4,3,2,3,6,14,7,4,5,0,15,7,L,0.23833333333333345,0.23214285714285723,0.2128571428571429,0.4225000000000002
9,8,15,1,13,1.7200000000000013,2,11,110,109,86,112,5.3599999999999675,0.7200000000000004,1.0000000000000007,0.4100000000000002,4,2,2,2,25,3,4,2,2,0.5,15,7,L,0.21440000000000006,0.24000000000000007,0.2500000000000001,0.20500000000000007
9,8,16,1,8,1.5100000000000011,2,7,106,104,80,83,3.719999999999998,1.480000000000001,2.849999999999983,0.38000000000000017,6,2,7,1,17,3,12,1,2,0,10,7,L,0.21882352941176478,0.49333333333333357,0.2375000000000001,0.38000000000000017
9,9,17,1,7,1.6600000000000013,2,7,90,1,3,109,6.089999999999951,0.3200000000000001,2.7499999999999853,6.039999999999916,5,1,3,4,22,1,8,17,6,0,17,7,L,0.2768181818181819,0.3200000000000001,0.3437500000000001,0.355294117647059
9,9,18,1,8,1.6100000000000012,17,19,52,41,51,76,8.179999999999906,0.9800000000000006,5.279999999999932,0.7300000000000004,20,2,5,2,39,6,20,2,2,0,16,7,L,0.20974358974358984,0.16333333333333339,0.2640000000000001,0.36500000000000016
9,10,19,1,8,1.7900000000000014,20,25,98,79,77,101,4.149999999999995,4.209999999999955,0.6700000000000004,2.109999999999999,20,5,2,3,33,16,2,5,2,0,10,7,L,0.1257575757575758,0.2631250000000001,0.33500000000000013,0.4220000000000002
9,10,20,1,11,0.8400000000000005,2,4,48,114,71,113,6.599999999999922,0.5400000000000003,0.3100000000000001,1.0500000000000007,9,1,2,3,25,1,3,6,4,0,13,7,L,0.2640000000000001,0.5400000000000003,0.10333333333333333,0.17500000000000004
9,11,21,1,7,0.9500000000000006,2,5,12,107,46,7,2.290000000000002,3.319999999999973,0.7700000000000005,0.5400000000000003,4,5,2,2,11,11,5,2,6,0,19,7,L,0.20818181818181825,0.30181818181818193,0.15400000000000005,0.2700000000000001
9,11,22,1,15,1.0000000000000007,2,6,16,114,113,89,1.710000000000001,2.809999999999984,0.9300000000000006,2.679999999999987,4,5,2,2,10,8,6,13,6,0,13,7,L,0.17100000000000004,0.3512500000000002,0.15500000000000005,0.20615384615384622
9,12,23,1,3,2.389999999999993,17,26,16,15,79,25,5.499999999999971,32.67000000000207,0.01,0.5700000000000003,19,19,1,3,41,98,1,3,5,0,20,7,L,0.13414634146341467,0.3333673469387757,0.01,0.19000000000000006
9,12,24,1,13,0.5900000000000003,5,5,2,45,44,10,17.8599999999999,0.01,0.07,0.01,16,1,1,1,66,1,1,1,2,0,22,7,L,0.27060606060606074,0.01,0.07,0.01
9,13,25,1,8,1.5900000000000012,2,8,46,2,76,105,6.219999999999947,1.2000000000000008,1.9500000000000015,0.37000000000000016,6,2,2,2,29,4,6,2,2,0,16,7,L,0.21448275862068972,0.3000000000000001,0.3250000000000001,0.18500000000000003
9,13,26,1,15,0.9100000000000006,13,13,113,36,54,93,8.799999999999876,3.1999999999999758,2.759999999999985,0.10999999999999999,20,5,4,2,46,12,12,2,6,0,14,7,L,0.19130434782608702,0.2666666666666668,0.2300000000000001,0.05500000000000001
9,14,27,1,15,0.21000000000000005,2,2,13,38,17,102,2.9899999999999847,1.0400000000000007,1.380000000000001,0.7600000000000005,4,3,2,2,9,5,6,3,6,0,19,7,L,0.33222222222222236,0.20800000000000007,0.23000000000000007,0.2533333333333334
9,14,28,1,11,2.7999999999999843,17,25,68,10,2,87,5.1799999999999775,1.5800000000000012,0.7400000000000004,1.430000000000001,20,3,2,3,34,9,2,3,4,0,19,7,L,0.15235294117647064,0.1755555555555556,0.37000000000000016,0.4766666666666669
9,15,29,1,15,1.2200000000000009,9,10,16,36,18,104,2.9300000000000024,1.450000000000001,4.469999999999949,3.3899999999999717,11,3,3,5,13,3,19,8,6,0,19,7,L,0.22538461538461546,0.4833333333333336,0.23526315789473692,0.42375000000000024
9,15,30,1,1,0.8700000000000006,2,4,83,76,41,43,2.4200000000000017,2.439999999999992,1.2500000000000009,1.0100000000000007,4,2,2,2,8,13,2,4,3,0,16,7,L,0.3025000000000001,0.18769230769230774,0.6250000000000004,0.25250000000000006
9,16,31,1,7,0.9300000000000006,9,10,8,4,78,42,2.5100000000000016,7.5499999999998835,3.5799999999999677,1.8100000000000014,11,9,5,3,14,25,9,7,6,0,20,7,L,0.17928571428571435,0.30200000000000016,0.397777777777778,0.2585714285714287
9,16,32,1,3,2.6999999999999864,2,16,21,19,22,107,10.029999999999875,6.059999999999915,0.03,0.02,8,7,1,1,40,22,1,1,5,0.5,38,7,L,0.2507500000000001,0.27545454545454556,0.03,0.02
9,17,33,1,2,0.5600000000000003,2,5,57,59,14,29,2.719999999999998,0.4400000000000002,2.6599999999999873,1.480000000000001,5,1,3,5,16,1,7,8,4,0,19,7,L,0.17000000000000004,0.4400000000000002,0.38000000000000017,0.18500000000000005
9,17,34,1,14,0.8900000000000006,11,12,96,97,39,95,3.159999999999996,6.099999999999914,0.6300000000000003,0.07,13,6,2,1,19,20,2,1,3,0,13,7,L,0.16631578947368425,0.30500000000000016,0.3150000000000001,0.07
9,18,35,1,12,0.9600000000000006,9,10,94,71,64,91,6.409999999999929,5.469999999999928,0.9400000000000006,0.16,15,6,2,2,24,17,2,2,5,0,14,7,L,0.26708333333333345,0.32176470588235306,0.4700000000000002,0.08
9,18,36,1,8,0.9200000000000006,2,8,26,100,19,14,6.719999999999922,0.37000000000000016,0.5100000000000002,0.3100000000000001,8,2,2,2,30,3,2,2,2,0,19,7,L,0.2240000000000001,0.12333333333333332,0.25500000000000006,0.15500000000000005
9,19,37,1,8,1.5500000000000012,2,5,107,88,6,31,4.479999999999983,1.9400000000000015,1.5900000000000012,0.5100000000000002,4,2,3,2,13,10,5,2,2,0,16,7,L,0.34461538461538477,0.19400000000000006,0.31800000000000017,0.2550000000000001
9,19,38,1,1,1.2400000000000009,12,15,74,82,13,23,4.309999999999979,3.92999999999996,1.0000000000000007,0.10999999999999999,16,5,3,2,24,12,3,2,3,0,18,7,L,0.1795833333333334,0.3275000000000001,0.3333333333333335,0.05499999999999999
9,20,39,1,13,0.6200000000000003,7,7,118,73,112,9,13.789999999999765,2.719999999999986,0.01,0.36000000000000015,13,3,1,2,38,14,1,2,2,0,13,7,L,0.3628947368421052,0.19428571428571434,0.01,0.18000000000000005
9,20,40,1,2,1.7300000000000013,14,16,52,98,96,40,4.459999999999987,2.0899999999999994,0.6800000000000004,0.5300000000000002,16,2,2,2,24,9,3,2,4,0,14,7,L,0.18583333333333338,0.2322222222222223,0.22666666666666674,0.26500000000000007
10,1,1,0,5,0.48000000000000026,2,3,37,8,6,42,10.009999999999842,2.4699999999999913,0.7300000000000004,0.22000000000000006,10,2,1,1,21,2,1,1,5,0,22,6,L,0.47666666666666685,1.2350000000000008,0.7300000000000004,0.22000000000000006
10,1,2,0,8,0.49000000000000027,2,4,24,20,15,75,11.00999999999982,0.8200000000000005,1.6600000000000013,2.159999999999998,9,1,3,3,18,1,4,7,2,0.5,39,6,L,0.6116666666666658,0.8200000000000005,0.4150000000000002,0.3085714285714287
10,2,3,0,2,0.16,2,2,13,51,110,44,41.1900000000004,0.01,0.02,0.04,20,1,1,1,67,1,1,1,4,0,17,6,L,0.6147761194029854,0.01,0.02,0.04
10,2,4,0,6,0.7600000000000005,2,3,30,10,4,2,15.829999999999723,1.7700000000000014,1.0500000000000007,0.36000000000000015,12,3,2,3,17,4,2,3,6,0.5,41,6,L,0.9311764705882327,0.4425000000000002,0.5250000000000002,0.12
10,3,5,0,1,0.34000000000000014,2,3,14,66,78,22,17.91999999999995,1.420000000000001,0.05,0.35000000000000014,12,3,1,1,28,4,1,1,3,0,19,6,L,0.6399999999999998,0.3550000000000002,0.05,0.35000000000000014
10,3,6,0,5,0.5800000000000003,2,4,41,47,54,11,2.799999999999997,1.6800000000000013,5.4399999999999284,1.9800000000000015,4,1,7,2,6,1,8,2,5,0,20,6,L,0.4666666666666667,1.6800000000000013,0.6800000000000004,0.9900000000000007
10,4,7,0,6,0.6900000000000004,2,4,11,7,39,6,6.52999999999992,2.06,3.1099999999999777,8.719999999999859,6,3,4,9,15,4,5,18,6,0.5,41,6,L,0.43533333333333357,0.5150000000000002,0.6220000000000003,0.4844444444444446
10,4,8,0,4,0.6000000000000003,2,5,75,107,64,66,8.049999999999885,5.029999999999937,1.430000000000001,1.8000000000000014,8,7,3,4,14,14,3,5,2,0,13,6,L,0.5750000000000004,0.35928571428571443,0.47666666666666696,0.36000000000000015
10,5,9,0,3,2.209999999999997,8,12,7,4,33,12,9.81999999999988,26.520000000001346,0.01,0.07,13,13,1,1,20,36,1,1,5,0.5,41,6,L,0.49099999999999944,0.7366666666666668,0.01,0.07
10,5,10,0,10,0.38000000000000017,2,3,85,89,21,90,7.659999999999889,3.149999999999977,3.00999999999998,0.15,13,4,1,1,24,5,1,1,3,0.5,24,6,L,0.3191666666666668,0.6300000000000004,3.00999999999998,0.15
10,6,11,1,3,0.5300000000000002,2,4,28,87,25,118,4.519999999999959,7.649999999999881,0.2700000000000001,2.3099999999999947,6,7,1,3,12,13,1,4,5,0,15,6,L,0.37666666666666687,0.5884615384615388,0.2700000000000001,0.5775000000000003
10,6,12,1,8,0.4400000000000002,2,3,105,53,76,82,3.4899999999999793,2.7999999999999843,6.589999999999904,0.6300000000000003,5,4,4,2,6,5,4,2,2,0,12,6,L,0.581666666666667,0.5600000000000003,1.6474999999999937,0.31500000000000017
10,7,13,1,8,0.15,2,2,1,36,107,106,43.95999999999985,0.01,0.01,0.45000000000000023,20,1,1,2,63,1,1,2,2,0,15,6,L,0.6977777777777775,0.01,0.01,0.22500000000000012
10,7,14,1,14,0.16,2,2,14,42,114,19,28.780000000001674,0.2700000000000001,0.05,0.13999999999999999,17,1,1,1,32,1,1,1,3,0,19,6,L,0.8993749999999986,0.2700000000000001,0.05,0.13999999999999999
10,8,15,1,3,0.9200000000000006,3,5,34,36,27,20,6.659999999999923,2.53999999999999,1.300000000000001,7.159999999999892,8,3,4,5,12,4,4,10,5,0.5,36,6,L,0.5549999999999993,0.6350000000000003,0.3250000000000001,0.7160000000000004
10,8,16,1,11,0.6100000000000003,2,3,64,39,86,71,6.759999999999914,5.039999999999937,0.49000000000000027,1.1400000000000008,7,5,2,2,12,9,2,2,4,0,16,6,L,0.5633333333333337,0.5600000000000003,0.24500000000000008,0.5700000000000003
10,9,17,1,12,0.2900000000000001,2,3,39,48,46,15,3.6999999999999713,6.349999999999909,0.4000000000000002,3.4099999999999713,5,6,2,6,9,8,2,6,5,0.5,36,6,L,0.4111111111111113,0.7937499999999995,0.20000000000000007,0.5683333333333337
10,9,18,1,3,0.9900000000000007,6,8,30,88,32,68,9.049999999999873,1.5700000000000012,0.7700000000000005,1.260000000000001,12,3,4,2,20,4,5,4,5,0,17,6,L,0.4525000000000001,0.3925000000000002,0.15400000000000003,0.3150000000000001
10,10,19,1,8,0.7000000000000004,2,4,108,93,90,105,10.439999999999838,0.8900000000000006,2.9799999999999804,0.34000000000000014,11,2,5,2,20,2,6,2,2,0,10,6,L,0.5219999999999998,0.4450000000000003,0.496666666666667,0.17
10,10,20,1,7,0.5900000000000003,2,4,1,75,116,113,11.689999999999808,6.099999999999914,1.0700000000000007,2.0899999999999994,11,6,3,3,20,6,4,3,6,0,13,6,L,0.5845000000000004,1.016666666666665,0.2675000000000001,0.6966666666666671
10,11,21,1,15,0.7500000000000004,2,4,21,75,77,53,4.7799999999999585,2.1799999999999975,1.5400000000000011,5.659999999999924,7,3,3,4,14,4,3,17,6,0,16,6,L,0.3414285714285716,0.5450000000000004,0.5133333333333336,0.3329411764705884
10,11,22,1,14,0.37000000000000016,2,4,5,113,111,89,12.729999999999782,2.0899999999999994,1.0000000000000007,0.7300000000000004,9,2,3,3,21,2,4,3,3,0,13,6,L,0.6061904761904756,1.0450000000000008,0.25000000000000006,0.2433333333333334
10,12,23,1,14,0.48000000000000026,3,6,55,92,91,56,3.6199999999999775,0.8900000000000006,7.509999999999884,3.519999999999969,5,1,6,6,11,1,11,8,3,0,14,6,L,0.32909090909090927,0.8900000000000006,0.6827272727272702,0.4400000000000002
10,12,24,1,8,0.8900000000000006,2,7,100,1,105,4,3.299999999999993,8.519999999999863,0.4200000000000002,1.290000000000001,4,10,1,3,10,13,1,3,2,0,16,6,L,0.3300000000000002,0.6553846153846158,0.4200000000000002,0.4300000000000002
10,13,25,1,12,0.09999999999999999,2,2,13,37,88,104,134.96000000002232,0.7000000000000004,1.490000000000001,0.01,20,2,2,1,188,2,2,1,5,0,16,6,L,0.7178723404255315,0.3500000000000002,0.7450000000000006,0.01
10,13,26,1,7,0.5800000000000003,2,5,11,5,1,3,4.409999999999963,4.569999999999947,0.9400000000000006,1.5300000000000011,9,6,2,2,16,9,2,2,6,1,72,6,L,0.2756250000000001,0.5077777777777781,0.4700000000000002,0.7650000000000005
10,14,27,1,3,0.3900000000000002,2,3,29,81,102,60,4.34999999999996,3.2599999999999745,0.6600000000000004,0.8100000000000005,6,5,1,1,11,7,1,1,5,0,14,6,L,0.39545454545454567,0.465714285714286,0.6600000000000004,0.8100000000000005
10,14,28,1,14,0.9300000000000006,3,5,38,91,43,110,5.629999999999945,5.81999999999992,0.7700000000000005,1.0500000000000007,5,4,3,2,7,5,3,3,3,0,15,6,L,0.8042857142857106,1.1639999999999942,0.25666666666666677,0.35000000000000014
10,15,29,1,8,0.26000000000000006,2,3,99,105,104,108,12.829999999999776,0.11999999999999998,1.9900000000000015,0.7400000000000004,10,1,2,2,14,1,2,2,2,1,24,6,L,0.9164285714285706,0.11999999999999998,0.9950000000000008,0.3700000000000002
10,15,30,1,12,0.7700000000000005,2,4,52,38,53,57,6.759999999999917,6.6599999999999024,0.20000000000000004,1.5900000000000012,8,6,1,2,12,7,1,2,5,0.5,29,6,L,0.5633333333333337,0.9514285714285721,0.20000000000000004,0.7950000000000005
10,16,31,1,2,0.5300000000000002,2,3,58,51,97,50,3.9999999999999702,4.929999999999939,0.5400000000000003,0.3300000000000001,5,6,1,1,7,7,1,1,4,0.5,26,6,L,0.5714285714285717,0.7042857142857147,0.5400000000000003,0.3300000000000001
10,16,32,1,14,0.37000000000000016,2,4,90,96,91,72,1.530000000000001,0.8100000000000005,9.489999999999842,4.329999999999952,4,1,9,5,8,2,18,5,3,0.5,22,6,L,0.19125000000000006,0.4050000000000002,0.5272222222222224,0.8660000000000005
10,17,33,1,1,0.2700000000000001,2,3,80,26,75,36,6.909999999999903,6.919999999999897,0.5600000000000003,0.45000000000000023,13,10,2,2,20,11,2,2,3,0,16,6,L,0.3455000000000002,0.6290909090909095,0.28000000000000014,0.22500000000000003
10,17,34,1,12,4.489999999999949,3,6,37,87,42,49,13.07999999999981,0.2800000000000001,0.7900000000000005,1.7700000000000014,9,1,2,2,23,1,4,3,5,0,17,6,L,0.5686956521739114,0.2800000000000001,0.19750000000000006,0.5900000000000003
10,18,35,1,14,0.6200000000000003,2,5,95,58,90,86,7.86999999999989,6.30999999999991,0.2800000000000001,0.2800000000000001,10,6,2,2,17,7,2,2,3,0.5,22,6,L,0.46294117647058847,0.901428571428572,0.14,0.14000000000000004
10,18,36,1,13,0.3100000000000001,2,3,74,120,34,80,1.8700000000000012,2.1699999999999977,4.479999999999949,0.7300000000000004,4,3,6,2,5,5,7,3,2,0,13,6,L,0.3740000000000002,0.4340000000000002,0.6400000000000005,0.2433333333333334
11,1,1,0,2,1.0300000000000007,2,3,16,53,95,117,15.229999999999743,1.460000000000001,0.9100000000000006,0.7200000000000004,12,2,1,1,26,2,1,1,4,0,15,6,L,0.5857692307692312,0.7300000000000004,0.9100000000000006,0.7200000000000004
11,1,2,0,6,0.9500000000000006,2,5,3,9,27,12,5.589999999999947,11.829999999999792,1.7500000000000013,29.130000000001754,7,8,2,15,12,14,3,26,6,0.5,41,6,L,0.4658333333333336,0.8449999999999994,0.5833333333333336,1.1203846153846115
11,2,3,0,9,0.6100000000000003,2,3,62,64,65,81,6.089999999999928,7.5499999999998835,0.37000000000000016,2.959999999999981,8,6,1,4,13,7,1,5,4,0.5,27,6,L,0.4684615384615387,1.0785714285714232,0.37000000000000016,0.5920000000000001
11,2,4,0,2,0.20000000000000004,2,3,17,27,95,106,30.030000000001863,0.060000000000000005,0.09,0.19000000000000003,16,1,1,1,42,1,1,1,4,0,16,6,L,0.7149999999999985,0.060000000000000005,0.09,0.19000000000000003
11,3,5,0,4,0.9000000000000006,2,4,98,58,106,104,12.3499999999998,3.4999999999999694,0.4200000000000002,0.4200000000000002,13,5,1,1,20,7,2,1,2,0.5,16,6,L,0.6174999999999994,0.5000000000000003,0.21000000000000002,0.4200000000000002
11,3,6,0,3,0.8600000000000005,2,3,34,30,120,119,11.089999999999828,4.209999999999955,0.5400000000000003,2.6999999999999864,10,6,1,5,13,8,1,6,5,0,14,6,L,0.8530769230769213,0.5262500000000003,0.5400000000000003,0.45000000000000023
11,4,7,0,6,0.7600000000000005,2,4,2,10,7,52,26.220000000001182,0.03,0.05,0.6100000000000003,16,1,1,2,37,1,1,2,6,0.5,40,6,L,0.7086486486486487,0.03,0.05,0.3050000000000001
11,4,8,0,10,0.5400000000000003,2,3,18,31,14,67,12.0299999999998,0.8700000000000006,2.7499999999999853,1.6300000000000012,9,2,4,1,21,3,4,1,3,0,21,6,L,0.5728571428571432,0.29000000000000015,0.6875000000000004,1.6300000000000012
11,5,9,0,6,1.290000000000001,2,6,1,108,73,33,51.8999999999985,0.13999999999999999,0.02,0.03,20,1,1,1,80,1,1,1,6,0,16,6,L,0.6487499999999992,0.13999999999999999,0.02,0.03
11,5,10,0,10,0.9000000000000006,2,3,91,94,116,62,11.42999999999982,8.16999999999987,3.789999999999963,5.879999999999919,11,11,4,7,18,14,6,11,3,0,12,6,L,0.6349999999999982,0.583571428571429,0.631666666666667,0.5345454545454547
11,6,11,1,8,0.7300000000000004,3,5,82,104,77,101,18.750000000000018,2.0899999999999994,0.38000000000000017,0.20000000000000004,18,5,1,2,31,8,1,2,2,0,10,6,L,0.6048387096774193,0.2612500000000001,0.38000000000000017,0.1
11,6,12,1,2,0.6100000000000003,2,3,22,60,116,95,9.489999999999856,2.1799999999999975,2.6599999999999873,2.1199999999999988,8,3,3,2,11,3,5,2,4,0,15,6,L,0.8627272727272699,0.7266666666666671,0.5320000000000003,1.0600000000000007
11,7,13,1,3,0.16,2,2,15,83,28,65,20.930000000000447,0.2800000000000001,0.11999999999999998,0.3200000000000001,13,2,1,1,24,2,1,1,5,0,18,6,L,0.872083333333331,0.14,0.11999999999999998,0.3200000000000001
11,7,14,1,2,0.8300000000000005,2,3,42,60,40,59,8.449999999999882,1.5900000000000012,3.619999999999967,3.3599999999999723,10,2,7,4,15,3,7,5,4,0,18,6,L,0.5633333333333328,0.5300000000000002,0.5171428571428575,0.6720000000000004
11,8,15,1,14,0.9800000000000006,3,7,90,88,40,38,6.149999999999935,5.82999999999992,0.9200000000000006,1.6000000000000012,9,6,2,3,18,12,2,3,3,0,16,6,L,0.34166666666666684,0.4858333333333336,0.46000000000000024,0.5333333333333337
11,8,16,1,11,2.239999999999996,5,11,74,67,27,62,9.449999999999887,2.0400000000000005,2.569999999999989,2.389999999999993,11,2,4,5,18,5,6,7,4,0,16,6,L,0.5250000000000004,0.4080000000000002,0.42833333333333357,0.3414285714285716
11,9,17,1,11,0.5500000000000003,2,3,38,65,68,86,8.119999999999884,2.3199999999999945,0.5000000000000002,1.5200000000000011,12,3,1,2,17,3,1,3,4,0,16,6,L,0.47764705882352965,0.7733333333333338,0.5000000000000002,0.5066666666666669
11,9,18,1,3,0.13999999999999999,2,2,4,102,55,53,65.48999999999653,0.03,0.02,0.01,20,1,1,1,95,1,1,1,5,0,16,6,L,0.6893684210526314,0.03,0.02,0.01
11,10,19,1,12,0.8000000000000005,3,4,64,93,71,42,9.709999999999855,2.9799999999999804,2.6099999999999883,2.0300000000000007,12,3,4,3,20,3,4,3,5,0,16,6,L,0.48550000000000026,0.993333333333334,0.6525000000000004,0.6766666666666671
11,10,20,1,13,0.8300000000000005,2,3,119,50,53,35,10.489999999999839,4.269999999999953,3.6799999999999655,1.8300000000000014,13,5,3,2,21,5,3,2,2,0,15,6,L,0.4995238095238098,0.8539999999999994,1.2266666666666588,0.9150000000000006
11,11,21,1,15,1.8300000000000014,2,9,45,96,88,55,7.029999999999935,3.5399999999999685,2.479999999999991,0.7700000000000005,7,3,3,1,20,6,4,1,6,0,15,6,L,0.35150000000000015,0.5900000000000004,0.6200000000000003,0.7700000000000005
11,11,22,1,7,0.4100000000000002,2,3,12,10,110,36,2.47,13.979999999999746,2.2199999999999966,1.1100000000000008,3,12,3,2,4,24,5,2,6,0,19,6,L,0.6175,0.5824999999999987,0.44400000000000023,0.5550000000000004
11,12,23,1,14,3.559999999999968,4,10,85,45,104,103,10.899999999999856,0.8900000000000006,1.8100000000000014,1.9400000000000015,10,1,3,3,20,1,4,3,3,0,12,6,L,0.5450000000000002,0.8900000000000006,0.45250000000000024,0.6466666666666671
11,12,24,1,15,0.7100000000000004,4,5,56,18,16,57,7.859999999999893,1.9200000000000015,2.5199999999999902,1.6600000000000013,12,2,3,5,14,3,4,5,6,0,20,6,L,0.5614285714285718,0.6400000000000003,0.6300000000000003,0.3320000000000002
11,13,25,1,2,0.5100000000000002,1,2,54,45,23,50,8.499999999999874,2.349999999999994,6.649999999999903,0.5800000000000003,7,3,9,2,11,4,13,2,4,0,19,6,L,0.7727272727272708,0.5875000000000004,0.5115384615384618,0.2900000000000001
11,13,26,1,7,1.290000000000001,4,8,97,81,99,7,18.18999999999984,5.509999999999927,0.19000000000000003,0.04,17,6,1,1,35,13,1,1,6,0,13,6,L,0.5197142857142856,0.4238461538461541,0.19000000000000003,0.04
11,14,27,1,14,0.7000000000000004,2,3,6,120,10,111,7.359999999999903,2.6399999999999877,1.330000000000001,1.260000000000001,7,3,3,2,14,3,3,2,3,0,16,6,L,0.5257142857142858,0.8800000000000006,0.4433333333333336,0.6300000000000003
11,14,28,1,15,1.0800000000000007,2,3,102,24,105,18,13.999999999999769,0.5800000000000003,0.8100000000000005,3.7399999999999642,12,1,1,2,22,1,1,2,6,0,16,6,L,0.6363636363636361,0.5800000000000003,0.8100000000000005,1.8699999999999857
11,15,29,1,2,0.6900000000000004,2,3,18,58,103,78,16.609999999999705,6.489999999999906,5.679999999999923,3.889999999999961,15,6,4,3,22,11,5,3,4,0,15,6,L,0.7549999999999992,0.5900000000000004,1.1359999999999952,1.2966666666666582
11,15,30,1,7,0.9800000000000006,2,4,114,85,6,86,14.959999999999747,1.290000000000001,3.2099999999999755,4.859999999999941,11,4,2,3,20,4,2,3,6,0,14,6,L,0.7479999999999982,0.3225000000000002,1.604999999999995,1.619999999999985
11,16,31,1,2,1.5600000000000012,3,6,14,100,22,84,11.009999999999843,0.8000000000000005,0.5800000000000003,2.1399999999999983,14,1,1,3,23,1,1,6,4,0,17,6,L,0.4786956521739133,0.8000000000000005,0.5800000000000003,0.35666666666666685
11,16,32,1,13,0.9300000000000006,2,3,11,8,117,92,5.259999999999953,1.8300000000000014,6.429999999999907,0.38000000000000017,8,3,5,1,15,4,5,1,2,0,17,6,L,0.35066666666666685,0.45750000000000024,1.285999999999998,0.38000000000000017
11,17,33,1,1,1.420000000000001,2,4,83,84,78,25,11.06999999999984,3.2599999999999745,0.46000000000000024,2.8299999999999836,9,3,1,6,15,5,1,8,3,0.5,23,6,L,0.7380000000000002,0.6520000000000004,0.46000000000000024,0.3537500000000002
11,17,34,1,12,3.839999999999962,5,10,47,5,2,4,11.909999999999835,1.2200000000000009,0.9900000000000007,0.7000000000000004,15,2,3,3,22,2,3,3,5,0.5,41,6,L,0.5413636363636365,0.6100000000000003,0.3300000000000002,0.23333333333333342
11,18,35,1,14,0.7000000000000004,2,3,14,89,101,85,13.799999999999766,0.5500000000000003,2.0000000000000013,0.24000000000000007,12,1,3,1,20,2,3,1,3,0,14,6,L,0.6899999999999996,0.27500000000000013,0.6666666666666671,0.24000000000000007
11,18,36,1,1,1.360000000000001,3,8,79,8,49,10,12.029999999999818,2.3699999999999934,1.9700000000000015,0.23000000000000007,12,3,3,1,27,3,3,1,3,0,19,6,L,0.4455555555555558,0.7900000000000005,0.6566666666666671,0.23000000000000007
12,1,1,0,5,0.5100000000000002,2,30,40,39,113,112,2.1000000000000014,0.46000000000000024,0.24000000000000007,0.2800000000000001,4,2,2,2,94,13,11,10,5,0,14,7,L,0.022340425531914895,0.03538461538461538,0.02181818181818182,0.028
12,1,2,0,4,0.7400000000000004,2,29,105,106,9,28,2.330000000000002,0.5700000000000003,0.48000000000000026,0.060000000000000005,5,2,2,2,76,19,17,3,2,0,15,7,L,0.030657894736842106,0.03,0.02823529411764706,0.02
12,2,3,0,9,0.4000000000000002,2,9,64,88,29,63,1.750000000000001,1.420000000000001,0.05,0.02,4,3,2,1,61,39,3,1,4,0,16,7,L,0.028688524590163935,0.03641025641025641,0.016666666666666666,0.02
12,2,4,0,1,0.7100000000000004,2,28,73,104,79,83,2.0600000000000014,0.7600000000000005,0.22000000000000006,0.05,5,2,3,2,82,29,6,3,3,0.5,20,7,L,0.025121951219512197,0.02620689655172414,0.03666666666666667,0.016666666666666666
12,3,5,0,4,0.5800000000000003,2,21,106,98,15,87,2.0600000000000014,0.5000000000000002,0.4000000000000002,0.3000000000000001,4,2,3,3,75,19,19,12,2,0,13,7,L,0.027466666666666667,0.026315789473684213,0.021052631578947368,0.025
12,3,6,0,6,0.8500000000000005,2,34,7,34,6,111,2.2500000000000018,0.8400000000000005,1.5500000000000012,0.2700000000000001,4,2,5,5,80,29,53,10,6,0,19,7,L,0.028125,0.02896551724137931,0.029245283018867925,0.027
12,4,7,0,2,0.6900000000000004,2,27,56,2,95,106,2.1700000000000017,1.0900000000000007,0.4200000000000002,0.37000000000000016,4,2,4,3,75,24,13,9,4,0,15,7,L,0.028933333333333335,0.04541666666666667,0.03230769230769231,0.04111111111111111
12,4,8,0,5,0.36000000000000015,2,15,14,20,116,48,5.699999999999931,0.01,0.01,0.01,13,1,1,1,192,1,1,1,5,0,19,7,L,0.029687500000000002,0.01,0.01,0.01
12,5,9,0,3,0.7200000000000004,2,26,29,25,7,79,2.939999999999997,0.35000000000000014,0.5000000000000002,0.07,4,2,2,2,90,12,22,3,5,0,19,7,L,0.03266666666666667,0.029166666666666667,0.022727272727272728,0.023333333333333334
12,5,10,0,9,0.6000000000000003,2,24,68,71,72,24,2.1600000000000015,0.060000000000000005,0.46000000000000024,0.21000000000000005,4,1,2,2,73,1,16,7,4,0.5,30,7,L,0.02958904109589041,0.060000000000000005,0.02875,0.03
12,6,11,0,8,0.6700000000000004,2,21,112,12,8,110,1.7900000000000011,0.6100000000000003,0.4400000000000002,0.17,5,2,2,2,59,23,17,8,2,0,16,7,L,0.030338983050847458,0.026521739130434784,0.02588235294117647,0.02125
12,6,12,0,9,0.5800000000000003,2,23,62,83,18,32,1.8800000000000012,0.9500000000000006,0.18000000000000002,0.04,4,3,3,2,73,31,5,3,4,0,18,7,L,0.025753424657534246,0.030645161290322583,0.036000000000000004,0.013333333333333334
12,7,13,1,11,0.6200000000000003,2,25,65,72,118,40,2.110000000000001,0.2800000000000001,0.9400000000000006,0.08,4,2,2,1,64,7,31,1,4,0,15,7,L,0.03296875,0.04,0.03032258064516129,0.08
12,7,14,1,15,0.5700000000000003,2,23,19,25,20,18,2.1400000000000015,0.26000000000000006,0.20000000000000004,0.8200000000000005,4,3,2,4,81,9,7,27,6,0.5,41,7,L,0.026419753086419754,0.028888888888888888,0.028571428571428574,0.03037037037037037
12,8,15,1,11,0.9000000000000006,2,29,61,69,71,82,1.9400000000000013,0.6300000000000003,0.3200000000000001,0.3000000000000001,4,2,2,3,59,20,13,10,4,0.5,27,7,L,0.03288135593220339,0.0315,0.024615384615384615,0.030000000000000002
12,8,16,1,14,0.5600000000000003,2,22,92,91,94,13,2.2600000000000016,0.21000000000000005,0.22000000000000006,1.2100000000000009,5,2,2,6,76,11,10,48,3,0.5,24,7,L,0.02973684210526316,0.019090909090909092,0.022,0.025208333333333333
12,9,17,1,1,0.4400000000000002,2,14,78,82,79,74,2.1300000000000017,0.25000000000000006,0.2700000000000001,0.2900000000000001,8,3,5,3,71,15,13,16,3,1,36,7,L,0.030000000000000002,0.016666666666666666,0.02076923076923077,0.018125
12,9,18,1,2,0.7700000000000005,2,26,59,50,9,5,2.620000000000002,0.21000000000000005,0.17,0.09,4,2,2,1,87,9,7,1,4,0,20,7,L,0.030114942528735634,0.023333333333333334,0.024285714285714285,0.09
12,10,19,1,11,0.7300000000000004,2,27,67,85,94,65,2.2000000000000015,0.6800000000000004,0.15,0.4000000000000002,10,5,3,4,83,25,6,12,4,0,14,7,L,0.02650602409638554,0.027200000000000002,0.025,0.03333333333333333
12,10,20,1,12,0.5000000000000002,6,17,38,114,113,119,2.0600000000000014,0.46000000000000024,0.09999999999999999,0.13999999999999999,10,3,3,2,67,13,7,8,5,0.5,17,7,L,0.030746268656716418,0.03538461538461539,0.014285714285714285,0.0175
