Subject,Round,Phase,afterbreak,Schema,Schema_RT,Schema_OB,Schema_AS,Cho_1,Cho_2,Cho_3,Cho_4,RT_1,RT_2,RT_3,RT_4,OB_1,OB_2,OB_3,OB_4,AS_1,AS_2,AS_3,AS_4,schema_payoff,AC,performance,breakR,type,dwellmean_1,dwellmean_2,dwellmean_3,dwellmean_4
1,1,1,0,8,0.3900000000000002,2,3,81,114,42,21,2.3000000000000016,0.4200000000000002,1.420000000000001,0.12999999999999998,4,2,2,1,7,2,2,1,2,0,16,7,Hc,0.32857142857142874,0.21000000000000008,0.7100000000000004,0.12999999999999998
1,1,2,0,10,0.4300000000000002,4,5,102,6,5,90,3.5599999999999774,0.18000000000000002,0.23000000000000007,0.10999999999999999,9,1,2,2,15,1,2,3,3,0,17,7,Hc,0.23733333333333342,0.18000000000000002,0.11500000000000002,0.03666666666666667
1,2,3,0,3,0.5000000000000002,4,6,36,108,70,12,1.620000000000001,1.9700000000000015,0.8000000000000005,0.3000000000000001,6,6,3,2,8,8,3,2,5,0,17,7,Hc,0.2025000000000001,0.24625000000000008,0.2666666666666667,0.15000000000000002
1,2,4,0,2,0.36000000000000015,2,3,24,114,14,42,3.1099999999999857,0.8600000000000005,0.6900000000000004,0.48000000000000026,6,4,2,2,10,5,2,2,4,0,19,7,Hc,0.3110000000000001,0.17200000000000004,0.34500000000000014,0.2400000000000001
1,3,5,0,9,0.17,2,2,1,79,116,9,9.049999999999855,0.01,0.01,0.01,16,1,1,1,26,1,1,1,4,0,17,7,Hc,0.3480769230769233,0.01,0.01,0.01
1,3,6,0,4,0.16,1,2,16,26,97,27,2.0800000000000014,0.9900000000000007,0.38000000000000017,0.22000000000000006,4,3,2,1,9,3,2,1,2,0,18,7,Hc,0.2311111111111112,0.3300000000000002,0.19000000000000003,0.22000000000000006
1,4,7,0,2,0.18000000000000002,2,3,4,114,53,51,2.1100000000000017,0.6400000000000003,0.21000000000000005,0.17,6,2,1,2,13,2,1,2,4,0,16,7,Hc,0.16230769230769235,0.3200000000000001,0.21000000000000005,0.085
1,4,8,0,7,0.45000000000000023,2,4,73,43,20,14,3.279999999999984,0.26000000000000006,1.0500000000000007,0.23000000000000007,7,1,3,2,16,1,6,2,6,0,20,7,Hc,0.20500000000000007,0.26000000000000006,0.17500000000000004,0.11499999999999999
1,5,9,0,1,0.4000000000000002,4,7,4,77,38,1,3.0599999999999876,0.20000000000000004,0.35000000000000014,0.09999999999999999,9,2,1,1,12,4,1,1,3,0,20,7,Hc,0.2550000000000001,0.049999999999999996,0.35000000000000014,0.09999999999999999
1,5,10,0,2,0.4400000000000002,2,4,35,51,17,29,1.9000000000000012,0.7600000000000005,0.5900000000000003,0.34000000000000014,3,2,2,1,5,2,2,1,4,0,20,7,Hc,0.3800000000000002,0.38000000000000017,0.2950000000000001,0.34000000000000014
1,6,11,0,1,0.4100000000000002,2,4,5,38,46,43,2.4999999999999996,0.8900000000000006,0.7600000000000005,1.440000000000001,6,3,3,2,11,3,4,2,3,0.5,21,7,Hc,0.22727272727272735,0.2966666666666668,0.19000000000000006,0.7200000000000005
1,6,12,0,7,0.9000000000000006,10,11,33,27,23,15,3.289999999999994,1.0400000000000007,0.4200000000000002,2.5099999999999905,16,3,3,8,19,3,3,8,6,0,22,7,Hc,0.17315789473684215,0.3466666666666668,0.14000000000000004,0.31375000000000014
1,7,13,1,4,0.21000000000000005,2,3,7,101,106,42,2.4399999999999964,0.46000000000000024,0.16,1.460000000000001,4,3,1,4,6,4,1,4,2,0,15,7,Hc,0.4066666666666669,0.11500000000000002,0.16,0.36500000000000016
1,7,14,1,8,0.4300000000000002,3,4,53,15,117,119,2.1300000000000017,0.5100000000000002,0.3900000000000002,0.26000000000000006,6,1,2,1,7,1,2,1,2,0,14,7,Hc,0.30428571428571444,0.5100000000000002,0.19500000000000003,0.26000000000000006
1,8,15,1,4,0.3200000000000001,2,3,14,13,41,104,2.7599999999999922,0.6800000000000004,0.17,0.34000000000000014,7,2,1,3,12,3,1,3,2,0,19,7,Hc,0.23000000000000007,0.22666666666666674,0.17,0.11333333333333334
1,8,16,1,3,0.19000000000000003,2,3,119,27,1,33,1.8100000000000012,0.9400000000000006,0.3100000000000001,0.20000000000000004,4,2,1,2,5,7,1,2,5,0,18,7,Hc,0.3620000000000002,0.13428571428571429,0.3100000000000001,0.09999999999999999
1,9,17,1,6,0.2800000000000001,3,4,4,40,3,113,1.3100000000000007,2.3099999999999947,1.420000000000001,0.15,5,4,3,1,6,7,4,1,6,0,19,7,Hc,0.21833333333333343,0.3300000000000002,0.3550000000000002,0.15
1,9,18,1,2,0.47000000000000025,3,6,59,107,57,100,3.3199999999999834,0.20000000000000004,0.5400000000000003,0.08,9,1,3,1,15,1,3,1,4,0,12,7,Hc,0.2213333333333334,0.20000000000000004,0.18000000000000002,0.08
1,10,19,1,4,0.26000000000000006,2,4,76,73,58,59,3.4799999999999756,0.5000000000000002,0.17,0.09999999999999999,8,1,1,1,15,1,1,1,2,0,14,7,Hc,0.23200000000000007,0.5000000000000002,0.17,0.09999999999999999
1,10,20,1,9,0.18000000000000002,2,3,67,47,64,40,1.9800000000000013,1.1700000000000008,0.10999999999999999,0.45000000000000023,5,3,1,2,10,4,1,3,4,0,18,7,Hc,0.19800000000000006,0.2925000000000001,0.10999999999999999,0.15000000000000002
1,11,21,1,9,0.21000000000000005,2,3,73,75,62,19,4.259999999999958,0.19000000000000003,1.490000000000001,0.20000000000000004,10,2,5,3,16,2,5,3,4,0,16,7,Hc,0.2662500000000001,0.09499999999999999,0.29800000000000015,0.06666666666666667
1,11,22,1,8,0.38000000000000017,2,3,50,56,113,2,2.7099999999999946,0.5900000000000003,0.5400000000000003,0.37000000000000016,7,2,2,1,11,3,2,1,2,0,16,7,Hc,0.24636363636363645,0.19666666666666668,0.2700000000000001,0.37000000000000016
1,12,23,1,6,0.38000000000000017,2,3,73,53,50,40,3.0499999999999874,0.7600000000000005,1.8600000000000014,0.09,6,3,4,2,8,4,7,2,6,0,16,7,Hc,0.3812500000000002,0.19000000000000006,0.26571428571428585,0.045
1,12,24,1,4,0.17,2,3,97,101,28,72,1.8600000000000012,0.22000000000000006,2.7999999999999843,0.6000000000000003,8,1,5,3,16,1,7,3,2,0,13,7,Hc,0.11625000000000002,0.22000000000000006,0.4000000000000002,0.20000000000000007
1,13,25,1,2,0.21000000000000005,2,3,101,81,82,52,2.979999999999985,0.5500000000000003,0.47000000000000025,0.10999999999999999,9,2,2,2,11,3,2,2,4,0,12,7,Hc,0.27090909090909104,0.18333333333333338,0.23500000000000004,0.055
1,13,26,1,6,0.6000000000000003,9,10,62,72,25,61,5.1699999999999475,0.9400000000000006,2.9199999999999817,0.01,16,2,2,1,26,2,2,1,6,0.5,17,7,Hc,0.19884615384615392,0.4700000000000003,1.459999999999991,0.01
1,14,27,1,10,0.24000000000000007,2,3,119,86,9,110,3.1799999999999815,0.35000000000000014,1.1500000000000008,0.7200000000000004,4,2,3,2,5,2,3,2,3,0,13,7,Hc,0.6359999999999988,0.17500000000000002,0.3833333333333335,0.36000000000000015
1,14,28,1,7,0.22000000000000006,3,5,74,83,21,52,2.8899999999999872,1.0200000000000007,0.11999999999999998,0.18000000000000002,7,4,2,1,13,4,2,2,6,0,16,7,Hc,0.2223076923076924,0.25500000000000006,0.06,0.09
1,15,29,1,10,0.3300000000000001,2,3,87,24,15,90,2.0200000000000014,3.0699999999999785,0.46000000000000024,0.16,6,5,2,1,11,11,2,1,3,0,18,7,Hc,0.18363636363636368,0.2790909090909092,0.2300000000000001,0.16
1,15,30,1,9,0.6000000000000003,9,9,79,4,2,8,5.809999999999934,0.7400000000000004,0.20000000000000004,0.38000000000000017,16,3,3,3,21,4,3,3,4,0.5,21,7,Hc,0.2766666666666668,0.18500000000000005,0.06666666666666667,0.12666666666666668
1,16,31,1,8,0.7700000000000005,10,13,118,116,93,21,2.600000000000002,0.7400000000000004,1.8400000000000014,0.5400000000000003,14,2,3,4,19,2,3,4,2,0,13,7,Hc,0.13684210526315793,0.37000000000000016,0.6133333333333337,0.135
1,16,32,1,9,1.370000000000001,6,9,107,78,1,62,4.1799999999999855,0.25000000000000006,1.360000000000001,0.07,16,1,4,1,23,1,5,1,4,0,15,7,Hc,0.18173913043478265,0.25000000000000006,0.27200000000000013,0.07
1,17,33,1,8,0.5500000000000003,9,10,114,2,12,118,1.9700000000000013,2.109999999999999,0.11999999999999998,0.05,12,5,1,1,14,7,1,1,2,0,16,7,Hc,0.14071428571428576,0.30142857142857155,0.11999999999999998,0.05
1,17,34,1,4,0.7200000000000004,2,3,77,102,64,71,4.029999999999974,0.04,0.10999999999999999,0.09999999999999999,9,1,1,1,11,1,1,1,2,0,13,7,Hc,0.36636363636363656,0.04,0.10999999999999999,0.09999999999999999
1,18,35,1,7,0.5600000000000003,8,8,14,54,57,87,2.1900000000000013,1.2200000000000009,0.49000000000000027,0.48000000000000026,11,3,2,1,13,4,2,1,6,0,17,7,Hc,0.16846153846153852,0.30500000000000016,0.24500000000000005,0.48000000000000026
1,18,36,1,4,0.23000000000000007,2,3,101,80,5,74,1.8300000000000012,1.440000000000001,0.6200000000000003,0.25000000000000006,5,3,1,1,13,5,1,1,2,0,14,7,Hc,0.14076923076923079,0.2880000000000001,0.6200000000000003,0.25000000000000006
1,19,37,1,6,1.8500000000000014,9,17,94,55,48,11,3.8300000000000027,0.2800000000000001,0.9300000000000006,2.3699999999999934,14,1,2,3,25,1,2,3,6,0,18,7,Hc,0.15320000000000003,0.2800000000000001,0.4650000000000002,0.7899999999999988
1,19,38,1,3,0.9600000000000006,14,16,25,14,69,30,1.9700000000000013,5.259999999999932,0.01,2.3299999999999943,17,6,1,6,20,16,1,9,5,0,20,7,Hc,0.09850000000000002,0.32875000000000015,0.01,0.258888888888889
1,20,39,1,10,0.4000000000000002,2,6,93,116,16,68,1.580000000000001,1.0500000000000007,0.45000000000000023,0.4400000000000002,4,2,2,1,8,4,2,1,3,0,15,7,Hc,0.1975000000000001,0.2625000000000001,0.2250000000000001,0.4400000000000002
1,20,40,1,4,1.260000000000001,9,12,52,10,48,106,2.870000000000002,0.46000000000000024,0.8800000000000006,0.07,12,2,3,1,15,3,4,1,2,0,17,7,Hc,0.19133333333333338,0.15333333333333338,0.22000000000000008,0.07
1,21,41,1,3,0.5300000000000002,6,6,3,31,54,11,16.459999999999706,0.01,0.01,0.01,20,1,1,1,37,1,1,1,5,0,21,7,Hc,0.4448648648648651,0.01,0.01,0.01
1,21,42,1,7,0.49000000000000027,5,5,95,96,112,17,3.1599999999999873,0.5600000000000003,2.5499999999999896,0.38000000000000017,10,2,5,2,13,2,8,2,6,0,14,7,Hc,0.24307692307692316,0.2800000000000001,0.31875000000000014,0.19000000000000009
2,1,1,0,9,0.5100000000000002,2,6,65,21,13,66,1.9600000000000013,0.7100000000000004,0.5500000000000003,0.6200000000000003,5,1,2,2,11,1,2,2,4,0,20,7,Hc,0.17818181818181825,0.7100000000000004,0.27500000000000013,0.3100000000000001
2,1,2,0,10,0.2800000000000001,4,5,5,88,55,52,2.779999999999991,0.7000000000000004,0.5100000000000002,0.16,8,2,2,1,13,5,3,1,3,0,17,7,Hc,0.21384615384615394,0.14000000000000004,0.17,0.16
2,2,3,0,4,0.23000000000000007,2,3,98,3,89,63,3.3099999999999783,0.7600000000000005,0.38000000000000017,0.11999999999999998,10,2,2,1,14,5,2,1,2,0,15,7,Hc,0.23642857142857152,0.15200000000000002,0.19000000000000006,0.11999999999999998
2,2,4,0,8,0.2900000000000001,2,5,49,116,73,82,3.389999999999978,0.15,0.4000000000000002,0.5300000000000002,8,1,2,2,15,1,2,2,2,0,12,7,Hc,0.22600000000000006,0.15,0.2000000000000001,0.26500000000000007
2,3,5,0,5,0.3100000000000001,2,4,97,15,47,16,2.889999999999989,0.3100000000000001,0.22000000000000006,0.22000000000000006,6,1,2,1,11,1,2,1,5,0,19,7,Hc,0.26272727272727286,0.3100000000000001,0.11000000000000001,0.22000000000000006
2,3,6,0,1,0.34000000000000014,2,4,109,74,8,81,2.8999999999999897,0.26000000000000006,0.6400000000000003,0.16,5,1,2,2,10,1,2,3,3,0,14,7,Hc,0.29000000000000015,0.26000000000000006,0.3200000000000002,0.05333333333333334
2,4,7,0,1,0.6100000000000003,3,5,16,15,55,101,2.6300000000000012,15.459999999999715,0.01,0.01,6,13,1,1,9,38,1,1,3,0,18,7,Hc,0.2922222222222224,0.4068421052631581,0.01,0.01
2,4,8,0,9,0.38000000000000017,2,6,110,85,67,42,2.789999999999993,0.4300000000000002,0.21000000000000005,0.7800000000000005,6,1,1,1,16,1,1,1,4,0,14,7,Hc,0.17437500000000006,0.4300000000000002,0.21000000000000005,0.7800000000000005
2,5,9,0,5,0.2800000000000001,2,3,83,8,74,43,2.0500000000000016,0.5700000000000003,0.5900000000000003,0.34000000000000014,5,1,2,2,8,2,2,2,5,0,17,7,Hc,0.2562500000000001,0.2850000000000001,0.2950000000000001,0.17
2,5,10,0,3,0.25000000000000006,2,3,95,17,28,96,1.8900000000000012,1.440000000000001,0.17,0.20000000000000004,5,3,1,2,9,7,1,2,5,0,17,7,Hc,0.21000000000000008,0.2057142857142858,0.17,0.09999999999999999
2,6,11,0,10,0.5700000000000003,3,5,43,13,15,20,2.7099999999999986,0.4000000000000002,0.7200000000000004,0.11999999999999998,6,2,4,1,8,2,5,1,3,0.5,23,7,Hc,0.3387500000000002,0.20000000000000007,0.14400000000000004,0.11999999999999998
2,6,12,0,9,0.2700000000000001,2,3,69,74,32,71,1.9500000000000013,0.8200000000000005,0.9100000000000006,0.09999999999999999,5,3,3,1,7,4,4,1,4,0,16,7,Hc,0.2785714285714287,0.20500000000000007,0.22750000000000006,0.09999999999999999
2,7,13,1,4,0.3300000000000001,2,3,82,97,107,44,1.7600000000000011,0.5900000000000003,0.8500000000000005,1.8700000000000014,4,1,3,6,5,2,5,9,2,0,12,7,Hc,0.35200000000000015,0.29500000000000015,0.17000000000000004,0.20777777777777784
2,7,14,1,8,0.13999999999999999,2,4,114,28,120,33,1.8200000000000012,2.159999999999998,0.03,0.12999999999999998,5,6,1,1,14,7,1,1,2,0,14,7,Hc,0.13000000000000003,0.3085714285714287,0.03,0.12999999999999998
2,8,15,1,2,0.5100000000000002,6,7,49,55,53,57,3.51999999999998,0.15,0.15,0.2900000000000001,12,3,1,3,15,3,1,4,4,1,48,7,Hc,0.23466666666666677,0.049999999999999996,0.15,0.07250000000000001
2,8,16,1,5,0.2900000000000001,2,3,41,67,77,106,6.359999999999915,0.16,0.09999999999999999,0.5000000000000002,12,2,2,3,20,2,2,3,5,0,14,7,Hc,0.3180000000000001,0.07999999999999999,0.05,0.1666666666666667
2,9,17,1,5,0.36000000000000015,4,4,23,54,100,13,7.479999999999893,0.04,0.03,0.13999999999999999,15,1,1,2,23,1,1,2,5,0,18,7,Hc,0.325217391304348,0.04,0.03,0.07
2,9,18,1,10,0.2800000000000001,3,4,31,114,72,116,2.869999999999989,1.0700000000000007,0.05,1.440000000000001,7,2,1,2,15,5,1,4,3,0,13,7,Hc,0.1913333333333334,0.21400000000000008,0.05,0.36000000000000015
2,10,19,1,8,0.47000000000000025,2,7,111,20,50,37,3.5599999999999783,0.6800000000000004,0.3900000000000002,0.36000000000000015,9,2,2,3,17,3,2,5,2,0,17,7,Hc,0.20941176470588244,0.22666666666666674,0.19500000000000006,0.07200000000000001
2,10,20,1,6,1.440000000000001,5,10,1,73,105,81,2.9300000000000024,0.3300000000000001,0.8400000000000005,0.20000000000000004,8,1,3,2,14,1,3,2,6,0,14,7,Hc,0.20928571428571435,0.3300000000000001,0.2800000000000001,0.1
2,11,21,1,5,0.20000000000000004,2,3,41,101,67,46,1.2200000000000006,2.3199999999999945,0.09999999999999999,0.6000000000000003,4,6,1,3,6,9,1,3,5,0,16,7,Hc,0.2033333333333334,0.2577777777777779,0.09999999999999999,0.20000000000000007
2,11,22,1,10,0.20000000000000004,2,3,30,114,36,94,2.1100000000000017,0.46000000000000024,0.4400000000000002,0.17,5,2,1,1,9,2,1,1,3,0,15,7,Hc,0.23444444444444454,0.23000000000000012,0.4400000000000002,0.17
2,12,23,1,4,0.2800000000000001,2,3,97,48,83,105,1.9800000000000013,2.109999999999999,0.11999999999999998,0.08,6,6,1,2,11,6,1,2,2,0,12,7,Hc,0.18000000000000005,0.35166666666666685,0.11999999999999998,0.04
2,12,24,1,3,0.22000000000000006,2,4,1,71,32,113,13.829999999999755,0.02,0.01,0.24000000000000007,18,2,1,2,48,2,1,2,5,0,17,7,Hc,0.28812500000000013,0.01,0.01,0.12000000000000002
2,13,25,1,9,0.49000000000000027,3,5,71,109,112,1,2.849999999999994,0.23000000000000007,0.5300000000000002,2.5099999999999905,9,1,2,3,11,1,2,3,4,0,14,7,Hc,0.2590909090909092,0.23000000000000007,0.26500000000000007,0.8366666666666672
2,13,26,1,10,0.36000000000000015,2,3,106,93,86,91,2.1100000000000017,2.959999999999981,0.34000000000000014,1.1000000000000008,7,6,3,3,10,8,3,3,3,0.5,11,7,Hc,0.21100000000000008,0.3700000000000002,0.11333333333333333,0.3666666666666669
2,14,27,1,4,0.36000000000000015,2,3,101,21,28,14,2.6499999999999955,0.8600000000000005,0.4200000000000002,0.10999999999999999,5,2,2,2,9,6,2,3,2,0,19,7,Hc,0.29444444444444456,0.14333333333333337,0.21000000000000005,0.03666666666666667
2,14,28,1,6,0.25000000000000006,2,3,3,6,11,7,1.730000000000001,0.8100000000000005,1.350000000000001,3.1199999999999775,5,2,5,8,6,3,5,11,6,1,72,7,Hc,0.28833333333333344,0.2700000000000001,0.27000000000000013,0.2836363636363638
2,15,29,1,3,0.6900000000000004,4,7,33,99,97,30,2.650000000000002,1.430000000000001,0.4300000000000002,0.5800000000000003,8,3,2,6,13,4,2,7,5,0,14,7,Hc,0.20384615384615393,0.3575000000000002,0.21500000000000002,0.08285714285714287
2,15,30,1,6,0.3000000000000001,3,5,12,6,7,44,1.9800000000000013,0.38000000000000017,4.87999999999994,1.1200000000000008,7,1,11,5,9,1,17,5,6,0.5,23,7,Hc,0.22000000000000008,0.38000000000000017,0.2870588235294119,0.2240000000000001
2,16,31,1,10,0.2800000000000001,2,3,52,50,88,34,2.82999999999999,0.36000000000000015,0.19000000000000003,2.0500000000000003,8,2,1,2,14,3,1,2,3,0,16,7,Hc,0.2021428571428572,0.12,0.19000000000000003,1.0250000000000001
2,16,32,1,9,0.09999999999999999,2,3,67,70,97,100,0.7600000000000003,2.8299999999999836,2.4499999999999917,0.02,3,5,6,1,4,7,8,1,4,0,12,7,Hc,0.19000000000000009,0.4042857142857145,0.30625000000000013,0.02
2,17,33,1,7,0.12999999999999998,2,3,16,24,84,56,0.9600000000000005,0.7700000000000005,3.2199999999999753,0.3900000000000002,5,2,7,2,6,3,7,2,6,0,19,7,Hc,0.16000000000000006,0.2566666666666667,0.46000000000000024,0.19500000000000006
2,17,34,1,4,0.36000000000000015,2,3,99,29,35,104,4.029999999999966,0.7000000000000004,0.38000000000000017,2.9799999999999804,7,2,3,6,22,3,4,7,2,0,14,7,Hc,0.18318181818181822,0.23333333333333342,0.09500000000000001,0.425714285714286
2,18,35,1,1,0.16,2,3,105,104,84,98,4.509999999999952,1.370000000000001,0.03,0.21000000000000005,15,3,1,2,23,3,1,2,3,0.5,9,7,Hc,0.1960869565217392,0.45666666666666694,0.03,0.10499999999999998
2,18,36,1,7,0.7200000000000004,14,15,14,18,34,20,3.7099999999999804,4.719999999999944,0.01,0.01,18,9,1,1,20,13,1,1,6,0.5,23,7,Hc,0.18550000000000008,0.36307692307692324,0.01,0.01
2,19,37,1,1,0.7900000000000005,6,7,75,54,45,39,5.359999999999948,3.47999999999997,1.0400000000000007,5.3899999999999295,17,7,6,9,23,9,6,14,3,0,17,7,Hc,0.23304347826086966,0.3866666666666669,0.1733333333333334,0.3850000000000002
2,19,38,1,6,0.3900000000000002,3,4,100,92,33,2,2.749999999999994,1.6900000000000013,0.4400000000000002,0.09,7,4,2,2,15,5,3,3,6,0,16,7,Hc,0.18333333333333338,0.3380000000000002,0.1466666666666667,0.03
2,20,39,1,8,0.37000000000000016,2,3,112,114,2,115,3.089999999999986,0.4300000000000002,0.7600000000000005,0.6700000000000004,6,3,2,4,7,4,2,4,2,0.5,12,7,Hc,0.44142857142857167,0.10750000000000001,0.38000000000000017,0.16750000000000004
2,20,40,1,5,0.4400000000000002,2,4,108,102,49,40,3.44999999999998,0.3300000000000001,1.0800000000000007,0.10999999999999999,8,2,3,1,18,2,3,1,5,0,13,7,Hc,0.19166666666666674,0.165,0.3600000000000002,0.10999999999999999
2,21,41,1,5,0.2900000000000001,4,4,1,46,87,48,5.3999999999999355,0.02,0.04,0.04,14,1,1,1,19,1,1,1,5,0,19,7,Hc,0.2842105263157896,0.02,0.04,0.04
2,21,42,1,1,0.6700000000000004,8,10,77,66,113,33,3.7699999999999783,0.7200000000000004,0.4200000000000002,0.21000000000000005,13,2,1,2,21,3,1,3,3,0,14,7,Hc,0.17952380952380959,0.24000000000000007,0.4200000000000002,0.07
3,1,1,0,3,0.9000000000000006,2,7,31,100,74,51,2.1200000000000014,1.490000000000001,0.48000000000000026,0.2800000000000001,4,2,2,2,13,2,3,2,5,0,14,7,Hc,0.16307692307692312,0.7450000000000004,0.16,0.13999999999999999
3,1,2,0,8,0.6700000000000004,2,5,42,20,17,16,2.4600000000000017,4.349999999999952,0.19000000000000003,0.5800000000000003,4,7,2,2,10,16,2,2,2,0.5,23,7,Hc,0.24600000000000008,0.2718750000000001,0.095,0.29000000000000015
3,2,3,0,9,0.5500000000000003,2,6,11,32,69,1,3.5899999999999794,0.2900000000000001,0.07,0.5700000000000003,8,1,1,3,18,1,1,3,4,0,21,7,Hc,0.1994444444444445,0.2900000000000001,0.07,0.19000000000000006
3,2,4,0,5,0.5000000000000002,2,3,37,48,53,45,2.0900000000000016,0.2900000000000001,0.6600000000000004,0.17,4,1,1,1,9,1,1,1,5,0.5,19,7,Hc,0.2322222222222223,0.2900000000000001,0.6600000000000004,0.17
3,3,5,0,7,0.5900000000000003,2,3,19,13,39,103,1.8300000000000012,23.390000000000857,0.01,0.01,4,19,1,1,7,77,1,1,6,0,19,7,Hc,0.2614285714285715,0.3037662337662339,0.01,0.01
3,3,6,0,6,0.6300000000000003,2,8,72,7,80,71,3.3399999999999865,0.2800000000000001,0.6000000000000003,0.09,7,2,3,1,18,3,4,1,6,0,17,7,Hc,0.1855555555555556,0.09333333333333332,0.15000000000000002,0.09
3,4,7,0,6,0.9200000000000006,2,6,40,7,60,6,3.5299999999999887,0.15,2.1899999999999973,0.11999999999999998,5,2,4,2,15,3,8,2,6,0,21,7,Hc,0.23533333333333342,0.05,0.2737500000000001,0.06
3,4,8,0,4,0.48000000000000026,2,5,104,100,23,103,3.269999999999985,0.26000000000000006,0.22000000000000006,0.05,8,2,1,1,11,2,1,1,2,0.5,12,7,Hc,0.2972727272727274,0.13,0.22000000000000006,0.05
3,5,9,0,6,0.9400000000000006,2,7,10,60,1,33,2.540000000000002,3.9199999999999604,0.8900000000000006,0.22000000000000006,5,8,3,2,14,14,3,2,6,0,21,7,Hc,0.18142857142857147,0.28000000000000014,0.2966666666666668,0.11000000000000003
3,5,10,0,8,0.4000000000000002,3,5,37,109,38,22,2.1000000000000014,0.3900000000000002,0.20000000000000004,0.5000000000000002,6,3,1,1,10,3,1,2,2,0,18,7,Hc,0.21000000000000008,0.13,0.20000000000000004,0.2500000000000001
3,6,11,0,6,0.7600000000000005,2,7,8,41,9,42,1.640000000000001,2.5999999999999885,0.26000000000000006,0.03,4,6,2,1,9,9,2,1,6,0,22,7,Hc,0.18222222222222229,0.288888888888889,0.13,0.03
3,6,12,0,2,0.5200000000000002,2,4,52,16,120,22,2.4800000000000018,0.9200000000000006,1.360000000000001,0.45000000000000023,4,2,7,2,13,7,8,2,4,0,18,7,Hc,0.19076923076923083,0.13142857142857145,0.17000000000000007,0.2250000000000001
3,7,13,1,6,0.8000000000000005,2,8,34,6,67,4,2.1200000000000014,1.2300000000000009,5.089999999999936,2.1199999999999988,4,2,8,8,15,7,13,9,6,0,21,7,Hc,0.14133333333333337,0.17571428571428577,0.3915384615384617,0.23555555555555566
3,7,14,1,2,2.8299999999999836,12,17,60,23,37,21,3.0799999999999836,0.6200000000000003,1.270000000000001,0.2900000000000001,14,2,2,1,19,2,5,1,4,0,21,7,Hc,0.16210526315789478,0.3100000000000001,0.2540000000000001,0.2900000000000001
3,8,15,1,5,0.8300000000000005,2,7,40,6,2,48,2.1400000000000015,0.9300000000000006,0.3900000000000002,0.8500000000000005,4,5,2,3,13,8,2,3,5,0,22,7,Hc,0.16461538461538466,0.11625000000000002,0.19500000000000003,0.28333333333333344
3,8,16,1,1,0.20000000000000004,3,3,16,109,18,79,8.929999999999858,0.01,0.01,0.01,16,1,1,1,41,1,1,1,3,0,17,7,Hc,0.21780487804878057,0.01,0.01,0.01
3,9,17,1,7,0.7200000000000004,3,5,22,15,20,30,2.540000000000002,1.400000000000001,2.9299999999999815,0.5100000000000002,6,4,6,1,10,6,12,1,6,0.5,23,7,Hc,0.2540000000000001,0.23333333333333342,0.24416666666666675,0.5100000000000002
3,9,18,1,5,0.7900000000000005,12,12,7,45,11,52,2.969999999999998,1.5900000000000012,1.460000000000001,0.25000000000000006,16,7,5,2,18,9,5,2,5,0,21,7,Hc,0.16500000000000004,0.17666666666666672,0.29200000000000015,0.12500000000000003
3,10,19,1,5,0.6800000000000004,2,6,45,7,120,119,1.9100000000000013,1.6000000000000012,0.7500000000000004,0.6000000000000003,6,2,3,2,12,6,4,3,5,0,15,7,Hc,0.15916666666666668,0.2666666666666667,0.18750000000000003,0.20000000000000004
3,10,20,1,1,0.6800000000000004,2,6,20,17,25,80,3.3299999999999876,0.9100000000000006,0.17,1.270000000000001,7,4,1,2,14,5,1,2,3,0,20,7,Hc,0.23785714285714293,0.18200000000000005,0.17,0.6350000000000005
3,11,21,1,7,0.4400000000000002,3,7,15,13,81,115,1.520000000000001,20.050000000000335,0.01,0.02,5,17,1,1,13,68,1,1,6,0,17,7,Hc,0.11692307692307695,0.2948529411764707,0.01,0.02
3,11,22,1,9,0.5500000000000003,3,4,70,69,107,65,1.610000000000001,1.260000000000001,0.4000000000000002,0.7800000000000005,5,2,1,4,6,2,2,4,4,0.5,14,7,Hc,0.2683333333333334,0.6300000000000003,0.20000000000000004,0.19500000000000006
3,12,23,1,8,0.4400000000000002,2,3,76,109,26,119,2.0300000000000016,1.470000000000001,0.11999999999999998,0.05,5,4,1,1,10,5,1,1,2,0,12,7,Hc,0.20300000000000007,0.2940000000000001,0.11999999999999998,0.05
3,12,24,1,10,0.6600000000000004,2,4,85,66,37,86,1.3400000000000007,0.7100000000000004,0.6900000000000004,0.5100000000000002,4,1,2,2,6,1,2,7,3,0,15,7,Hc,0.2233333333333334,0.7100000000000004,0.34500000000000014,0.07285714285714286
3,13,25,1,10,0.5400000000000003,2,6,89,85,105,24,2.63,0.23000000000000007,0.7000000000000004,0.09999999999999999,4,1,2,1,17,1,5,1,3,0,14,7,Hc,0.15470588235294122,0.23000000000000007,0.14,0.09999999999999999
3,13,26,1,9,0.47000000000000025,2,5,67,74,83,61,1.2800000000000007,0.7200000000000004,0.7900000000000005,0.15,4,2,2,1,7,4,6,1,4,0,14,7,Hc,0.1828571428571429,0.18000000000000008,0.13166666666666668,0.15
3,14,27,1,5,1.1500000000000008,2,7,24,18,48,16,2.1400000000000015,1.0900000000000007,0.2800000000000001,0.22000000000000006,4,2,1,1,10,4,1,1,5,0.5,23,7,Hc,0.21400000000000008,0.2725000000000001,0.2800000000000001,0.22000000000000006
3,14,28,1,3,2.249999999999996,7,11,32,25,62,69,2.459999999999996,0.9400000000000006,1.1100000000000008,0.09,10,2,3,2,14,4,10,2,5,0,18,7,Hc,0.1757142857142858,0.23500000000000007,0.11100000000000002,0.045
3,15,29,1,6,0.4000000000000002,2,4,69,66,8,7,2.0100000000000016,0.37000000000000016,0.4400000000000002,0.16,6,1,4,1,11,1,4,1,6,0,20,7,Hc,0.18272727272727277,0.37000000000000016,0.10999999999999999,0.16
3,15,30,1,1,1.2200000000000009,3,6,80,41,81,42,2.910000000000002,0.5600000000000003,0.4000000000000002,0.24000000000000007,5,2,3,1,10,3,7,1,3,0,16,7,Hc,0.2910000000000001,0.18666666666666673,0.05714285714285715,0.24000000000000007
3,16,31,1,2,1.1300000000000008,3,8,117,116,2,41,2.2600000000000016,0.5700000000000003,0.3900000000000002,0.25000000000000006,6,3,2,1,12,4,2,1,4,0,15,7,Hc,0.18833333333333338,0.14250000000000002,0.19500000000000003,0.25000000000000006
3,16,32,1,7,0.2700000000000001,2,5,17,13,19,96,2.2600000000000016,0.5900000000000003,11.049999999999809,0.01,7,4,17,1,10,4,39,1,6,0.5,21,7,Hc,0.2260000000000001,0.14750000000000002,0.28333333333333344,0.01
3,17,33,1,3,0.35000000000000014,3,5,28,50,100,105,1.3100000000000007,0.48000000000000026,0.6100000000000003,0.5700000000000003,5,1,1,2,9,1,1,4,5,0,13,7,Hc,0.14555555555555558,0.48000000000000026,0.6100000000000003,0.14250000000000002
3,17,34,1,9,0.7600000000000005,3,4,64,46,65,117,1.750000000000001,1.5200000000000011,0.35000000000000014,0.5000000000000002,6,2,2,3,8,9,3,3,4,0,15,7,Hc,0.21875000000000008,0.16888888888888892,0.11666666666666665,0.1666666666666667
3,18,35,1,5,0.3900000000000002,5,5,99,102,101,2,2.420000000000001,2.5499999999999896,9.759999999999836,15.21999999999972,7,5,14,16,15,13,30,68,5,0.5,12,7,Hc,0.16133333333333338,0.1961538461538462,0.3253333333333335,0.22382352941176478
3,18,36,1,3,1.0500000000000007,3,5,26,67,116,89,1.8100000000000012,0.4100000000000002,1.1600000000000008,0.8700000000000006,5,1,2,2,7,1,10,4,5,0,14,7,Hc,0.2585714285714287,0.4100000000000002,0.116,0.21750000000000008
3,19,37,1,4,0.36000000000000015,2,3,107,3,51,38,1.8500000000000012,1.6400000000000012,0.18000000000000002,0.3200000000000001,4,3,1,2,9,6,1,2,2,0,17,7,Hc,0.2055555555555556,0.27333333333333343,0.18000000000000002,0.16000000000000003
3,19,38,1,10,1.430000000000001,8,13,85,88,29,68,2.7500000000000018,0.23000000000000007,0.5000000000000002,0.3200000000000001,11,1,3,1,18,1,3,1,3,0,15,7,Hc,0.15277777777777782,0.23000000000000007,0.1666666666666667,0.3200000000000001
3,20,39,1,8,1.1500000000000008,4,7,45,56,39,43,2.3400000000000016,0.9900000000000007,0.6200000000000003,0.16,7,3,3,1,12,4,5,1,2,0.5,19,7,Hc,0.1950000000000001,0.24750000000000005,0.12400000000000001,0.16
3,20,40,1,4,0.7100000000000004,3,5,97,99,4,5,2.2100000000000017,0.6300000000000003,0.9900000000000007,0.3900000000000002,6,2,2,2,12,3,7,4,2,0,16,7,Hc,0.18416666666666673,0.21000000000000008,0.14142857142857143,0.0975
3,21,41,1,4,1.2300000000000009,3,8,25,6,7,30,2.3000000000000016,0.7400000000000004,1.5400000000000011,0.09,5,1,3,2,11,1,8,2,2,0,22,7,Hc,0.20909090909090916,0.7400000000000004,0.19250000000000006,0.045
3,21,42,1,5,0.8900000000000006,3,8,42,46,111,14,1.620000000000001,1.6700000000000013,0.6000000000000003,0.26000000000000006,5,4,2,2,12,8,3,2,5,0,18,7,Hc,0.135,0.20875000000000005,0.20000000000000004,0.13000000000000003
4,1,1,0,7,0.6700000000000004,2,3,25,23,15,57,4.719999999999958,0.5800000000000003,2.4099999999999926,0.5700000000000003,8,2,6,3,22,5,16,4,6,0,21,7,Hc,0.21454545454545462,0.11600000000000002,0.15062500000000004,0.14250000000000002
4,1,2,0,5,0.7400000000000004,2,7,104,46,37,11,6.12999999999993,1.280000000000001,0.17,0.4100000000000002,9,3,2,2,20,4,2,3,5,0,18,7,Hc,0.30650000000000016,0.3200000000000002,0.08499999999999999,0.1366666666666667
4,2,3,0,3,1.320000000000001,2,7,14,105,22,78,5.439999999999958,1.420000000000001,0.19000000000000003,0.22000000000000006,7,3,1,1,23,4,1,1,5,0,17,7,Hc,0.23652173913043487,0.35500000000000015,0.19000000000000003,0.22000000000000006
4,2,4,0,10,0.8800000000000006,2,8,86,52,40,44,5.689999999999943,1.1500000000000008,1.0500000000000007,0.09999999999999999,11,2,2,1,24,5,2,1,3,0,17,7,Hc,0.23708333333333342,0.2300000000000001,0.5250000000000002,0.09999999999999999
4,3,5,0,10,0.9300000000000006,2,5,96,19,111,109,5.519999999999947,0.7500000000000004,2.6899999999999866,2.5599999999999894,9,2,6,9,24,2,20,12,3,0,13,7,Hc,0.23000000000000007,0.37500000000000017,0.13450000000000004,0.21333333333333343
4,3,6,0,5,0.13999999999999999,2,2,1,46,59,55,15.279999999999722,0.01,0.01,0.01,18,1,1,1,54,1,1,1,5,0,19,7,Hc,0.2829629629629631,0.01,0.01,0.01
4,4,7,0,9,1.320000000000001,2,13,61,108,16,15,2.7500000000000018,2.7999999999999843,1.0000000000000007,1.0500000000000007,6,6,5,2,20,17,6,7,4,0,18,7,Hc,0.13750000000000004,0.16470588235294123,0.1666666666666667,0.15000000000000002
4,4,8,0,6,1.370000000000001,8,17,5,113,118,85,3.110000000000002,4.459999999999949,0.4000000000000002,2.7499999999999853,13,6,3,6,29,17,5,21,6,0,13,7,Hc,0.10724137931034484,0.2623529411764707,0.08,0.130952380952381
4,5,9,0,8,0.9100000000000006,3,9,89,111,96,95,4.39999999999997,1.6300000000000012,0.5300000000000002,0.11999999999999998,10,3,2,1,23,12,5,1,2,0.5,11,7,Hc,0.19130434782608705,0.13583333333333336,0.10600000000000001,0.11999999999999998
4,5,10,0,2,1.2200000000000009,3,8,103,105,22,51,3.5099999999999962,2.859999999999983,0.6400000000000003,0.2800000000000001,8,4,2,2,19,13,6,3,4,0,14,7,Hc,0.1847368421052632,0.22000000000000006,0.10666666666666669,0.09333333333333332
4,6,11,0,5,0.5500000000000003,2,4,110,47,37,60,5.159999999999947,0.09999999999999999,0.18000000000000002,0.16,10,1,2,1,25,1,2,1,5,0,16,7,Hc,0.20640000000000008,0.09999999999999999,0.09,0.16
4,6,12,0,3,0.5000000000000002,2,3,28,65,33,99,1.8200000000000012,1.300000000000001,2.3199999999999945,0.24000000000000007,5,3,6,1,8,5,14,2,5,0,16,7,Hc,0.2275000000000001,0.26000000000000006,0.16571428571428576,0.11999999999999998
4,7,13,1,8,1.0100000000000007,10,11,115,13,96,40,7.5599999999999055,3.46999999999997,0.02,0.02,20,9,1,1,44,22,1,1,2,0,16,7,Hc,0.17181818181818187,0.15772727272727277,0.02,0.02
4,7,14,1,1,0.7900000000000005,2,5,72,74,26,78,3.4099999999999886,0.7400000000000004,0.5700000000000003,0.17,6,3,2,1,15,4,4,1,3,0,15,7,Hc,0.22733333333333341,0.18500000000000003,0.14250000000000002,0.17
4,8,15,1,1,1.6100000000000012,2,14,28,31,62,29,5.329999999999966,0.37000000000000016,0.6900000000000004,0.19000000000000003,9,1,3,1,27,1,3,2,3,0.5,19,7,Hc,0.19740740740740748,0.37000000000000016,0.2300000000000001,0.095
4,8,16,1,10,1.0600000000000007,12,14,53,95,57,50,4.789999999999965,1.6900000000000013,1.7600000000000013,0.13999999999999999,20,6,5,2,29,12,9,2,3,0.5,15,7,Hc,0.1651724137931035,0.14083333333333337,0.1955555555555556,0.06999999999999999
4,9,17,1,6,0.5000000000000002,2,3,11,80,77,73,2.7399999999999967,1.430000000000001,0.5800000000000003,0.3100000000000001,6,3,1,1,11,5,2,1,6,0.5,15,7,Hc,0.2490909090909092,0.2860000000000001,0.2900000000000001,0.3100000000000001
4,9,18,1,4,0.35000000000000014,2,3,97,69,100,72,3.4699999999999775,1.0600000000000007,1.2500000000000009,0.5000000000000002,11,3,4,2,16,5,5,2,2,0,12,7,Hc,0.2168750000000001,0.21200000000000008,0.2500000000000001,0.2500000000000001
4,10,19,1,7,1.6500000000000012,10,13,14,114,17,34,3.000000000000002,0.5600000000000003,1.8800000000000014,0.5900000000000003,13,2,3,2,18,3,10,2,6,0,19,7,Hc,0.1666666666666667,0.18666666666666673,0.18800000000000006,0.2950000000000001
4,10,20,1,6,0.10999999999999999,2,2,2,92,86,42,4.489999999999951,0.22000000000000006,1.7700000000000014,0.12999999999999998,12,1,4,2,27,1,6,2,6,0,17,7,Hc,0.16629629629629633,0.22000000000000006,0.29500000000000015,0.065
4,11,21,1,4,1.270000000000001,4,8,97,107,91,99,3.2200000000000024,0.3900000000000002,2.959999999999981,0.36000000000000015,7,1,6,3,16,1,12,3,2,0.5,9,7,Hc,0.20125000000000004,0.3900000000000002,0.24666666666666676,0.12000000000000002
4,11,22,1,1,1.1400000000000008,6,12,74,84,8,62,1.9000000000000012,1.1600000000000008,5.639999999999924,1.480000000000001,7,3,11,5,13,6,27,5,3,0,16,7,Hc,0.1461538461538462,0.19333333333333338,0.20888888888888896,0.2960000000000001
4,12,23,1,7,0.8600000000000005,2,8,106,55,24,17,3.809999999999982,2.239999999999996,0.13999999999999999,0.060000000000000005,7,7,2,1,24,8,2,1,6,0,18,7,Hc,0.15875000000000003,0.28000000000000014,0.07,0.060000000000000005
4,12,24,1,8,1.0000000000000007,6,10,111,5,8,9,1.580000000000001,2.5099999999999905,0.6200000000000003,0.7900000000000005,8,5,2,3,12,6,2,5,2,0.5,20,7,Hc,0.13166666666666668,0.4183333333333335,0.3100000000000001,0.15800000000000006
4,13,25,1,8,0.4400000000000002,2,4,111,10,120,112,2.0800000000000014,1.8200000000000014,0.5600000000000003,0.09999999999999999,4,4,3,1,11,7,3,1,2,0.5,12,7,Hc,0.18909090909090914,0.2600000000000001,0.1866666666666667,0.09999999999999999
4,13,26,1,7,0.9500000000000006,2,7,29,13,31,58,3.9599999999999804,5.069999999999936,1.5800000000000012,2.3699999999999934,6,7,6,8,23,29,7,14,6,0,20,7,Hc,0.17217391304347832,0.17482758620689662,0.22571428571428576,0.16928571428571434
4,14,27,1,4,1.2300000000000009,3,8,36,19,107,70,3.2500000000000018,1.2000000000000008,0.48000000000000026,0.9000000000000006,5,2,2,3,17,7,4,7,2,0,17,7,Hc,0.19117647058823536,0.17142857142857146,0.12000000000000002,0.12857142857142861
4,14,28,1,10,0.8600000000000005,2,9,89,90,46,49,2.4200000000000017,1.2500000000000009,0.7300000000000004,1.0200000000000007,6,3,3,2,17,7,4,3,3,0,15,7,Hc,0.14235294117647063,0.1785714285714286,0.18250000000000005,0.3400000000000002
4,15,29,1,6,1.280000000000001,4,7,75,10,8,6,7.479999999999913,0.23000000000000007,2.6999999999999864,0.02,13,2,8,1,35,2,17,1,6,0.5,21,7,Hc,0.2137142857142858,0.115,0.15882352941176472,0.02
4,15,30,1,10,5.509999999999927,9,34,39,109,90,45,8.069999999999917,2.52999999999999,1.1100000000000008,0.18000000000000002,15,6,5,1,44,13,6,1,3,0,15,7,Hc,0.18340909090909097,0.1946153846153847,0.18500000000000005,0.18000000000000002
4,16,31,1,9,0.36000000000000015,2,4,18,19,70,90,3.419999999999979,0.4200000000000002,0.17,0.7700000000000005,10,1,1,3,20,1,1,4,4,0,19,7,Hc,0.17100000000000007,0.4200000000000002,0.17,0.19250000000000006
4,16,32,1,5,1.1000000000000008,3,9,51,2,79,48,4.459999999999973,1.5700000000000012,0.2700000000000001,0.17,8,3,3,1,24,5,5,1,5,0,18,7,Hc,0.18583333333333338,0.3140000000000001,0.054,0.17
4,17,33,1,3,0.7200000000000004,2,5,112,109,21,118,4.9699999999999545,0.3100000000000001,0.22000000000000006,1.290000000000001,7,1,2,3,24,1,2,4,5,0.5,12,7,Hc,0.20708333333333342,0.3100000000000001,0.11000000000000001,0.3225000000000002
4,17,34,1,5,0.9800000000000006,4,6,52,54,78,45,3.779999999999985,0.9200000000000006,0.3900000000000002,0.22000000000000006,9,2,1,2,12,6,1,2,5,0,16,7,Hc,0.31500000000000017,0.15333333333333338,0.3900000000000002,0.11000000000000001
4,18,35,1,7,0.5500000000000003,3,5,19,16,71,102,3.3899999999999837,6.899999999999897,2.399999999999993,0.23000000000000007,6,9,9,1,10,28,10,1,6,0,18,7,Hc,0.3390000000000002,0.24642857142857152,0.24000000000000007,0.23000000000000007
4,18,36,1,6,1.6700000000000013,2,12,58,109,5,9,4.219999999999991,0.9400000000000006,0.5200000000000002,0.5400000000000003,5,3,2,2,20,4,3,4,6,0,18,7,Hc,0.21100000000000008,0.2350000000000001,0.17333333333333334,0.135
4,19,37,1,3,0.9800000000000006,4,6,29,111,13,119,4.339999999999973,0.7100000000000004,0.5900000000000003,0.34000000000000014,10,2,3,2,24,3,5,3,5,0,15,7,Hc,0.18083333333333337,0.23666666666666675,0.11800000000000002,0.11333333333333336
4,19,38,1,4,1.5300000000000011,16,20,107,99,6,79,3.929999999999994,0.7000000000000004,0.3900000000000002,1.2000000000000008,20,2,2,2,36,3,2,5,2,0,13,7,Hc,0.10916666666666669,0.2333333333333334,0.195,0.2400000000000001
4,20,39,1,10,0.37000000000000016,4,4,5,25,66,62,10.159999999999837,0.02,0.01,0.01,20,1,1,1,55,1,1,1,3,0,19,7,Hc,0.1847272727272728,0.02,0.01,0.01
4,20,40,1,2,2.6899999999999866,7,15,24,23,105,14,4.529999999999988,0.5600000000000003,1.310000000000001,0.25000000000000006,11,2,5,3,22,2,6,3,4,0.5,20,7,Hc,0.20590909090909099,0.28000000000000014,0.2183333333333334,0.08333333333333333
4,21,41,1,2,0.4200000000000002,1,2,16,53,20,58,3.999999999999968,0.22000000000000006,0.9400000000000006,0.15,7,1,3,1,26,1,3,1,4,0,20,7,Hc,0.15384615384615388,0.22000000000000006,0.31333333333333346,0.15
4,21,42,1,1,0.5100000000000002,2,4,77,84,70,31,3.1199999999999886,1.8600000000000014,1.440000000000001,0.19000000000000003,10,6,6,3,18,8,8,3,3,0,15,7,Hc,0.17333333333333337,0.2325000000000001,0.18000000000000005,0.06333333333333332
5,1,1,0,4,1.1600000000000008,2,9,101,21,20,13,2.8100000000000023,0.6700000000000004,1.0000000000000007,0.46000000000000024,5,1,3,3,16,1,3,3,2,0.5,20,7,Hc,0.17562500000000006,0.6700000000000004,0.3333333333333335,0.15333333333333335
5,1,2,0,3,1.1600000000000008,4,8,5,12,53,115,5.039999999999962,0.7500000000000004,0.10999999999999999,0.17,12,2,2,1,25,2,2,2,5,0,18,7,Hc,0.20160000000000008,0.37500000000000017,0.05500000000000001,0.08499999999999999
5,2,3,0,8,0.6300000000000003,2,3,10,31,55,26,3.6699999999999795,0.4200000000000002,0.45000000000000023,0.23000000000000007,7,1,2,2,12,2,2,3,2,0,20,7,Hc,0.30583333333333346,0.21000000000000008,0.22500000000000003,0.07666666666666666
5,2,4,0,10,0.46000000000000024,2,3,93,72,63,16,1.8900000000000012,1.1800000000000008,0.9100000000000006,0.6200000000000003,5,2,2,2,13,2,6,2,3,0,17,7,Hc,0.14538461538461542,0.5900000000000004,0.15166666666666673,0.31000000000000016
5,3,5,0,8,0.6300000000000003,4,6,111,24,22,109,1.650000000000001,0.8600000000000005,0.6300000000000003,0.23000000000000007,6,1,2,2,9,1,3,2,2,0,16,7,Hc,0.1833333333333334,0.8600000000000005,0.21000000000000008,0.115
5,3,6,0,6,0.6400000000000003,2,4,51,50,48,3,2.7899999999999983,1.6700000000000013,0.5300000000000002,0.060000000000000005,7,4,2,1,13,6,2,1,6,0,19,7,Hc,0.2146153846153847,0.27833333333333343,0.2650000000000001,0.060000000000000005
5,4,7,0,5,0.8000000000000005,4,7,40,63,42,14,2.1300000000000017,1.420000000000001,0.21000000000000005,0.5800000000000003,8,3,1,1,13,8,1,1,5,0,20,7,Hc,0.1638461538461539,0.17750000000000005,0.21000000000000005,0.5800000000000003
5,4,8,0,2,1.1300000000000008,2,6,55,111,110,54,3.4799999999999947,1.440000000000001,0.37000000000000016,1.2300000000000009,8,5,3,3,18,5,3,5,4,0,12,7,Hc,0.19333333333333338,0.2880000000000001,0.12333333333333335,0.2460000000000001
5,5,9,0,2,0.5300000000000002,2,4,73,53,74,56,3.2399999999999864,0.2900000000000001,1.500000000000001,0.05,5,1,5,1,9,1,9,1,4,0,14,7,Hc,0.36000000000000015,0.2900000000000001,0.1666666666666667,0.05
5,5,10,0,6,0.8800000000000006,7,8,4,37,7,39,2.1400000000000015,5.809999999999921,0.45000000000000023,0.01,10,7,4,1,14,15,5,1,6,0,22,7,Hc,0.1528571428571429,0.38733333333333353,0.09000000000000001,0.01
5,6,11,0,10,0.8400000000000005,2,5,9,3,112,28,3.9299999999999784,6.969999999999896,0.01,0.05,8,13,1,1,21,20,1,1,3,0,19,7,Hc,0.18714285714285722,0.34850000000000014,0.01,0.05
5,6,12,0,4,0.8600000000000005,2,5,106,55,108,56,2.760000000000002,0.5000000000000002,0.2800000000000001,0.8300000000000005,4,2,2,5,15,2,3,5,2,0,12,7,Hc,0.18400000000000005,0.25000000000000006,0.09333333333333332,0.16600000000000006
5,7,13,1,3,1.1600000000000008,2,7,28,36,104,49,1.640000000000001,1.0400000000000007,1.370000000000001,0.15,3,2,2,1,8,3,4,1,5,0,16,7,Hc,0.20500000000000007,0.34666666666666685,0.34250000000000014,0.15
5,7,14,1,5,0.9400000000000006,3,6,42,1,8,10,2.830000000000002,0.8700000000000006,0.21000000000000005,0.5800000000000003,5,2,1,2,10,3,1,5,5,0.5,23,7,Hc,0.28300000000000014,0.2900000000000001,0.21000000000000005,0.116
5,8,15,1,8,0.25000000000000006,2,2,15,64,73,111,12.519999999999783,0.01,0.01,0.01,17,1,1,1,33,1,1,1,2,0,15,7,Hc,0.37939393939393956,0.01,0.01,0.01
5,8,16,1,6,0.7900000000000005,2,6,2,1,53,42,1.590000000000001,13.30999999999976,0.01,0.01,4,16,1,1,9,46,1,1,6,0,21,7,Hc,0.17666666666666672,0.28934782608695664,0.01,0.01
5,9,17,1,10,0.48000000000000026,3,4,96,92,2,69,1.3100000000000007,0.4200000000000002,2.020000000000001,0.3100000000000001,4,1,4,2,5,1,8,3,3,0,16,7,Hc,0.2620000000000001,0.4200000000000002,0.2525000000000001,0.10333333333333335
5,9,18,1,4,0.7100000000000004,2,8,15,106,27,51,3.73999999999998,0.2800000000000001,0.2900000000000001,0.05,7,2,1,1,23,4,1,1,2,0,17,7,Hc,0.16260869565217395,0.06999999999999999,0.2900000000000001,0.05
5,10,19,1,10,0.5400000000000003,2,3,26,3,10,89,2.1600000000000015,1.5600000000000012,0.5100000000000002,0.09,5,3,1,1,9,6,1,1,3,0,20,7,Hc,0.2400000000000001,0.2600000000000001,0.5100000000000002,0.09
5,10,20,1,2,0.6500000000000004,2,5,44,14,20,18,2.600000000000002,1.0000000000000007,3.0199999999999796,0.26000000000000006,5,3,7,2,14,5,14,2,4,0.5,23,7,Hc,0.18571428571428578,0.20000000000000004,0.21571428571428578,0.13000000000000003
5,11,21,1,9,0.46000000000000024,2,6,62,2,95,34,0.8800000000000004,2.7899999999999845,0.6700000000000004,0.19000000000000003,4,5,2,2,8,11,2,3,4,0,18,7,Hc,0.11000000000000001,0.2536363636363637,0.33500000000000013,0.06333333333333332
5,11,22,1,1,0.46000000000000024,2,3,80,13,113,75,3.0799999999999885,0.4300000000000002,0.7800000000000005,0.08,5,1,3,1,13,1,5,1,3,0,14,7,Hc,0.23692307692307701,0.4300000000000002,0.15600000000000003,0.08
5,12,23,1,7,0.7900000000000005,2,6,106,16,19,83,3.9399999999999773,4.859999999999941,0.01,0.060000000000000005,7,9,1,1,13,11,1,1,6,0,17,7,Hc,0.3030769230769232,0.44181818181818205,0.01,0.060000000000000005
5,12,24,1,10,0.6100000000000003,2,3,90,115,95,109,2.6300000000000012,0.7400000000000004,0.3100000000000001,0.8000000000000005,6,3,2,2,10,4,2,2,3,0,10,7,Hc,0.2630000000000001,0.18500000000000005,0.15500000000000003,0.4000000000000002
5,13,25,1,4,1.480000000000001,11,13,26,33,31,6,3.1800000000000024,0.8600000000000005,0.8800000000000006,0.7700000000000005,15,3,4,3,18,3,4,5,2,0.5,21,7,Hc,0.17666666666666672,0.2866666666666668,0.22000000000000008,0.15400000000000003
5,13,26,1,5,2.249999999999996,9,14,74,114,118,111,3.549999999999997,0.35000000000000014,2.289999999999995,1.7500000000000013,12,2,5,5,21,2,6,8,5,0.5,9,7,Hc,0.1690476190476191,0.17500000000000004,0.3816666666666669,0.21875000000000006
5,14,27,1,10,0.5500000000000003,3,5,90,27,34,95,2.719999999999998,1.5600000000000012,0.16,0.8600000000000005,8,3,1,4,16,3,1,5,3,0,16,7,Hc,0.17000000000000004,0.5200000000000002,0.16,0.17200000000000007
5,14,28,1,9,1.1400000000000008,2,9,77,69,67,81,4.569999999999972,0.07,0.8400000000000005,0.2700000000000001,6,1,4,2,15,1,4,2,4,0,14,7,Hc,0.3046666666666668,0.07,0.21000000000000008,0.135
5,15,29,1,10,0.6400000000000003,2,3,86,95,89,35,2.4300000000000015,0.49000000000000027,0.3900000000000002,0.37000000000000016,4,1,2,1,6,1,3,1,3,0.5,14,7,Hc,0.4050000000000002,0.49000000000000027,0.13000000000000003,0.37000000000000016
5,15,30,1,5,0.6000000000000003,3,5,38,48,66,63,1.550000000000001,0.38000000000000017,0.8900000000000006,0.3900000000000002,5,1,3,2,8,1,5,4,5,0,18,7,Hc,0.19375000000000006,0.38000000000000017,0.17800000000000005,0.09749999999999999
5,16,31,1,3,0.6500000000000004,3,4,32,105,108,65,2.2500000000000018,1.1600000000000008,0.35000000000000014,0.3000000000000001,5,3,1,2,10,9,1,2,5,0,13,7,Hc,0.22500000000000006,0.12888888888888894,0.35000000000000014,0.15000000000000002
5,16,32,1,5,0.4100000000000002,2,3,41,44,46,114,1.0600000000000005,1.450000000000001,1.270000000000001,0.9500000000000006,4,2,6,4,5,9,7,6,5,0.5,17,7,Hc,0.2120000000000001,0.16111111111111115,0.1814285714285715,0.15833333333333338
5,17,33,1,6,0.5200000000000002,2,6,11,1,10,78,1.600000000000001,0.4400000000000002,1.2300000000000009,1.1800000000000008,6,1,4,4,12,2,6,5,6,0.5,21,7,Hc,0.13333333333333336,0.22000000000000003,0.20500000000000007,0.2360000000000001
5,17,34,1,7,2.289999999999995,11,19,24,20,55,14,2.7399999999999953,1.2000000000000008,0.15,3.789999999999963,13,3,1,9,21,5,2,16,6,0.5,22,7,Hc,0.1304761904761905,0.24000000000000013,0.075,0.23687500000000009
5,18,35,1,8,1.280000000000001,3,7,117,41,65,39,3.3500000000000005,0.37000000000000016,0.6300000000000003,0.11999999999999998,7,2,3,1,18,3,5,1,2,0,16,7,Hc,0.18611111111111117,0.12333333333333334,0.126,0.11999999999999998
5,18,36,1,2,1.0500000000000007,2,4,92,24,18,19,2.370000000000002,1.350000000000001,0.22000000000000006,0.25000000000000006,4,3,1,3,8,10,1,3,4,0.5,21,7,Hc,0.2962500000000001,0.135,0.22000000000000006,0.08333333333333334
5,19,37,1,7,2.52999999999999,10,15,52,36,110,15,6.679999999999946,0.3900000000000002,0.8400000000000005,0.01,17,4,3,1,27,5,4,1,6,0,17,7,Hc,0.24740740740740752,0.078,0.21000000000000005,0.01
5,19,38,1,9,2.8299999999999836,9,16,1,37,10,93,12.919999999999813,0.01,0.13999999999999999,1.6000000000000012,20,1,2,4,49,1,2,5,4,0,20,7,Hc,0.2636734693877552,0.01,0.06999999999999999,0.3200000000000001
5,20,39,1,1,0.6700000000000004,2,4,78,10,73,36,1.8100000000000012,2.569999999999989,0.09999999999999999,0.6600000000000004,5,8,1,3,8,12,1,3,3,0,17,7,Hc,0.2262500000000001,0.21416666666666673,0.09999999999999999,0.22000000000000008
5,20,40,1,9,1.8600000000000014,4,11,95,88,20,13,3.960000000000001,0.3100000000000001,0.2900000000000001,0.18000000000000002,9,2,1,1,21,2,1,1,4,0,18,7,Hc,0.1885714285714286,0.155,0.2900000000000001,0.18000000000000002
5,21,41,1,3,1.0700000000000007,7,7,10,117,91,30,2.370000000000002,1.370000000000001,0.5200000000000002,0.5200000000000002,10,3,2,4,11,6,2,5,5,0,16,7,Hc,0.2154545454545455,0.22833333333333342,0.2600000000000001,0.104
5,21,42,1,4,1.8600000000000014,9,17,105,48,13,103,3.9300000000000015,0.7600000000000005,0.20000000000000004,0.11999999999999998,13,1,1,2,26,1,1,2,2,0,15,7,Hc,0.1511538461538462,0.7600000000000005,0.20000000000000004,0.060000000000000005
6,1,1,0,5,0.35000000000000014,2,3,64,72,17,42,2.829999999999991,1.1700000000000008,0.7600000000000005,0.23000000000000007,4,4,2,2,5,7,4,2,5,0,19,7,Hc,0.5660000000000004,0.1671428571428572,0.19000000000000003,0.11500000000000002
6,1,2,0,1,0.47000000000000025,2,5,7,83,75,31,2.869999999999993,0.8200000000000005,0.7500000000000004,0.4400000000000002,5,2,3,2,16,3,7,2,3,0,17,7,Hc,0.17937500000000006,0.27333333333333343,0.10714285714285718,0.22000000000000006
6,2,3,0,5,0.45000000000000023,2,5,16,17,22,44,3.3799999999999817,2.259999999999996,0.15,0.10999999999999999,6,5,1,1,15,6,1,1,5,0.5,23,7,Hc,0.2253333333333334,0.37666666666666687,0.15,0.10999999999999999
6,2,4,0,1,0.5500000000000003,2,4,74,76,49,84,2.4700000000000015,2.2799999999999954,0.3200000000000001,0.23000000000000007,4,3,1,1,6,11,1,1,3,0.5,13,7,Hc,0.4116666666666669,0.20727272727272733,0.3200000000000001,0.23000000000000007
6,3,5,0,6,0.4400000000000002,2,5,56,39,10,47,3.1599999999999864,1.7100000000000013,0.18000000000000002,0.45000000000000023,6,3,1,2,12,5,1,2,6,0,20,7,Hc,0.2633333333333334,0.34200000000000014,0.18000000000000002,0.22500000000000003
6,3,6,0,3,0.34000000000000014,2,3,107,63,97,35,5.609999999999932,0.47000000000000025,0.19000000000000003,0.05,11,3,1,1,22,3,1,1,5,0,13,7,Hc,0.2550000000000001,0.1566666666666667,0.19000000000000003,0.05
6,4,7,0,1,0.8100000000000005,7,10,36,11,80,35,4.519999999999966,0.7200000000000004,0.24000000000000007,0.2700000000000001,10,2,2,1,21,2,2,1,3,0,19,7,Hc,0.21523809523809534,0.36000000000000015,0.12,0.2700000000000001
6,4,8,0,5,0.3200000000000001,2,4,41,22,53,117,3.059999999999986,7.449999999999886,0.22000000000000006,0.22000000000000006,8,9,1,1,11,27,1,1,5,0,17,7,Hc,0.2781818181818183,0.2759259259259261,0.22000000000000006,0.22000000000000006
6,5,9,0,3,0.2800000000000001,2,3,105,19,69,70,4.249999999999959,0.5600000000000003,0.37000000000000016,0.3100000000000001,7,3,2,1,15,4,3,1,5,0,16,7,Hc,0.28333333333333344,0.14,0.12333333333333334,0.3100000000000001
6,5,10,0,8,0.5600000000000003,5,6,83,78,59,52,3.8799999999999732,1.7600000000000013,0.25000000000000006,0.16,11,3,2,2,16,5,2,2,2,0,14,7,Hc,0.2425000000000001,0.3520000000000002,0.125,0.08
6,6,11,0,1,0.36000000000000015,2,3,80,79,21,47,2.310000000000002,0.8200000000000005,2.1199999999999988,0.15,4,2,3,1,9,2,9,1,3,0,17,7,Hc,0.25666666666666677,0.4100000000000002,0.23555555555555563,0.15
6,6,12,0,3,0.3100000000000001,2,3,36,1,30,72,2.0400000000000014,2.819999999999984,1.6200000000000012,0.13999999999999999,4,2,3,2,5,2,3,2,5,0,20,7,Hc,0.40800000000000025,1.410000000000001,0.5400000000000004,0.07
6,7,13,1,10,0.26000000000000006,2,5,93,72,36,61,1.610000000000001,2.9699999999999807,0.6600000000000004,0.24000000000000007,4,4,2,1,7,12,2,1,3,0,16,7,Hc,0.23000000000000015,0.2475000000000001,0.3300000000000001,0.24000000000000007
6,7,14,1,2,0.4200000000000002,2,3,39,52,10,84,3.4999999999999787,1.7200000000000013,0.24000000000000007,0.2700000000000001,7,3,1,1,10,6,1,1,4,0,18,7,Hc,0.35000000000000014,0.2866666666666668,0.24000000000000007,0.2700000000000001
6,8,15,1,8,0.3300000000000001,2,4,70,62,14,19,3.7699999999999707,0.45000000000000023,1.460000000000001,0.3000000000000001,6,1,3,1,14,1,5,1,2,0,20,7,Hc,0.2692857142857144,0.45000000000000023,0.2920000000000001,0.3000000000000001
6,8,16,1,5,0.38000000000000017,3,4,37,57,41,3,3.349999999999981,0.5000000000000002,0.4000000000000002,0.48000000000000026,6,1,1,1,15,1,1,1,5,0,20,7,Hc,0.22333333333333344,0.5000000000000002,0.4000000000000002,0.48000000000000026
6,9,17,1,8,0.18000000000000002,2,4,47,72,70,6,4.329999999999956,0.5000000000000002,0.35000000000000014,0.21000000000000005,7,2,2,1,19,4,2,1,2,0,19,7,Hc,0.22789473684210534,0.125,0.17500000000000004,0.21000000000000005
6,9,18,1,2,0.24000000000000007,2,3,56,24,60,33,3.0399999999999845,1.0200000000000007,0.2900000000000001,1.320000000000001,5,3,1,3,13,5,1,4,4,0,19,7,Hc,0.23384615384615393,0.20400000000000004,0.2900000000000001,0.3300000000000001
6,10,19,1,1,0.4000000000000002,2,3,58,50,31,26,4.149999999999964,0.6900000000000004,0.7500000000000004,0.2900000000000001,6,2,2,1,12,2,3,1,3,0,18,7,Hc,0.3458333333333335,0.34500000000000014,0.25000000000000006,0.2900000000000001
6,10,20,1,8,0.21000000000000005,2,3,113,71,43,9,2.7599999999999896,0.7600000000000005,1.2500000000000009,0.2900000000000001,5,2,2,1,10,2,4,1,2,0,17,7,Hc,0.27600000000000013,0.38000000000000017,0.3125000000000001,0.2900000000000001
6,11,21,1,9,0.3100000000000001,2,3,21,78,46,72,4.519999999999955,0.4100000000000002,0.9700000000000006,0.18000000000000002,8,1,2,2,22,1,3,2,4,0,18,7,Hc,0.20545454545454553,0.4100000000000002,0.3233333333333335,0.09
6,11,22,1,10,0.6300000000000003,4,6,94,25,27,87,2.3600000000000017,2.299999999999995,0.3900000000000002,1.7200000000000013,6,2,2,4,9,9,2,5,3,0,16,7,Hc,0.26222222222222236,0.25555555555555565,0.19500000000000003,0.34400000000000014
6,12,23,1,10,0.5300000000000002,2,2,17,87,68,85,9.789999999999846,0.01,0.01,0.02,14,1,1,1,30,1,1,1,3,0,16,7,Hc,0.3263333333333335,0.01,0.01,0.02
6,12,24,1,8,0.38000000000000017,3,4,119,42,118,53,2.270000000000002,2.5599999999999894,0.18000000000000002,0.26000000000000006,5,5,1,2,8,8,1,3,2,0,13,7,Hc,0.2837500000000001,0.3200000000000001,0.18000000000000002,0.08666666666666668
6,13,25,1,4,0.10999999999999999,1,2,102,30,74,32,4.469999999999952,0.34000000000000014,0.3300000000000001,0.7400000000000004,5,1,1,2,15,1,1,2,2,0,15,7,Hc,0.29800000000000015,0.34000000000000014,0.3300000000000001,0.3700000000000002
6,13,26,1,8,0.24000000000000007,2,3,117,115,15,89,3.109999999999983,0.7700000000000005,0.5400000000000003,0.5300000000000002,6,2,1,1,17,5,1,1,2,0,13,7,Hc,0.18294117647058827,0.15400000000000003,0.5400000000000003,0.5300000000000002
6,14,27,1,9,0.20000000000000004,2,3,35,65,26,87,3.629999999999971,0.3000000000000001,1.290000000000001,0.16,7,3,3,1,14,4,5,1,4,0,17,7,Hc,0.2592857142857144,0.075,0.25800000000000006,0.16
6,14,28,1,5,0.17,2,3,114,111,115,46,4.039999999999962,0.3300000000000001,0.6100000000000003,0.12999999999999998,7,2,3,1,16,2,5,1,5,0.5,11,7,Hc,0.2525000000000001,0.16500000000000004,0.12200000000000001,0.12999999999999998
6,15,29,1,9,0.2800000000000001,2,3,31,8,63,91,4.0899999999999626,5.089999999999936,0.12999999999999998,0.01,11,8,1,1,16,19,1,1,4,0,18,7,Hc,0.2556250000000001,0.26789473684210535,0.12999999999999998,0.01
6,15,30,1,5,1.0900000000000007,12,14,118,117,17,57,5.919999999999942,0.09999999999999999,0.5200000000000002,0.09,19,1,1,1,28,1,1,1,5,0,14,7,Hc,0.2114285714285715,0.09999999999999999,0.5200000000000002,0.09
6,16,31,1,6,0.2700000000000001,2,3,56,95,53,3,3.0499999999999847,0.8400000000000005,0.8300000000000005,0.12999999999999998,6,2,3,1,8,4,3,1,6,0,17,7,Hc,0.3812500000000002,0.21000000000000008,0.2766666666666668,0.12999999999999998
6,16,32,1,8,0.7400000000000004,5,6,21,33,32,20,4.329999999999968,0.8600000000000005,0.46000000000000024,0.04,9,2,2,1,12,7,3,1,2,0,22,7,Hc,0.3608333333333335,0.12285714285714287,0.15333333333333338,0.04
6,17,33,1,3,0.3200000000000001,2,3,63,115,4,36,4.349999999999959,0.5400000000000003,1.0300000000000007,0.09999999999999999,9,1,5,1,19,1,5,1,5,0,17,7,Hc,0.2289473684210527,0.5400000000000003,0.20600000000000004,0.09999999999999999
6,17,34,1,5,0.17,2,3,22,53,45,23,2.319999999999998,0.9000000000000006,0.9400000000000006,0.5600000000000003,5,2,2,2,10,2,4,3,5,0,21,7,Hc,0.23200000000000012,0.45000000000000023,0.23500000000000007,0.1866666666666667
6,18,35,1,8,0.37000000000000016,2,3,86,63,72,96,4.949999999999947,0.2700000000000001,0.5400000000000003,0.5400000000000003,10,2,3,2,20,3,4,5,2,0,14,7,Hc,0.24750000000000008,0.09000000000000001,0.135,0.10799999999999998
6,18,36,1,4,0.3000000000000001,3,6,99,58,100,55,2.8099999999999907,0.5800000000000003,0.6200000000000003,0.36000000000000015,8,1,2,1,20,1,4,1,2,0,12,7,Hc,0.1405,0.5800000000000003,0.15500000000000005,0.36000000000000015
6,19,37,1,4,0.19000000000000003,2,4,100,59,74,42,4.609999999999951,0.15,1.2200000000000009,0.3000000000000001,10,1,2,1,20,2,4,1,2,0,14,7,Hc,0.2305000000000001,0.07499999999999998,0.30500000000000016,0.3000000000000001
6,19,38,1,3,0.36000000000000015,2,3,18,23,35,14,4.179999999999962,0.45000000000000023,0.4400000000000002,0.22000000000000006,5,2,2,1,14,2,2,1,5,0.5,23,7,Hc,0.2985714285714287,0.22500000000000006,0.22000000000000003,0.22000000000000006
6,20,39,1,9,0.3000000000000001,2,4,61,83,81,72,3.369999999999979,0.7600000000000005,0.7900000000000005,0.21000000000000005,6,2,3,1,13,2,3,1,4,0,14,7,Hc,0.2592307692307693,0.38000000000000017,0.2633333333333334,0.21000000000000005
6,20,40,1,2,0.4400000000000002,2,5,2,51,42,9,4.409999999999959,0.8100000000000005,0.5000000000000002,2.7999999999999843,8,3,1,5,17,5,1,8,4,0,21,7,Hc,0.25941176470588245,0.16200000000000006,0.5000000000000002,0.35000000000000014
6,21,41,1,7,0.2800000000000001,2,3,18,15,86,55,2.639999999999994,1.320000000000001,1.390000000000001,0.2900000000000001,5,2,4,2,7,6,4,3,6,0,19,7,Hc,0.37714285714285734,0.22000000000000006,0.34750000000000014,0.09666666666666668
6,21,42,1,4,0.9700000000000006,15,16,3,61,107,81,4.359999999999973,0.6100000000000003,0.3200000000000001,0.5800000000000003,19,1,2,2,23,1,3,3,2,0,15,7,Hc,0.18956521739130444,0.6100000000000003,0.10666666666666669,0.19333333333333338
7,1,1,0,1,0.3900000000000002,2,3,15,22,29,107,8.56999999999987,0.01,0.01,0.01,13,1,1,1,29,1,1,1,3,0,19,7,Hc,0.29551724137931046,0.01,0.01,0.01
7,1,2,0,10,0.6900000000000004,7,8,89,59,43,93,1.8800000000000012,1.260000000000001,0.5400000000000003,1.2300000000000009,9,2,3,3,13,4,3,5,3,0,15,7,Hc,0.14461538461538465,0.3150000000000001,0.18000000000000005,0.24600000000000008
7,2,3,0,10,0.22000000000000006,2,3,95,91,87,34,1.680000000000001,0.6200000000000003,0.38000000000000017,0.47000000000000025,5,2,1,1,7,3,1,1,3,0.5,14,7,Hc,0.2400000000000001,0.20666666666666675,0.38000000000000017,0.47000000000000025
7,2,4,0,1,0.2700000000000001,2,2,14,20,51,53,6.3399999999999155,0.01,0.02,0.02,8,1,2,1,23,1,2,1,3,0,20,7,Hc,0.2756521739130436,0.01,0.01,0.02
7,3,5,0,6,0.17,1,2,51,39,59,11,3.1899999999999795,2.9799999999999804,0.09999999999999999,0.15,5,7,1,2,14,11,1,2,6,0,19,7,Hc,0.22785714285714292,0.270909090909091,0.09999999999999999,0.075
7,3,6,0,4,0.4200000000000002,2,6,20,23,67,65,2.599999999999998,0.46000000000000024,1.340000000000001,0.12999999999999998,5,2,4,1,9,2,4,1,2,0,20,7,Hc,0.28888888888888903,0.23000000000000012,0.3350000000000002,0.12999999999999998
7,4,7,0,3,0.36000000000000015,2,6,102,16,94,91,3.7399999999999722,0.24000000000000007,0.3100000000000001,0.23000000000000007,7,2,2,1,16,2,2,1,5,0,14,7,Hc,0.2337500000000001,0.12000000000000002,0.15500000000000005,0.23000000000000007
7,4,8,0,2,0.5100000000000002,4,5,77,73,50,40,3.939999999999971,0.3200000000000001,2.1799999999999975,1.0600000000000007,9,1,4,4,19,2,5,5,4,0,15,7,Hc,0.20736842105263165,0.16000000000000003,0.4360000000000003,0.21200000000000008
7,5,9,0,9,0.36000000000000015,2,4,68,65,61,90,2.8299999999999916,0.5400000000000003,0.18000000000000002,0.16,5,2,1,1,12,3,1,1,4,0.5,15,7,Hc,0.23583333333333342,0.18000000000000002,0.18000000000000002,0.16
7,5,10,0,1,0.36000000000000015,2,3,84,78,9,116,1.8400000000000012,0.7300000000000004,1.7500000000000013,2.159999999999998,4,1,3,4,7,1,10,8,3,0,14,7,Hc,0.26285714285714296,0.7300000000000004,0.17500000000000004,0.27000000000000013
7,6,11,0,9,0.3100000000000001,2,3,19,67,13,18,3.6299999999999732,0.11999999999999998,0.5200000000000002,0.09,8,1,1,2,13,1,1,2,4,0.5,22,7,Hc,0.27923076923076934,0.11999999999999998,0.5200000000000002,0.045000000000000005
7,6,12,0,2,0.26000000000000006,2,3,9,56,51,1,2.5999999999999943,0.5800000000000003,0.18000000000000002,0.23000000000000007,6,2,1,1,7,3,1,1,4,0,20,7,Hc,0.3714285714285716,0.19333333333333336,0.18000000000000002,0.23000000000000007
7,7,13,1,9,0.21000000000000005,2,3,64,105,68,85,2.0300000000000016,1.2100000000000009,0.46000000000000024,0.15,6,1,2,1,8,2,2,1,4,0,13,7,Hc,0.2537500000000001,0.6050000000000003,0.23000000000000004,0.15
7,7,14,1,1,0.3300000000000001,2,4,58,118,79,75,4.6899999999999515,0.17,0.05,0.05,9,1,1,1,22,1,1,1,3,0,12,7,Hc,0.21318181818181825,0.17,0.05,0.05
7,8,15,1,4,0.26000000000000006,2,4,108,16,83,29,4.399999999999956,0.09999999999999999,0.11999999999999998,0.09,8,1,1,1,17,1,1,1,2,0,16,7,Hc,0.25882352941176484,0.09999999999999999,0.11999999999999998,0.09
7,8,16,1,8,0.5800000000000003,2,7,53,37,90,118,2.9199999999999946,1.440000000000001,0.11999999999999998,0.08,5,3,1,1,13,4,1,1,2,0,14,7,Hc,0.2246153846153847,0.36000000000000015,0.11999999999999998,0.08
7,9,17,1,9,0.4200000000000002,2,4,67,44,66,11,2.649999999999997,0.7000000000000004,1.1200000000000008,0.15,5,1,4,2,11,1,9,3,4,0,19,7,Hc,0.240909090909091,0.7000000000000004,0.12444444444444448,0.05
7,9,18,1,7,0.3200000000000001,2,3,56,74,33,32,3.229999999999982,0.4200000000000002,0.5100000000000002,2.199999999999997,7,2,2,3,12,2,3,3,6,0,17,7,Hc,0.2691666666666668,0.21000000000000005,0.17000000000000007,0.7333333333333338
7,10,19,1,3,0.3300000000000001,2,3,29,77,34,10,1.610000000000001,1.5800000000000012,0.18000000000000002,1.7600000000000013,4,4,1,2,5,4,1,2,5,0,19,7,Hc,0.3220000000000002,0.3950000000000002,0.18000000000000002,0.8800000000000007
7,10,20,1,7,0.6000000000000003,2,3,23,38,19,17,2.540000000000002,0.8100000000000005,0.3100000000000001,7.139999999999892,5,2,2,10,11,2,2,20,6,0.5,23,7,Hc,0.23090909090909098,0.4050000000000002,0.15500000000000003,0.35700000000000015
7,11,21,1,1,0.35000000000000014,3,5,83,79,112,53,1.750000000000001,1.370000000000001,0.5900000000000003,0.5000000000000002,4,2,2,2,7,3,2,3,3,0,12,7,Hc,0.2500000000000001,0.4566666666666669,0.29500000000000015,0.16666666666666669
7,11,22,1,10,0.6500000000000004,3,5,94,1,66,86,4.059999999999972,0.4000000000000002,0.25000000000000006,0.2900000000000001,10,2,1,2,20,3,1,2,3,0,16,7,Hc,0.20300000000000007,0.13333333333333336,0.25000000000000006,0.145
7,12,23,1,4,0.5700000000000003,2,4,106,37,2,84,2.2000000000000015,0.5500000000000003,0.4100000000000002,0.4300000000000002,4,2,1,1,7,2,1,1,2,0,16,7,Hc,0.31428571428571445,0.27500000000000013,0.4100000000000002,0.4300000000000002
7,12,24,1,3,0.4300000000000002,4,6,26,69,35,118,1.9900000000000013,2.239999999999996,0.07,0.19000000000000003,7,3,1,2,10,7,1,2,5,0,16,7,Hc,0.19900000000000007,0.3200000000000002,0.07,0.095
7,13,25,1,6,0.6000000000000003,2,3,11,112,41,45,2.2700000000000014,0.8200000000000005,0.4300000000000002,0.16,5,2,2,2,9,3,3,2,6,0,18,7,Hc,0.25222222222222235,0.27333333333333343,0.1433333333333333,0.07999999999999999
7,13,26,1,7,0.26000000000000006,2,4,24,61,88,72,2.1300000000000017,1.5500000000000012,0.6800000000000004,0.07,4,3,2,1,12,5,4,1,6,0,17,7,Hc,0.17750000000000005,0.3100000000000001,0.17000000000000004,0.07
7,14,27,1,9,0.38000000000000017,4,6,108,89,62,71,3.8999999999999693,0.07,0.08,0.05,10,1,1,1,21,1,1,1,4,0,13,7,Hc,0.18571428571428578,0.07,0.08,0.05
7,14,28,1,2,0.47000000000000025,2,4,48,51,38,8,3.2699999999999845,0.6500000000000004,0.25000000000000006,0.10999999999999999,6,3,3,1,12,7,4,1,4,0,20,7,Hc,0.2725000000000001,0.09285714285714286,0.0625,0.10999999999999999
7,15,29,1,8,0.38000000000000017,2,3,94,113,17,67,3.4199999999999795,0.46000000000000024,0.37000000000000016,0.09999999999999999,7,2,2,1,12,3,3,1,2,0,15,7,Hc,0.28500000000000014,0.15333333333333335,0.12333333333333332,0.09999999999999999
7,15,30,1,2,0.35000000000000014,2,3,59,100,97,4,3.1399999999999846,0.6400000000000003,0.6800000000000004,0.13999999999999999,8,2,3,1,12,3,4,1,4,0,14,7,Hc,0.26166666666666677,0.21333333333333337,0.17000000000000004,0.13999999999999999
7,16,31,1,5,0.25000000000000006,2,3,46,48,49,81,3.2399999999999802,0.45000000000000023,0.26000000000000006,0.34000000000000014,7,2,3,2,11,2,3,3,5,0,17,7,Hc,0.29454545454545467,0.22500000000000003,0.08666666666666666,0.11333333333333333
7,16,32,1,8,0.3900000000000002,2,3,24,72,23,66,2.9399999999999897,0.9000000000000006,0.17,0.05,5,4,1,1,7,5,1,1,2,0,20,7,Hc,0.4200000000000002,0.18000000000000005,0.17,0.05
7,17,33,1,1,0.3100000000000001,2,3,74,1,5,6,2.320000000000001,1.370000000000001,0.4400000000000002,0.36000000000000015,6,4,2,2,9,9,3,2,3,0.5,21,7,Hc,0.2577777777777779,0.15222222222222226,0.14666666666666667,0.18000000000000002
7,17,34,1,8,0.3300000000000001,2,3,63,18,16,44,3.6499999999999733,0.25000000000000006,0.3100000000000001,0.6500000000000004,8,1,1,2,19,2,1,6,2,0,21,7,Hc,0.1921052631578948,0.12500000000000003,0.3100000000000001,0.10833333333333334
7,18,35,1,6,0.2900000000000001,2,3,81,79,111,42,2.909999999999988,0.35000000000000014,1.0100000000000007,0.11999999999999998,6,2,3,1,12,3,6,1,6,0,13,7,Hc,0.24250000000000008,0.1166666666666667,0.16833333333333336,0.11999999999999998
7,18,36,1,3,0.21000000000000005,2,2,13,51,98,26,14.829999999999734,0.03,0.01,0.01,20,1,1,1,44,1,1,1,5,0,17,7,Hc,0.3370454545454547,0.03,0.01,0.01
7,19,37,1,3,0.25000000000000006,2,3,115,70,29,20,2.459999999999997,0.35000000000000014,0.3300000000000001,0.6400000000000003,5,2,2,2,10,2,2,4,5,0,17,7,Hc,0.24600000000000008,0.17500000000000007,0.16500000000000004,0.16000000000000003
7,19,38,1,6,0.3100000000000001,3,4,51,47,40,11,2.8199999999999905,1.0900000000000007,2.9899999999999802,1.5600000000000012,6,2,4,5,15,5,6,5,6,0,20,7,Hc,0.18800000000000006,0.21800000000000005,0.49833333333333363,0.3120000000000001
7,20,39,1,7,0.3200000000000001,2,4,19,22,13,110,1.540000000000001,0.7500000000000004,1.6500000000000012,0.26000000000000006,4,2,3,1,8,3,4,1,6,0.5,20,7,Hc,0.1925000000000001,0.2500000000000001,0.4125000000000002,0.26000000000000006
7,20,40,1,6,0.2900000000000001,2,4,104,36,12,9,3.4999999999999756,0.4400000000000002,0.6700000000000004,2.619999999999988,5,1,3,4,9,1,3,9,6,0,19,7,Hc,0.3888888888888891,0.4400000000000002,0.2233333333333334,0.2911111111111112
7,21,41,1,1,0.4100000000000002,3,6,114,45,79,50,3.459999999999979,0.3000000000000001,0.09999999999999999,0.15,8,1,1,1,15,1,1,1,3,0,14,7,Hc,0.23066666666666677,0.3000000000000001,0.09999999999999999,0.15
7,21,42,1,4,1.1400000000000008,3,4,61,72,104,20,2.950000000000002,0.8500000000000005,0.4200000000000002,0.2700000000000001,6,3,2,1,9,3,2,1,2,0,16,7,Hc,0.32777777777777795,0.28333333333333344,0.21000000000000008,0.2700000000000001
8,1,1,0,3,0.6500000000000004,2,5,118,7,9,34,4.089999999999971,0.3000000000000001,0.9600000000000006,0.16,8,1,2,1,16,1,4,1,5,0,19,7,Hc,0.2556250000000001,0.3000000000000001,0.24000000000000007,0.16
8,1,2,0,5,0.3000000000000001,2,5,18,47,19,77,3.7499999999999707,0.37000000000000016,0.5500000000000003,0.15,6,2,2,1,14,2,6,1,5,0,20,7,Hc,0.26785714285714296,0.18500000000000003,0.09166666666666667,0.15
8,2,3,0,5,0.6400000000000003,2,6,113,21,54,42,3.599999999999981,0.4100000000000002,0.2700000000000001,0.4300000000000002,6,1,1,2,16,1,1,2,5,0,17,7,Hc,0.22500000000000006,0.4100000000000002,0.2700000000000001,0.21500000000000005
8,2,4,0,10,0.37000000000000016,3,4,86,62,33,97,2.2300000000000018,2.159999999999998,1.0900000000000007,0.22000000000000006,5,4,2,1,9,11,2,1,3,0,14,7,Hc,0.24777777777777787,0.19636363636363643,0.5450000000000004,0.22000000000000006
8,3,5,0,9,0.5200000000000002,2,5,72,61,116,63,4.139999999999967,0.3900000000000002,0.16,0.12999999999999998,7,2,1,1,23,4,1,1,4,0.5,14,7,Hc,0.18000000000000005,0.0975,0.16,0.12999999999999998
8,3,6,0,2,0.6500000000000004,2,5,26,25,92,96,4.329999999999966,0.6500000000000004,0.26000000000000006,0.2900000000000001,7,3,1,1,18,3,1,1,4,0,16,7,Hc,0.24055555555555563,0.21666666666666673,0.26000000000000006,0.2900000000000001
8,4,7,0,10,0.3900000000000002,2,3,15,38,57,19,3.86999999999997,0.9900000000000007,0.22000000000000006,0.08,7,3,1,1,9,3,1,1,3,0,21,7,Hc,0.4300000000000002,0.3300000000000001,0.22000000000000006,0.08
8,4,8,0,9,0.4000000000000002,2,3,66,28,10,109,1.9100000000000013,1.420000000000001,2.1299999999999986,0.10999999999999999,4,3,3,1,5,4,12,1,4,0,17,7,Hc,0.3820000000000002,0.35500000000000015,0.17750000000000005,0.10999999999999999
8,5,9,0,10,0.5500000000000003,2,7,85,48,50,118,3.239999999999987,1.460000000000001,0.4100000000000002,0.2900000000000001,6,3,2,1,17,6,2,1,3,0,14,7,Hc,0.19058823529411772,0.24333333333333343,0.20500000000000004,0.2900000000000001
8,5,10,0,7,0.25000000000000006,2,4,15,74,70,16,2.819999999999989,1.320000000000001,0.2800000000000001,0.5500000000000003,6,5,1,2,13,10,1,4,6,0,19,7,Hc,0.21692307692307702,0.13200000000000003,0.2800000000000001,0.1375
8,6,11,0,2,0.3900000000000002,2,4,24,56,45,42,2.46,0.8800000000000006,1.0300000000000007,0.2800000000000001,5,2,2,1,11,3,5,1,4,0,20,7,Hc,0.2236363636363637,0.29333333333333345,0.20600000000000004,0.2800000000000001
8,6,12,0,6,0.2700000000000001,2,3,93,25,11,87,3.7599999999999696,0.35000000000000014,0.21000000000000005,0.36000000000000015,7,1,3,3,18,3,3,5,6,0,17,7,Hc,0.20888888888888896,0.11666666666666665,0.07,0.07200000000000001
8,7,13,1,1,0.5300000000000002,4,5,82,76,65,83,2.9199999999999933,0.8300000000000005,0.6300000000000003,0.18000000000000002,7,2,2,1,16,5,4,1,3,0.5,13,7,Hc,0.18250000000000005,0.16600000000000004,0.15750000000000003,0.18000000000000002
8,7,14,1,7,0.36000000000000015,2,5,57,85,89,95,6.259999999999919,0.02,0.21000000000000005,1.0400000000000007,11,1,2,3,23,1,2,3,6,0.5,13,7,Hc,0.2721739130434784,0.02,0.10500000000000001,0.34666666666666685
8,8,15,1,5,0.5300000000000002,2,4,46,45,44,80,3.6699999999999773,0.5800000000000003,1.470000000000001,0.4200000000000002,8,2,4,1,20,3,10,2,5,0.5,18,7,Hc,0.18350000000000005,0.19333333333333336,0.14700000000000005,0.21000000000000002
8,8,16,1,10,0.5400000000000003,2,3,32,96,95,62,4.349999999999963,0.5100000000000002,0.9200000000000006,0.05,8,3,4,1,14,4,4,1,3,0,15,7,Hc,0.31071428571428583,0.1275,0.2300000000000001,0.05
8,9,17,1,3,0.26000000000000006,2,3,28,29,33,13,3.029999999999985,0.6300000000000003,0.6400000000000003,0.16,7,3,2,1,11,5,4,1,5,0.5,21,7,Hc,0.27545454545454556,0.12600000000000003,0.16000000000000003,0.16
8,9,18,1,4,0.36000000000000015,2,3,99,37,10,7,3.649999999999974,0.6300000000000003,0.35000000000000014,0.4200000000000002,8,2,1,2,12,4,1,3,2,0,19,7,Hc,0.3041666666666668,0.15750000000000006,0.35000000000000014,0.14000000000000004
8,10,19,1,5,0.38000000000000017,2,5,46,77,75,99,3.6999999999999735,1.1500000000000008,1.490000000000001,0.2800000000000001,7,2,6,2,15,2,7,3,5,0,13,7,Hc,0.24666666666666676,0.5750000000000003,0.21285714285714294,0.09333333333333335
8,10,20,1,3,0.21000000000000005,2,3,91,68,94,88,3.20999999999998,1.330000000000001,0.15,0.6200000000000003,6,4,1,3,16,5,1,3,5,0.5,13,7,Hc,0.20062500000000005,0.2660000000000001,0.15,0.20666666666666672
8,11,21,1,4,0.7400000000000004,9,11,107,37,10,93,3.1499999999999932,1.0200000000000007,0.8000000000000005,0.12999999999999998,11,3,3,1,17,5,5,1,2,0,16,7,Hc,0.1852941176470589,0.20400000000000007,0.16000000000000006,0.12999999999999998
8,11,22,1,9,0.24000000000000007,2,3,63,17,31,27,2.3000000000000003,3.229999999999975,0.2900000000000001,1.1400000000000008,6,10,1,4,9,11,1,6,4,0,20,7,Hc,0.25555555555555565,0.29363636363636375,0.2900000000000001,0.19000000000000009
8,12,23,1,2,0.4100000000000002,2,4,58,60,57,23,2.94999999999999,1.1400000000000008,0.13999999999999999,0.6900000000000004,5,5,1,2,15,7,1,2,4,0.5,18,7,Hc,0.1966666666666667,0.1628571428571429,0.13999999999999999,0.34500000000000014
8,12,24,1,1,0.5600000000000003,6,7,38,3,82,45,4.0099999999999705,2.899999999999982,0.37000000000000016,1.480000000000001,11,7,2,2,16,10,3,3,3,0,19,7,Hc,0.2506250000000001,0.29000000000000015,0.12333333333333334,0.4933333333333336
8,13,25,1,2,0.22000000000000006,2,3,52,99,90,87,2.329999999999999,1.270000000000001,1.420000000000001,0.26000000000000006,5,3,2,1,8,3,5,1,4,0,12,7,Hc,0.2912500000000001,0.42333333333333356,0.2840000000000001,0.26000000000000006
8,13,26,1,1,0.38000000000000017,2,6,75,35,10,8,3.199999999999984,0.9400000000000006,0.2800000000000001,0.19000000000000003,5,2,2,2,16,3,2,2,3,0,20,7,Hc,0.20000000000000007,0.31333333333333346,0.14000000000000004,0.09500000000000001
8,14,27,1,5,0.4100000000000002,2,3,1,70,103,39,17.6799999999999,0.02,0.01,0.02,20,1,1,1,68,1,1,1,5,0,17,7,Hc,0.2600000000000001,0.02,0.01,0.02
8,14,28,1,7,0.19000000000000003,2,3,18,36,17,73,2.429999999999996,0.8400000000000005,0.6900000000000004,1.6200000000000012,7,2,2,5,11,4,7,7,6,0,20,7,Hc,0.220909090909091,0.21000000000000008,0.09857142857142857,0.23142857142857148
8,15,29,1,3,0.35000000000000014,3,5,6,1,31,62,4.039999999999965,0.22000000000000006,0.19000000000000003,0.19000000000000003,7,1,1,1,15,1,1,1,5,0,21,7,Hc,0.2693333333333334,0.22000000000000006,0.19000000000000003,0.19000000000000003
8,15,30,1,2,0.5900000000000003,5,8,84,50,119,114,5.93999999999993,0.05,0.9200000000000006,0.10999999999999999,15,1,3,1,23,1,3,1,4,0,11,7,Hc,0.2582608695652175,0.05,0.30666666666666675,0.10999999999999999
8,16,31,1,1,0.3900000000000002,3,4,81,53,83,55,2.7699999999999934,1.7600000000000013,0.10999999999999999,0.21000000000000005,7,4,1,2,13,5,1,2,3,0,14,7,Hc,0.21307692307692314,0.35200000000000015,0.10999999999999999,0.10500000000000001
8,16,32,1,8,0.6200000000000003,2,4,117,93,12,40,3.5299999999999825,1.5500000000000012,0.46000000000000024,0.07,6,5,2,1,12,8,3,1,2,0,16,7,Hc,0.2941666666666668,0.19375000000000006,0.15333333333333338,0.07
8,17,33,1,9,0.4200000000000002,2,4,104,31,24,20,3.1699999999999857,0.6000000000000003,1.5700000000000012,0.3900000000000002,6,1,4,1,12,1,5,1,4,0,19,7,Hc,0.26416666666666677,0.6000000000000003,0.31400000000000017,0.3900000000000002
8,17,34,1,8,0.4100000000000002,2,3,54,118,56,52,3.3899999999999806,0.3900000000000002,0.38000000000000017,0.2800000000000001,6,1,1,1,12,1,1,1,2,0.5,14,7,Hc,0.28250000000000014,0.3900000000000002,0.38000000000000017,0.2800000000000001
8,18,35,1,1,0.49000000000000027,2,4,76,32,77,25,3.6099999999999777,0.47000000000000025,0.4000000000000002,0.25000000000000006,5,1,2,1,10,2,2,1,3,0,16,7,Hc,0.36100000000000015,0.2350000000000001,0.20000000000000007,0.25000000000000006
8,18,36,1,8,0.24000000000000007,2,3,6,4,44,67,3.869999999999967,1.260000000000001,0.20000000000000004,0.17,8,4,1,2,16,5,1,2,2,0,21,7,Hc,0.2418750000000001,0.25200000000000006,0.20000000000000004,0.08499999999999999
8,19,37,1,10,0.3900000000000002,3,5,91,90,51,35,3.6199999999999752,0.19000000000000003,0.48000000000000026,0.8700000000000006,6,1,1,2,17,1,1,4,3,0,15,7,Hc,0.2129411764705883,0.19000000000000003,0.48000000000000026,0.21750000000000005
8,19,38,1,9,0.20000000000000004,2,3,11,78,116,66,3.5499999999999727,0.25000000000000006,0.5900000000000003,0.12999999999999998,7,1,1,1,17,1,1,1,4,0,15,7,Hc,0.20882352941176477,0.25000000000000006,0.5900000000000003,0.12999999999999998
8,20,39,1,1,0.47000000000000025,2,5,76,45,79,9,4.519999999999959,0.2700000000000001,0.09,0.17,6,1,1,1,19,1,1,1,3,0,17,7,Hc,0.23789473684210535,0.2700000000000001,0.09,0.17
8,20,40,1,3,0.4000000000000002,2,4,90,26,107,106,4.1699999999999635,0.20000000000000004,0.3100000000000001,0.09999999999999999,6,1,2,1,15,1,3,1,5,0,12,7,Hc,0.27800000000000014,0.20000000000000004,0.10333333333333333,0.09999999999999999
8,21,41,1,3,0.46000000000000024,2,3,26,33,24,76,2.7499999999999956,1.2200000000000009,1.420000000000001,0.18000000000000002,5,2,2,1,11,6,2,1,5,0,19,7,Hc,0.2500000000000001,0.2033333333333334,0.7100000000000004,0.18000000000000002
8,21,42,1,4,0.2800000000000001,2,3,104,105,1,7,17.489999999999892,0.7100000000000004,8.409999999999865,0.01,20,3,14,1,64,3,24,1,2,0,16,7,Hc,0.2732812500000001,0.23666666666666675,0.35041666666666677,0.01
9,1,1,0,6,1.0600000000000007,2,7,36,110,12,119,7.939999999999898,0.47000000000000025,0.4400000000000002,4.269999999999953,9,1,1,5,32,1,1,16,6,0,15,7,Hc,0.2481250000000001,0.47000000000000025,0.4400000000000002,0.26687500000000014
9,1,2,0,5,0.38000000000000017,2,3,64,48,100,44,3.5199999999999774,1.7700000000000014,2.2299999999999964,0.25000000000000006,5,4,3,1,10,4,9,1,5,0,16,7,Hc,0.35200000000000015,0.4425000000000002,0.24777777777777787,0.25000000000000006
9,2,3,0,3,0.6700000000000004,2,5,33,79,2,118,4.8399999999999554,1.1500000000000008,0.49000000000000027,0.9300000000000006,5,2,1,2,15,2,1,3,5,0,16,7,Hc,0.3226666666666668,0.5750000000000004,0.49000000000000027,0.31000000000000016
9,2,4,0,7,0.4200000000000002,2,3,47,103,60,20,6.849999999999907,1.0800000000000007,0.3100000000000001,0.35000000000000014,10,3,2,2,22,3,3,2,6,0,17,7,Hc,0.3113636363636365,0.36000000000000015,0.10333333333333336,0.17500000000000007
9,3,5,0,4,0.38000000000000017,2,3,22,14,47,56,4.769999999999951,2.719999999999986,0.6500000000000004,0.20000000000000004,7,3,2,1,18,15,2,1,2,0,21,7,Hc,0.2650000000000001,0.18133333333333337,0.3250000000000001,0.20000000000000004
9,3,6,0,10,0.13999999999999999,1,2,95,62,88,64,2.769999999999988,1.490000000000001,0.5700000000000003,0.8700000000000006,4,2,2,2,9,2,4,3,3,0,14,7,Hc,0.30777777777777793,0.7450000000000004,0.14250000000000004,0.29000000000000015
9,4,7,0,1,0.38000000000000017,3,4,7,9,60,79,5.979999999999925,0.8800000000000006,0.47000000000000025,0.2700000000000001,9,2,2,1,19,2,5,1,3,0,19,7,Hc,0.3147368421052633,0.4400000000000002,0.09400000000000001,0.2700000000000001
9,4,8,0,7,0.48000000000000026,2,4,68,23,102,19,6.959999999999907,7.039999999999894,0.20000000000000004,0.04,9,5,1,1,23,23,1,1,6,0,18,7,Hc,0.3026086956521741,0.3060869565217393,0.20000000000000004,0.04
9,5,9,0,3,0.4200000000000002,2,3,69,27,25,66,4.83999999999995,0.5500000000000003,3.049999999999979,0.18000000000000002,6,1,4,1,17,1,15,1,5,0,18,7,Hc,0.28470588235294125,0.5500000000000003,0.2033333333333334,0.18000000000000002
9,5,10,0,5,0.5500000000000003,5,6,47,111,91,7,3.2499999999999867,4.159999999999956,1.300000000000001,0.2900000000000001,9,3,2,2,13,9,3,4,5,0,16,7,Hc,0.2500000000000001,0.4622222222222225,0.43333333333333357,0.0725
9,6,11,0,3,0.49000000000000027,2,3,27,54,14,23,3.7499999999999747,3.379999999999972,1.0500000000000007,0.3900000000000002,4,3,2,2,10,15,6,2,5,0,21,7,Hc,0.37500000000000017,0.2253333333333334,0.17500000000000007,0.19500000000000003
9,6,12,0,6,0.5300000000000002,2,3,108,43,104,69,7.219999999999902,1.1100000000000008,0.49000000000000027,0.19000000000000003,9,2,2,1,25,3,3,1,6,0,13,7,Hc,0.2888000000000001,0.37000000000000016,0.16333333333333339,0.19000000000000003
9,7,13,1,9,0.21000000000000005,2,3,25,63,89,69,4.7999999999999465,0.6900000000000004,1.8500000000000014,0.20000000000000004,6,2,2,1,18,2,4,1,4,0,16,7,Hc,0.2666666666666668,0.34500000000000014,0.46250000000000024,0.20000000000000004
9,7,14,1,5,0.6500000000000004,2,4,101,44,60,52,7.199999999999905,0.45000000000000023,0.34000000000000014,0.18000000000000002,6,2,2,1,30,4,2,1,5,0,15,7,Hc,0.24000000000000007,0.11250000000000002,0.17,0.18000000000000002
9,8,15,1,3,0.7700000000000005,2,4,107,23,76,54,7.039999999999911,1.0200000000000007,0.34000000000000014,0.19000000000000003,6,3,1,1,24,4,1,1,5,0,15,7,Hc,0.29333333333333345,0.2550000000000001,0.34000000000000014,0.19000000000000003
9,8,16,1,10,0.19000000000000003,1,2,92,6,118,61,4.959999999999943,1.480000000000001,0.46000000000000024,0.7000000000000004,6,2,1,2,15,5,1,2,3,0,15,7,Hc,0.33066666666666683,0.2960000000000001,0.46000000000000024,0.35000000000000014
9,9,17,1,6,0.6200000000000003,2,5,72,39,8,81,6.409999999999921,0.5100000000000002,0.6700000000000004,1.440000000000001,8,2,2,3,28,2,2,3,6,0,18,7,Hc,0.2289285714285715,0.2550000000000001,0.33500000000000013,0.4800000000000002
9,9,18,1,3,0.5400000000000003,2,3,99,15,54,32,6.459999999999918,1.0800000000000007,0.5200000000000002,0.38000000000000017,7,2,2,1,17,7,4,1,5,0,17,7,Hc,0.38000000000000017,0.1542857142857143,0.13,0.38000000000000017
9,10,19,1,5,0.7600000000000005,3,5,3,71,43,11,7.09999999999991,1.1900000000000008,1.9200000000000015,0.6400000000000003,11,3,3,3,24,8,4,5,5,0,21,7,Hc,0.29583333333333345,0.14875000000000002,0.48000000000000026,0.12800000000000003
9,10,20,1,8,0.35000000000000014,2,4,115,112,82,36,5.699999999999931,2.06,0.4200000000000002,0.20000000000000004,7,3,3,1,26,13,4,1,2,0,12,7,Hc,0.2192307692307693,0.15846153846153851,0.10500000000000001,0.20000000000000004
9,11,21,1,7,0.48000000000000026,2,4,14,44,110,111,9.519999999999852,0.12999999999999998,0.47000000000000025,0.11999999999999998,11,1,2,2,27,1,5,2,6,0,15,7,Hc,0.35259259259259274,0.12999999999999998,0.094,0.06
9,11,22,1,6,0.48000000000000026,2,5,94,34,27,105,7.119999999999903,0.38000000000000017,0.7700000000000005,1.5200000000000011,10,2,2,2,27,2,6,5,6,0,15,7,Hc,0.26370370370370383,0.19000000000000006,0.12833333333333335,0.3040000000000001
9,12,23,1,9,0.46000000000000024,3,4,14,69,82,22,5.869999999999929,7.539999999999884,0.22000000000000006,3.00999999999998,9,8,2,3,18,12,2,4,4,0,19,7,Hc,0.32611111111111124,0.6283333333333304,0.10999999999999999,0.7525000000000005
9,12,24,1,10,0.20000000000000004,1,2,41,96,89,52,5.4099999999999335,0.4200000000000002,0.45000000000000023,1.2200000000000009,6,1,1,3,15,1,1,5,3,0,15,7,Hc,0.36066666666666686,0.4200000000000002,0.45000000000000023,0.24400000000000008
9,13,25,1,1,0.6000000000000003,2,5,83,49,76,23,3.789999999999976,1.470000000000001,0.6400000000000003,0.5700000000000003,5,2,1,1,15,4,1,1,3,0,16,7,Hc,0.25266666666666676,0.36750000000000016,0.6400000000000003,0.5700000000000003
9,13,26,1,5,0.6100000000000003,2,5,85,45,65,95,8.839999999999868,0.17,0.15,0.38000000000000017,10,2,1,2,31,4,1,2,5,0,15,7,Hc,0.28516129032258075,0.042499999999999996,0.15,0.19000000000000006
9,14,27,1,7,0.46000000000000024,2,3,104,103,51,14,8.049999999999883,0.4100000000000002,0.24000000000000007,0.3200000000000001,11,1,1,1,31,1,1,1,6,0,14,7,Hc,0.2596774193548388,0.4100000000000002,0.24000000000000007,0.3200000000000001
9,14,28,1,8,0.6100000000000003,4,5,62,118,76,5,4.05999999999997,3.989999999999959,0.6800000000000004,0.10999999999999999,8,6,2,1,13,15,3,1,2,0,15,7,Hc,0.31230769230769245,0.2660000000000001,0.2266666666666667,0.10999999999999999
9,15,29,1,4,0.6300000000000003,2,6,14,53,97,24,5.529999999999941,1.0600000000000007,0.8200000000000005,0.46000000000000024,8,2,2,2,21,5,2,2,2,0,18,7,Hc,0.2633333333333334,0.21200000000000005,0.41000000000000014,0.23000000000000004
9,15,30,1,8,0.6200000000000003,6,7,112,46,109,66,5.729999999999936,1.0800000000000007,0.4200000000000002,0.3200000000000001,12,2,2,2,25,2,2,2,2,0,13,7,Hc,0.2292000000000001,0.5400000000000003,0.21000000000000008,0.16000000000000006
9,16,31,1,3,0.35000000000000014,2,5,28,94,35,15,3.9999999999999662,3.2199999999999753,0.5800000000000003,0.2900000000000001,7,4,2,2,18,8,4,2,5,0,19,7,Hc,0.2222222222222223,0.4025000000000002,0.14500000000000002,0.14500000000000002
9,16,32,1,5,0.6200000000000003,6,8,37,68,43,78,5.799999999999934,1.300000000000001,0.4200000000000002,0.2900000000000001,12,4,2,1,19,4,2,1,5,0,17,7,Hc,0.30526315789473696,0.3250000000000001,0.21000000000000005,0.2900000000000001
9,17,33,1,10,0.5000000000000002,2,6,9,45,110,50,5.6099999999999355,1.6500000000000012,0.26000000000000006,0.4000000000000002,6,3,1,2,16,6,1,3,3,0,17,7,Hc,0.3506250000000002,0.2750000000000001,0.26000000000000006,0.1333333333333334
9,17,34,1,4,0.4400000000000002,3,4,18,102,64,65,3.3799999999999817,1.450000000000001,1.5400000000000011,0.7300000000000004,6,3,3,2,8,4,7,2,2,0,16,7,Hc,0.4225000000000002,0.36250000000000016,0.22000000000000006,0.36500000000000016
9,18,35,1,10,1.7700000000000014,18,21,13,20,18,106,5.4899999999999665,0.36000000000000015,9.239999999999847,2.3299999999999943,20,1,9,2,33,1,32,3,3,0.5,20,7,Hc,0.1663636363636364,0.36000000000000015,0.2887500000000001,0.7766666666666672
9,18,36,1,1,0.4400000000000002,2,5,81,2,57,5,5.269999999999942,1.370000000000001,0.8800000000000006,0.37000000000000016,8,2,2,2,23,4,2,2,3,0,19,7,Hc,0.22913043478260878,0.34250000000000014,0.44000000000000017,0.18500000000000008
9,19,37,1,5,0.3100000000000001,2,3,5,49,83,100,5.4399999999999356,1.5300000000000011,0.5200000000000002,0.5400000000000003,8,2,1,2,15,6,1,2,5,0,15,7,Hc,0.36266666666666686,0.25500000000000006,0.5200000000000002,0.2700000000000001
9,19,38,1,9,0.34000000000000014,2,3,14,30,36,21,5.259999999999939,2.1199999999999988,0.5700000000000003,0.3000000000000001,6,3,1,3,22,7,1,3,4,0,22,7,Hc,0.23909090909090916,0.302857142857143,0.5700000000000003,0.09999999999999999
9,20,39,1,7,0.6900000000000004,8,9,33,20,106,67,7.219999999999906,2.1399999999999983,0.10999999999999999,0.25000000000000006,15,5,1,1,28,10,1,1,6,0,17,7,Hc,0.257857142857143,0.21400000000000008,0.10999999999999999,0.25000000000000006
9,20,40,1,6,0.3900000000000002,2,3,11,120,79,58,6.2299999999999205,0.8100000000000005,0.38000000000000017,0.3100000000000001,9,2,1,1,19,3,1,1,6,0,15,7,Hc,0.3278947368421054,0.27000000000000013,0.38000000000000017,0.3100000000000001
9,21,41,1,1,0.45000000000000023,3,5,52,113,53,31,3.509999999999979,2.8799999999999826,0.6900000000000004,0.4100000000000002,6,4,2,2,13,9,5,2,3,0,15,7,Hc,0.27000000000000013,0.3200000000000001,0.138,0.20500000000000007
9,21,42,1,10,0.3300000000000001,2,6,86,38,12,69,6.939999999999904,0.9500000000000006,0.38000000000000017,0.4100000000000002,10,2,2,1,28,2,2,1,3,0,18,7,Hc,0.24785714285714283,0.47500000000000026,0.19000000000000006,0.4100000000000002
10,1,1,0,3,0.5400000000000003,2,3,71,35,24,84,3.929999999999972,1.340000000000001,0.20000000000000004,0.38000000000000017,6,2,1,2,20,7,1,2,5,0,18,7,Hc,0.19650000000000006,0.19142857142857148,0.20000000000000004,0.19000000000000003
10,1,2,0,10,0.26000000000000006,2,3,89,45,48,6,3.4299999999999766,1.0400000000000007,0.5300000000000002,0.19000000000000003,5,2,2,1,16,6,4,1,3,0,19,7,Hc,0.21437500000000007,0.17333333333333337,0.13250000000000003,0.19000000000000003
10,2,3,0,10,0.3000000000000001,2,3,39,66,93,94,3.739999999999971,0.5400000000000003,0.25000000000000006,1.390000000000001,6,2,1,3,10,3,1,10,3,0,15,7,Hc,0.37400000000000017,0.18000000000000002,0.25000000000000006,0.139
10,2,4,0,8,0.2900000000000001,2,3,52,11,57,110,4.25999999999996,0.8700000000000006,0.3100000000000001,0.22000000000000006,7,2,2,2,16,7,2,2,2,0,16,7,Hc,0.2662500000000001,0.1242857142857143,0.15500000000000003,0.11
10,3,5,0,10,0.4200000000000002,2,3,63,72,114,87,3.6099999999999763,1.260000000000001,0.4100000000000002,0.18000000000000002,7,3,1,1,15,6,1,1,3,0,13,7,Hc,0.24066666666666675,0.21000000000000005,0.4100000000000002,0.18000000000000002
10,3,6,0,4,0.38000000000000017,3,4,103,100,104,76,3.3699999999999806,0.6600000000000004,0.6900000000000004,0.3200000000000001,7,2,2,1,18,2,4,1,2,0.5,9,7,Hc,0.18722222222222226,0.3300000000000001,0.17250000000000001,0.3200000000000001
10,4,7,0,2,0.3300000000000001,2,3,54,29,110,32,3.6499999999999733,0.47000000000000025,1.280000000000001,0.8000000000000005,5,1,3,2,17,1,6,8,4,0,16,7,Hc,0.21470588235294125,0.47000000000000025,0.2133333333333334,0.09999999999999999
10,4,8,0,5,0.34000000000000014,2,4,95,69,38,67,3.7999999999999705,1.350000000000001,0.2700000000000001,0.5000000000000002,6,2,2,2,17,9,3,2,5,0,16,7,Hc,0.22352941176470598,0.15000000000000002,0.09,0.2500000000000001
10,5,9,0,5,0.23000000000000007,1,3,55,38,13,46,4.229999999999959,0.49000000000000027,0.3900000000000002,0.21000000000000005,6,3,1,1,17,4,1,2,5,0,20,7,Hc,0.2488235294117648,0.12250000000000001,0.3900000000000002,0.10500000000000001
10,5,10,0,9,0.4200000000000002,2,4,61,92,8,27,4.959999999999948,1.1900000000000008,0.21000000000000005,0.3300000000000001,7,3,2,2,34,10,2,3,4,0,18,7,Hc,0.1458823529411765,0.11900000000000001,0.10500000000000001,0.11000000000000003
10,6,11,0,10,0.3100000000000001,2,3,87,18,38,112,3.7499999999999707,1.330000000000001,0.20000000000000004,0.6400000000000003,6,2,1,2,14,8,1,4,3,0,16,7,Hc,0.26785714285714296,0.16625000000000004,0.20000000000000004,0.16000000000000003
10,6,12,0,4,0.2700000000000001,2,3,106,7,1,80,2.999999999999986,2.909999999999982,5.099999999999936,0.10999999999999999,7,3,9,2,17,9,21,2,2,0,17,7,Hc,0.17647058823529416,0.3233333333333335,0.24285714285714297,0.05500000000000001
10,7,13,1,10,0.36000000000000015,4,6,56,45,93,5,4.729999999999952,1.2400000000000009,0.2700000000000001,0.36000000000000015,11,3,2,2,26,5,4,3,3,0,18,7,Hc,0.181923076923077,0.24800000000000008,0.0675,0.12
10,7,14,1,7,0.7900000000000005,7,8,116,15,21,84,9.699999999999855,0.09,0.03,0.04,17,2,1,1,43,2,1,1,6,0,17,7,Hc,0.22558139534883728,0.045,0.03,0.04
10,8,15,1,3,0.24000000000000007,2,3,26,110,32,79,4.069999999999962,0.6400000000000003,0.23000000000000007,0.26000000000000006,7,2,1,1,19,3,1,1,5,0,15,7,Hc,0.21421052631578955,0.2133333333333334,0.23000000000000007,0.26000000000000006
10,8,16,1,10,0.37000000000000016,2,3,64,67,102,93,4.229999999999962,0.5000000000000002,1.6100000000000012,0.12999999999999998,11,1,4,2,17,1,7,2,3,0,13,7,Hc,0.2488235294117648,0.5000000000000002,0.2300000000000001,0.065
10,9,17,1,4,0.3100000000000001,2,6,13,93,105,23,5.339999999999938,0.7100000000000004,0.05,0.15,9,3,1,2,27,7,1,3,2,0,17,7,Hc,0.19777777777777786,0.10142857142857144,0.05,0.049999999999999996
10,9,18,1,6,0.4000000000000002,3,5,2,117,54,113,4.5399999999999565,0.36000000000000015,1.0700000000000007,0.09999999999999999,8,2,3,1,25,2,3,1,6,0,14,7,Hc,0.18160000000000004,0.18000000000000002,0.35666666666666685,0.09999999999999999
10,10,19,1,8,0.2800000000000001,1,2,19,120,118,20,4.619999999999952,1.0300000000000007,0.17,0.19000000000000003,7,4,1,1,16,6,1,1,2,0,16,7,Hc,0.2887500000000001,0.1716666666666667,0.17,0.19000000000000003
10,10,20,1,4,0.2700000000000001,2,3,74,106,50,7,4.909999999999946,0.23000000000000007,0.3000000000000001,0.3100000000000001,7,1,1,3,28,1,1,3,2,0,15,7,Hc,0.1753571428571429,0.23000000000000007,0.3000000000000001,0.10333333333333333
10,11,21,1,1,0.2800000000000001,2,4,77,82,68,19,4.009999999999964,1.5200000000000011,0.47000000000000025,0.4100000000000002,7,2,2,2,22,6,3,2,3,0,16,7,Hc,0.1822727272727273,0.2533333333333334,0.1566666666666667,0.20500000000000004
10,11,22,1,6,0.3200000000000001,2,3,104,103,96,12,4.189999999999961,0.5300000000000002,1.470000000000001,0.05,9,1,4,1,16,1,6,1,6,0,13,7,Hc,0.2618750000000001,0.5300000000000002,0.24500000000000008,0.05
10,12,23,1,4,0.36000000000000015,3,5,106,22,101,18,3.0599999999999867,3.46999999999997,0.060000000000000005,0.12999999999999998,6,6,1,1,15,14,1,1,2,0,16,7,Hc,0.20400000000000007,0.24785714285714294,0.060000000000000005,0.12999999999999998
10,12,24,1,1,0.3200000000000001,3,4,74,111,75,3,4.189999999999961,1.8900000000000015,0.11999999999999998,0.09,8,4,1,1,21,8,1,1,3,0,14,7,Hc,0.19952380952380958,0.2362500000000001,0.11999999999999998,0.09
10,13,25,1,2,0.25000000000000006,2,3,52,116,75,117,3.1299999999999826,0.9800000000000006,0.5300000000000002,0.20000000000000004,5,3,2,1,13,7,4,1,4,0,11,7,Hc,0.24076923076923087,0.14,0.1325,0.20000000000000004
10,13,26,1,4,0.7100000000000004,3,6,21,15,14,101,4.529999999999963,1.0600000000000007,4.279999999999953,1.5900000000000012,10,4,6,4,24,6,10,7,2,0.5,20,7,Hc,0.18875000000000006,0.1766666666666667,0.4280000000000002,0.22714285714285723
10,14,27,1,7,0.46000000000000024,2,4,15,23,83,82,3.389999999999982,1.280000000000001,0.45000000000000023,1.9100000000000015,6,2,2,6,16,7,2,9,6,0,18,7,Hc,0.21187500000000006,0.1828571428571429,0.2250000000000001,0.21222222222222228
10,14,28,1,10,0.3000000000000001,3,5,88,119,86,91,4.1799999999999615,0.6100000000000003,0.11999999999999998,0.060000000000000005,11,2,2,1,17,2,2,1,3,0.5,11,7,Hc,0.24588235294117658,0.3050000000000001,0.06,0.060000000000000005
10,15,29,1,7,0.3000000000000001,2,3,18,17,97,82,3.119999999999984,10.829999999999814,0.01,0.01,5,16,1,1,21,39,1,1,6,0,17,7,Hc,0.1485714285714286,0.2776923076923078,0.01,0.01
10,15,30,1,8,0.24000000000000007,2,3,31,112,70,11,5.369999999999935,0.7000000000000004,1.390000000000001,0.03,7,2,6,1,12,2,8,1,2,0,17,7,Hc,0.44749999999999934,0.35000000000000014,0.17375000000000004,0.03
10,16,31,1,6,0.37000000000000016,2,3,4,31,6,25,3.4499999999999784,1.350000000000001,0.09999999999999999,0.35000000000000014,5,2,1,1,17,6,1,1,6,0,22,7,Hc,0.2029411764705883,0.2250000000000001,0.09999999999999999,0.35000000000000014
10,16,32,1,8,0.2700000000000001,2,3,113,23,109,71,3.129999999999983,1.490000000000001,0.4400000000000002,0.23000000000000007,5,2,2,1,17,10,2,1,2,0,14,7,Hc,0.18411764705882358,0.14900000000000002,0.22000000000000003,0.23000000000000007
10,17,33,1,7,0.8000000000000005,2,8,16,14,91,86,2.0200000000000014,9.479999999999842,0.02,0.01,4,15,1,1,11,33,1,1,6,0,18,7,Hc,0.1836363636363637,0.2872727272727274,0.02,0.01
10,17,34,1,6,0.4300000000000002,2,6,6,43,2,5,2.789999999999994,2.949999999999981,2.06,0.9500000000000006,5,5,7,3,14,20,13,7,6,0.5,23,7,Hc,0.19928571428571437,0.14750000000000005,0.15846153846153851,0.13571428571428573
10,18,35,1,10,0.5800000000000003,2,6,85,35,86,58,3.979999999999972,0.9800000000000006,2.1899999999999973,1.1600000000000008,7,3,6,6,22,4,6,7,3,0,15,7,Hc,0.18090909090909096,0.2450000000000001,0.36500000000000016,0.16571428571428576
10,18,36,1,4,0.5000000000000002,2,5,76,74,64,43,5.699999999999934,1.0300000000000007,0.10999999999999999,0.09,11,2,2,1,24,2,2,1,2,0,15,7,Hc,0.2375000000000001,0.5150000000000002,0.05499999999999999,0.09
10,19,37,1,9,0.4100000000000002,2,5,63,42,69,21,3.329999999999982,3.849999999999962,0.22000000000000006,0.4400000000000002,5,5,2,2,12,16,4,2,4,0,19,7,Hc,0.27750000000000014,0.2406250000000001,0.055,0.22000000000000003
10,19,38,1,6,0.20000000000000004,2,5,12,4,11,7,2.9999999999999845,0.3900000000000002,1.490000000000001,6.819999999999899,4,1,3,15,23,1,9,32,6,1,72,7,Hc,0.13043478260869568,0.3900000000000002,0.1655555555555556,0.21312500000000006
10,20,39,1,5,0.18000000000000002,2,3,40,43,44,39,2.619999999999992,1.2100000000000009,0.7000000000000004,0.2900000000000001,5,4,3,3,15,6,3,3,5,1,60,7,Hc,0.17466666666666672,0.20166666666666674,0.23333333333333342,0.09666666666666668
10,20,40,1,7,0.17,2,3,26,23,15,53,4.829999999999945,0.8600000000000005,1.9900000000000015,0.12999999999999998,10,4,5,1,21,5,9,1,6,0,21,7,Hc,0.2300000000000001,0.17200000000000004,0.2211111111111112,0.12999999999999998
10,21,41,1,3,0.23000000000000007,2,3,29,53,51,87,3.409999999999976,1.2100000000000009,1.400000000000001,0.22000000000000006,5,2,5,1,16,2,6,1,5,0,16,7,Hc,0.2131250000000001,0.6050000000000003,0.23333333333333342,0.22000000000000006
10,21,42,1,1,0.48000000000000026,2,5,47,76,41,97,4.189999999999965,0.9400000000000006,0.3100000000000001,0.5600000000000003,7,4,1,3,19,5,1,3,3,0,15,7,Hc,0.22052631578947376,0.18800000000000006,0.3100000000000001,0.18666666666666673
11,1,1,0,1,0.34000000000000014,2,3,35,84,80,17,13.20999999999977,5.299999999999931,3.099999999999978,0.4400000000000002,11,6,4,1,39,25,8,1,3,0,17,6,Hc,0.33871794871794886,0.21200000000000008,0.3875000000000002,0.4400000000000002
11,1,2,0,8,0.47000000000000025,2,3,110,4,11,44,17.579999999999874,1.7200000000000013,2.7399999999999856,1.380000000000001,15,4,5,3,58,5,7,6,2,0,19,6,Hc,0.3031034482758622,0.34400000000000014,0.3914285714285716,0.2300000000000001
11,2,3,0,2,0.2700000000000001,2,3,15,23,24,50,16.999999999999815,2.5999999999999885,1.2000000000000008,0.9600000000000006,14,3,3,2,58,12,4,2,4,0.5,22,6,Hc,0.2931034482758622,0.21666666666666673,0.30000000000000016,0.4800000000000002
11,2,4,0,6,0.5800000000000003,2,3,120,62,9,35,21.280000000000438,2.4999999999999907,1.8000000000000014,1.1500000000000008,14,4,4,4,69,8,8,7,6,0,17,6,Hc,0.30840579710144944,0.3125000000000001,0.2250000000000001,0.16428571428571434
11,3,5,0,4,0.35000000000000014,2,3,102,19,104,22,12.089999999999794,3.0199999999999796,3.5899999999999674,0.6500000000000004,9,4,3,2,39,8,16,2,2,0,16,6,Hc,0.31000000000000016,0.3775000000000002,0.22437500000000007,0.3250000000000002
11,3,6,0,5,0.21000000000000005,2,3,8,46,61,12,15.92999999999971,2.1899999999999973,4.809999999999942,2.299999999999995,13,3,4,3,47,10,21,11,5,0,21,6,Hc,0.3389361702127661,0.21900000000000008,0.22904761904761914,0.20909090909090916
11,4,7,0,9,3.0699999999999785,14,24,104,81,74,13,23.050000000000303,2.2299999999999964,1.6500000000000012,0.5700000000000003,20,2,2,2,99,11,7,2,4,0,14,6,Hc,0.2328282828282829,0.20272727272727278,0.2357142857142858,0.2850000000000001
11,4,8,0,6,0.7200000000000004,2,4,28,7,29,1,16.83999999999972,13.409999999999759,3.5999999999999672,0.6700000000000004,14,11,7,3,46,50,14,3,6,0,22,6,Hc,0.36608695652173934,0.2682000000000001,0.25714285714285723,0.22333333333333338
11,5,9,0,7,0.49000000000000027,4,5,69,67,38,70,16.53999999999971,2.389999999999993,0.7400000000000004,2.5599999999999894,16,4,1,3,65,7,1,11,6,0.5,17,6,Hc,0.25446153846153857,0.3414285714285716,0.7400000000000004,0.2327272727272728
11,5,10,0,4,0.7700000000000005,6,7,98,82,104,30,16.89999999999972,5.239999999999933,1.2000000000000008,1.280000000000001,16,7,2,2,64,22,5,5,2,0,12,6,Hc,0.2640625000000001,0.23818181818181827,0.24000000000000007,0.2560000000000001
11,6,11,1,8,0.48000000000000026,2,6,1,109,112,110,14.099999999999755,1.1700000000000008,2.389999999999993,0.5200000000000002,9,3,3,1,68,4,11,1,2,0.5,12,6,Hc,0.20735294117647066,0.29250000000000015,0.21727272727272734,0.5200000000000002
11,6,12,1,1,0.47000000000000025,3,4,81,19,70,43,14.859999999999738,2.6499999999999875,0.8400000000000005,3.989999999999959,14,3,2,5,50,9,2,10,3,0,18,6,Hc,0.29720000000000013,0.29444444444444456,0.4200000000000002,0.3990000000000002
11,7,13,1,6,0.35000000000000014,2,2,3,10,28,8,22.0800000000006,0.6000000000000003,2.209999999999997,0.4300000000000002,14,2,5,1,68,3,10,1,6,0.5,23,6,Hc,0.32470588235294134,0.20000000000000007,0.22100000000000009,0.4300000000000002
11,7,14,1,8,0.16,2,3,15,115,111,76,13.149999999999768,4.749999999999943,0.5000000000000002,1.9000000000000015,10,5,1,3,43,13,1,4,2,0,13,6,Hc,0.30581395348837226,0.3653846153846156,0.5000000000000002,0.47500000000000026
11,8,15,1,10,0.2800000000000001,2,3,91,88,86,95,16.569999999999748,0.7000000000000004,0.7700000000000005,6.249999999999911,16,2,2,7,51,2,4,15,3,1,36,6,Hc,0.3249019607843139,0.35000000000000014,0.19250000000000006,0.41666666666666685
11,8,16,1,1,0.47000000000000025,2,4,61,20,83,66,17.189999999999813,1.5700000000000012,1.8400000000000014,1.2000000000000008,13,3,4,3,56,6,5,6,3,0,17,6,Hc,0.30696428571428586,0.2616666666666668,0.36800000000000016,0.20000000000000007
11,9,17,1,7,0.3200000000000001,2,3,24,14,70,31,15.029999999999731,7.149999999999892,3.45999999999997,1.7200000000000013,13,7,3,4,40,22,15,6,6,0,21,6,Hc,0.3757500000000002,0.3250000000000001,0.23066666666666677,0.2866666666666668
11,9,18,1,2,0.3300000000000001,2,5,57,51,43,52,21.150000000000457,2.6899999999999866,1.260000000000001,2.099999999999999,18,2,1,3,66,13,1,4,4,0.5,17,6,Hc,0.3204545454545456,0.206923076923077,1.260000000000001,0.5250000000000002
11,10,19,1,6,0.3200000000000001,2,4,68,3,70,10,18.129999999999985,2.629999999999988,0.4200000000000002,1.8800000000000014,16,5,1,4,57,6,1,10,6,0,20,6,Hc,0.31807017543859645,0.4383333333333335,0.4200000000000002,0.18800000000000006
11,10,20,1,7,0.46000000000000024,2,4,15,16,13,35,17.33999999999984,2.0899999999999994,0.8500000000000005,1.1000000000000008,16,4,2,3,58,8,4,6,6,0.5,23,6,Hc,0.29896551724137943,0.2612500000000001,0.21250000000000005,0.1833333333333334
11,11,21,1,4,0.11999999999999998,1,2,104,108,64,63,12.759999999999774,1.1000000000000008,3.849999999999962,1.9000000000000015,12,2,3,4,42,2,11,6,2,0,12,6,Hc,0.3038095238095239,0.5500000000000003,0.35000000000000014,0.31666666666666676
11,11,22,1,2,0.3100000000000001,2,3,53,54,77,14,11.129999999999814,8.64999999999986,4.7799999999999425,1.8000000000000014,13,9,6,2,36,38,15,3,4,0,17,6,Hc,0.3091666666666668,0.2276315789473685,0.3186666666666668,0.6000000000000004
11,12,23,1,2,0.3100000000000001,2,3,59,56,50,44,19.330000000000172,4.619999999999946,1.1800000000000008,4.389999999999951,17,8,3,5,65,12,4,14,4,0.5,17,6,Hc,0.2973846153846155,0.3850000000000002,0.2950000000000001,0.3135714285714287
11,12,24,1,1,0.8400000000000005,5,9,30,26,78,107,20.080000000000208,2.0500000000000003,7.71999999999988,2.579999999999989,18,3,13,2,87,7,25,7,3,0,15,6,Hc,0.2308045977011495,0.292857142857143,0.30880000000000013,0.3685714285714287
11,13,25,1,1,0.36000000000000015,2,3,56,76,75,84,18.700000000000067,3.7299999999999645,0.4400000000000002,2.5499999999999896,14,4,1,4,59,9,1,8,3,0.5,13,6,Hc,0.31694915254237294,0.4144444444444446,0.4400000000000002,0.31875000000000014
11,13,26,1,10,0.25000000000000006,2,3,85,30,95,61,14.459999999999742,1.8200000000000014,4.759999999999943,4.209999999999955,16,2,8,3,51,5,20,21,3,0,15,6,Hc,0.283529411764706,0.3640000000000002,0.2380000000000001,0.20047619047619053
11,14,27,1,8,0.2700000000000001,2,4,113,115,91,110,18.43000000000004,1.0900000000000007,1.8000000000000014,0.38000000000000017,14,3,3,2,55,3,9,2,2,0.5,9,6,Hc,0.3350909090909093,0.3633333333333335,0.2000000000000001,0.19000000000000006
11,14,28,1,2,0.18000000000000002,2,3,1,8,37,56,40.54000000000054,0.08,0.10999999999999999,0.09,20,2,1,2,139,2,1,2,4,0,21,6,Hc,0.29165467625899294,0.04,0.10999999999999999,0.045
11,15,29,1,8,0.26000000000000006,2,3,109,66,113,41,19.4400000000002,0.8100000000000005,0.25000000000000006,4.41999999999995,16,3,2,4,74,4,3,21,2,0,13,6,Hc,0.2627027027027028,0.20250000000000007,0.08333333333333334,0.21047619047619054
11,15,30,1,10,0.5000000000000002,5,6,93,86,92,28,12.91999999999978,3.46999999999997,0.9000000000000006,3.4099999999999713,13,4,2,4,45,7,2,15,3,0.5,14,6,Hc,0.2871111111111112,0.495714285714286,0.45000000000000023,0.22733333333333344
11,16,31,1,7,0.24000000000000007,2,3,20,30,51,32,15.659999999999716,6.819999999999899,2.349999999999994,2.0899999999999994,13,8,8,4,50,17,8,8,6,0,20,6,Hc,0.31320000000000014,0.4011764705882355,0.2937500000000001,0.2612500000000001
11,16,32,1,4,0.25000000000000006,2,3,94,106,88,69,20.670000000000393,1.280000000000001,0.6800000000000004,0.5700000000000003,17,2,2,2,88,4,2,3,2,0,12,6,Hc,0.23488636363636373,0.3200000000000001,0.34000000000000014,0.19000000000000003
11,17,33,1,6,0.37000000000000016,2,4,6,3,88,11,13.829999999999758,11.509999999999799,0.5800000000000003,0.4100000000000002,10,11,2,2,55,42,4,2,6,0.5,21,6,Hc,0.25145454545454554,0.27404761904761915,0.14500000000000002,0.20500000000000004
11,17,34,1,7,0.35000000000000014,2,3,24,15,30,16,16.15999999999971,2.859999999999983,9.179999999999849,0.13999999999999999,16,3,9,1,66,14,35,1,6,0.5,23,6,Hc,0.24484848484848493,0.20428571428571435,0.2622857142857144,0.13999999999999999
11,18,35,1,5,0.34000000000000014,2,3,48,72,62,47,16.269999999999705,3.889999999999961,2.3299999999999943,0.3200000000000001,15,6,4,1,56,15,5,1,5,0,18,6,Hc,0.2905357142857144,0.2593333333333334,0.46600000000000025,0.3200000000000001
11,18,36,1,8,0.4000000000000002,2,3,110,53,16,91,18.690000000000058,1.300000000000001,3.509999999999969,3.189999999999976,15,2,3,4,62,2,10,11,2,0,15,6,Hc,0.3014516129032259,0.6500000000000004,0.35100000000000015,0.2900000000000001
12,1,1,0,1,0.5200000000000002,2,7,76,118,80,59,1.730000000000001,0.9800000000000006,0.4200000000000002,0.09999999999999999,4,2,2,1,13,2,2,1,3,0,12,7,Hc,0.13307692307692312,0.4900000000000003,0.21000000000000002,0.09999999999999999
