Subject,Round,Phase,afterbreak,Schema,Schema_RT,Schema_OB,Schema_AS,Cho_1,Cho_2,Cho_3,Cho_4,RT_1,RT_2,RT_3,RT_4,OB_1,OB_2,OB_3,OB_4,AS_1,AS_2,AS_3,AS_4,schema_payoff,AC,performance,breakR,type,dwellmean_1,dwellmean_2,dwellmean_3,dwellmean_4
1,1,1,0,4,0.5700000000000003,2,3,97,103,101,72,3.5199999999999814,0.9000000000000006,0.47000000000000025,2.8899999999999824,4,2,1,3,9,5,1,8,2,0.5,16,7,LH,0.3911111111111113,0.18000000000000005,0.47000000000000025,0.3612500000000002
1,1,2,0,1,0.5200000000000002,2,4,81,78,74,109,4.239999999999965,0.4100000000000002,0.8500000000000005,1.330000000000001,4,2,2,2,13,3,2,5,3,0.5,20,7,LH,0.3261538461538463,0.13666666666666671,0.42500000000000016,0.26600000000000007
1,2,3,0,4,0.7600000000000005,2,5,106,98,105,13,3.2899999999999903,0.5800000000000003,0.6000000000000003,2.0899999999999994,4,1,1,3,11,1,1,4,2,0.5,18,7,LH,0.2990909090909092,0.5800000000000003,0.6000000000000003,0.5225000000000003
1,2,4,0,8,0.17,2,2,5,25,62,11,21.410000000000522,0.03,0.01,0.02,15,1,1,1,41,1,1,1,2,0,21,7,LH,0.522195121951219,0.03,0.01,0.02
1,3,5,0,8,0.5500000000000003,2,3,28,111,32,25,6.129999999999926,3.1599999999999766,0.5800000000000003,3.1999999999999758,6,4,3,4,12,7,4,7,2,0.5,32,7,LH,0.5108333333333327,0.4514285714285717,0.14500000000000002,0.4571428571428574
1,3,6,0,5,0.7300000000000004,2,5,46,62,100,103,6.079999999999931,0.3000000000000001,0.35000000000000014,0.8400000000000005,7,1,1,3,14,1,1,4,5,0,13,7,LH,0.43428571428571455,0.3000000000000001,0.35000000000000014,0.21000000000000005
1,4,7,0,8,0.5600000000000003,2,5,109,18,34,16,2.3000000000000016,4.109999999999957,3.649999999999966,0.04,4,3,4,1,9,8,4,1,2,0,19,7,LH,0.2555555555555557,0.5137500000000003,0.9125000000000006,0.04
1,4,8,0,5,0.6100000000000003,2,5,3,6,96,56,12.1299999999998,0.07,2.259999999999996,0.04,10,2,5,1,18,2,6,1,5,0,19,7,LH,0.6738888888888874,0.035,0.37666666666666687,0.04
1,5,9,0,2,0.9300000000000006,3,4,33,49,111,89,6.289999999999931,0.2800000000000001,0.18000000000000002,1.6800000000000013,8,1,1,3,14,1,1,4,4,0,14,7,LH,0.4492857142857145,0.2800000000000001,0.18000000000000002,0.4200000000000002
1,5,10,0,1,0.6400000000000003,3,6,74,73,65,84,4.759999999999957,0.49000000000000027,0.9200000000000006,0.6400000000000003,6,2,2,3,14,2,2,4,3,0.5,22,7,LH,0.34000000000000014,0.24500000000000008,0.4600000000000002,0.16000000000000003
1,6,11,0,3,0.7400000000000004,2,5,30,34,57,80,3.9399999999999764,2.4199999999999924,0.2800000000000001,2.6499999999999875,5,3,1,4,12,9,1,6,5,0,17,7,LH,0.32833333333333353,0.268888888888889,0.2800000000000001,0.44166666666666693
1,6,12,0,5,0.7700000000000005,2,5,42,46,97,45,2.620000000000002,0.8300000000000005,2.209999999999997,2.5899999999999888,5,2,2,3,8,3,3,4,5,0.5,32,7,LH,0.3275000000000002,0.2766666666666668,0.7366666666666671,0.6475000000000004
1,7,13,1,10,1.0100000000000007,2,5,95,45,94,40,2.3800000000000017,2.199999999999997,4.069999999999958,0.3300000000000001,4,3,8,3,9,3,10,3,3,0,16,7,LH,0.26444444444444454,0.7333333333333338,0.40700000000000025,0.11000000000000001
1,7,14,1,3,1.6000000000000012,2,6,28,58,79,49,4.569999999999982,2.199999999999997,3.979999999999959,0.05,5,3,6,1,10,3,8,1,5,0,16,7,LH,0.45700000000000024,0.7333333333333338,0.4975000000000003,0.05
1,8,15,1,7,0.4200000000000002,2,3,14,13,60,43,3.629999999999976,0.5300000000000002,0.7300000000000004,2.06,5,1,2,3,7,1,2,7,6,0,21,7,LH,0.5185714285714289,0.5300000000000002,0.36500000000000016,0.2942857142857144
1,8,16,1,3,0.6700000000000004,2,4,33,28,116,70,3.21999999999999,0.5100000000000002,1.9600000000000015,0.45000000000000023,4,1,2,1,12,1,4,1,5,0,16,7,LH,0.2683333333333334,0.5100000000000002,0.49000000000000027,0.45000000000000023
1,9,17,1,1,1.2300000000000009,2,4,82,7,5,73,3.3000000000000007,0.6900000000000004,0.45000000000000023,0.3900000000000002,4,1,1,1,8,1,1,1,3,0,18,7,LH,0.4125000000000002,0.6900000000000004,0.45000000000000023,0.3900000000000002
1,9,18,1,7,0.7800000000000005,2,4,25,56,34,14,9.089999999999868,0.18000000000000002,0.11999999999999998,1.9400000000000015,10,1,1,3,17,1,1,3,6,0,20,7,LH,0.5347058823529397,0.18000000000000002,0.11999999999999998,0.6466666666666671
1,10,19,1,8,0.3300000000000001,2,4,110,109,23,87,1.7600000000000011,3.4499999999999704,1.5400000000000011,0.9100000000000006,5,4,2,2,8,5,3,2,2,0,13,7,LH,0.2200000000000001,0.6900000000000004,0.5133333333333336,0.45500000000000024
1,10,20,1,6,0.9800000000000006,3,6,33,8,3,81,4.229999999999976,2.2199999999999966,0.35000000000000014,2.579999999999989,5,3,2,4,8,6,2,4,6,0,20,7,LH,0.5287499999999995,0.3700000000000002,0.17500000000000004,0.6450000000000005
1,11,21,1,8,0.5000000000000002,2,3,109,24,72,111,1.9900000000000013,4.189999999999955,2.399999999999993,0.05,4,7,3,1,5,8,3,1,2,0,14,7,LH,0.39800000000000024,0.5237500000000003,0.7999999999999998,0.05
1,11,22,1,2,0.49000000000000027,3,4,49,92,54,9,3.0599999999999894,1.5400000000000011,0.21000000000000005,4.9199999999999395,5,2,1,7,12,4,1,11,4,0,17,7,LH,0.2550000000000001,0.3850000000000002,0.21000000000000005,0.4472727272727275
1,12,23,1,3,0.7900000000000005,2,3,20,19,14,108,3.669999999999983,19.110000000000188,0.9200000000000006,0.02,4,16,2,1,8,29,2,1,5,0.5,20,7,LH,0.45875000000000027,0.6589655172413795,0.4600000000000003,0.02
1,12,24,1,8,0.35000000000000014,2,3,111,91,70,65,2.41,1.420000000000001,1.7200000000000013,0.9600000000000006,4,2,3,2,6,3,5,2,2,0,13,7,LH,0.4016666666666669,0.47333333333333355,0.3440000000000002,0.48000000000000026
1,13,25,1,9,0.45000000000000023,2,3,92,37,43,38,4.839999999999951,0.6600000000000004,0.45000000000000023,1.5400000000000011,6,1,1,3,14,1,1,4,4,0.5,18,7,LH,0.34571428571428586,0.6600000000000004,0.45000000000000023,0.3850000000000002
1,13,26,1,8,0.6800000000000004,2,3,110,111,50,59,4.129999999999971,0.7400000000000004,1.490000000000001,0.6400000000000003,6,2,3,2,9,2,3,2,2,0,12,7,LH,0.4588888888888891,0.37000000000000016,0.496666666666667,0.3200000000000001
1,14,27,1,5,1.7200000000000013,2,4,43,119,89,95,3.2400000000000024,1.400000000000001,0.9200000000000006,1.0300000000000007,4,3,1,2,6,5,2,2,5,0,13,7,LH,0.5400000000000003,0.2800000000000001,0.4600000000000002,0.5150000000000002
1,14,28,1,1,0.6400000000000003,2,7,78,19,62,69,3.17999999999999,2.6599999999999873,0.5400000000000003,0.22000000000000006,5,4,2,2,11,5,2,3,3,0,17,7,LH,0.28909090909090923,0.5320000000000003,0.2700000000000001,0.07333333333333333
1,15,29,1,6,4.459999999999949,6,8,68,111,120,112,11.809999999999837,0.6800000000000004,0.08,1.7800000000000014,12,3,2,3,20,4,2,4,6,0.5,10,7,LH,0.5905,0.17000000000000004,0.04,0.44500000000000023
1,15,30,1,2,0.6600000000000004,2,3,16,53,57,21,6.929999999999911,2.899999999999982,0.8400000000000005,0.13999999999999999,9,8,2,1,19,8,2,1,4,0,20,7,LH,0.36473684210526336,0.3625000000000002,0.4200000000000002,0.13999999999999999
1,16,31,1,1,0.5700000000000003,2,3,79,82,44,48,4.019999999999971,1.7900000000000014,0.7500000000000004,0.6200000000000003,5,2,2,2,11,5,3,3,3,0,16,7,LH,0.36545454545454564,0.35800000000000015,0.25000000000000006,0.20666666666666675
1,16,32,1,2,0.49000000000000027,2,3,52,14,51,59,2.789999999999995,1.8700000000000014,1.400000000000001,2.0300000000000007,5,3,3,2,8,6,6,12,4,0.5,18,7,LH,0.34875000000000017,0.3116666666666668,0.23333333333333342,0.16916666666666672
1,17,33,1,3,0.4400000000000002,2,3,30,29,35,54,2.410000000000002,1.0900000000000007,0.5800000000000003,0.4300000000000002,5,2,2,2,8,2,2,3,5,0.5,19,7,LH,0.30125000000000013,0.5450000000000003,0.2900000000000001,0.14333333333333334
1,17,34,1,4,0.8700000000000006,3,4,21,75,22,105,3.5499999999999874,0.6100000000000003,1.360000000000001,0.6300000000000003,5,2,2,2,7,2,4,2,2,0,17,7,LH,0.5071428571428575,0.3050000000000001,0.34000000000000014,0.3150000000000001
1,18,35,1,3,1.0600000000000007,2,4,31,19,30,25,5.549999999999949,0.19000000000000003,0.8000000000000005,0.49000000000000027,5,1,1,1,12,1,1,1,5,0.5,21,7,LH,0.46250000000000024,0.19000000000000003,0.8000000000000005,0.49000000000000027
1,18,36,1,6,1.6100000000000012,2,4,3,84,7,81,13.919999999999783,0.05,0.02,0.01,11,2,1,1,26,2,1,1,6,0,18,7,LH,0.5353846153846157,0.025,0.02,0.01
1,19,37,1,4,0.8200000000000005,2,5,102,31,79,18,3.5599999999999863,1.0400000000000007,1.0100000000000007,3.46999999999997,5,2,2,4,11,3,3,7,2,0,16,7,LH,0.3236363636363638,0.3466666666666668,0.3366666666666668,0.495714285714286
1,19,38,1,8,0.36000000000000015,2,3,91,8,5,92,3.929999999999968,1.0400000000000007,0.7200000000000004,0.3300000000000001,5,2,2,1,9,3,3,1,2,0,18,7,LH,0.4366666666666669,0.3466666666666668,0.24000000000000005,0.3300000000000001
1,20,39,1,9,1.270000000000001,2,4,71,33,81,115,2.7700000000000022,1.7500000000000013,0.8300000000000005,0.4200000000000002,4,2,2,1,9,4,2,1,4,0,14,7,LH,0.30777777777777793,0.4375000000000002,0.4150000000000002,0.4200000000000002
1,20,40,1,7,0.5900000000000003,2,4,17,16,18,88,3.0699999999999914,15.269999999999719,1.1700000000000008,0.02,6,13,3,1,10,26,3,1,6,0.5,21,7,LH,0.30700000000000016,0.5873076923076926,0.39000000000000024,0.02
2,1,1,0,1,0.4400000000000002,2,3,19,13,81,46,3.1099999999999874,1.0000000000000007,3.0699999999999785,0.09999999999999999,5,3,4,1,16,3,5,1,3,0,20,7,LH,0.19437500000000008,0.3333333333333335,0.6140000000000004,0.09999999999999999
2,1,2,0,10,0.5600000000000003,2,5,88,110,55,50,2.490000000000002,1.500000000000001,1.2300000000000009,0.3900000000000002,5,2,2,2,11,3,3,2,3,0,13,7,LH,0.22636363636363643,0.5000000000000002,0.4100000000000002,0.19500000000000006
2,2,3,0,4,0.4100000000000002,2,4,99,103,97,13,1.8400000000000012,0.4400000000000002,0.4200000000000002,0.6700000000000004,4,1,1,2,9,1,1,2,2,0.5,18,7,LH,0.2044444444444445,0.4400000000000002,0.4200000000000002,0.33500000000000013
2,2,4,0,1,0.47000000000000025,2,3,84,77,118,57,1.520000000000001,0.8100000000000005,1.0800000000000007,0.7300000000000004,4,2,2,2,5,2,6,3,3,0,12,7,LH,0.3040000000000001,0.4050000000000002,0.18000000000000002,0.24333333333333343
2,3,5,0,4,0.8300000000000005,2,4,106,108,9,7,1.660000000000001,2.4199999999999924,0.5300000000000002,0.4400000000000002,4,3,1,3,6,5,1,4,2,0,16,7,LH,0.2766666666666668,0.48400000000000026,0.5300000000000002,0.11000000000000001
2,3,6,0,8,0.6600000000000004,2,3,114,58,59,13,2.75,0.4100000000000002,0.3000000000000001,1.2300000000000009,4,1,1,2,7,1,1,3,2,0,16,7,LH,0.392857142857143,0.4100000000000002,0.3000000000000001,0.4100000000000002
2,4,7,0,6,0.6200000000000003,2,3,10,1,52,41,1.8100000000000012,4.209999999999955,0.02,1.9700000000000015,4,4,1,6,7,8,1,6,6,0,21,7,LH,0.2585714285714287,0.5262499999999998,0.02,0.3283333333333335
2,4,8,0,7,0.48000000000000026,2,3,104,78,18,29,5.2799999999999425,2.8399999999999834,0.02,1.5600000000000012,8,3,1,1,11,3,1,1,6,0,16,7,LH,0.48000000000000026,0.9466666666666673,0.02,1.5600000000000012
2,5,9,0,7,0.9900000000000007,2,3,18,13,40,79,2.330000000000002,7.599999999999882,0.01,0.01,4,7,1,1,5,8,1,1,6,0,20,7,LH,0.46600000000000025,0.9499999999999948,0.01,0.01
2,5,10,0,8,0.22000000000000006,3,3,28,120,29,94,6.7699999999999045,0.01,0.02,0.04,7,1,1,1,14,1,1,1,2,0,15,7,LH,0.4835714285714289,0.01,0.02,0.04
2,6,11,0,8,0.6200000000000003,2,3,110,14,43,116,2.1600000000000015,0.5800000000000003,0.47000000000000025,0.21000000000000005,4,2,2,1,9,2,2,1,2,0,15,7,LH,0.2400000000000001,0.2900000000000001,0.2350000000000001,0.21000000000000005
2,6,12,0,6,0.8800000000000006,2,5,10,97,95,5,1.7700000000000011,1.360000000000001,0.4200000000000002,0.22000000000000006,4,2,2,1,7,2,2,1,6,0,17,7,LH,0.25285714285714295,0.6800000000000005,0.21000000000000005,0.22000000000000006
2,7,13,1,2,0.5200000000000002,2,3,56,117,24,83,2.809999999999995,0.36000000000000015,0.47000000000000025,0.23000000000000007,5,1,2,2,10,2,2,2,4,0,15,7,LH,0.28100000000000014,0.18000000000000005,0.2350000000000001,0.11499999999999999
2,7,14,1,4,0.8900000000000006,2,6,98,45,39,10,2.530000000000002,2.5599999999999894,1.5200000000000011,0.04,5,5,6,1,10,6,6,1,2,0,18,7,LH,0.2530000000000001,0.4266666666666669,0.2533333333333334,0.04
2,8,15,1,1,1.5600000000000012,2,4,57,1,75,80,5.129999999999969,0.8800000000000006,0.11999999999999998,0.01,7,2,1,1,9,3,1,1,3,0,16,7,LH,0.5700000000000003,0.29333333333333345,0.11999999999999998,0.01
2,8,16,1,5,3.3899999999999717,5,10,45,41,88,116,4.459999999999972,0.9000000000000006,0.8000000000000005,0.12999999999999998,7,1,1,1,13,1,2,1,5,0,15,7,LH,0.3430769230769233,0.9000000000000006,0.4000000000000002,0.12999999999999998
2,9,17,1,9,0.4200000000000002,2,3,13,99,23,65,15.66999999999972,0.01,0.01,0.01,16,1,1,1,35,1,1,1,4,0,18,7,LH,0.4477142857142859,0.01,0.01,0.01
2,9,18,1,1,1.7200000000000013,5,9,6,115,58,74,4.619999999999983,0.22000000000000006,0.2800000000000001,0.13999999999999999,8,2,2,2,14,2,2,2,3,0,15,7,LH,0.3300000000000002,0.11,0.14000000000000004,0.07
2,10,19,1,3,0.5400000000000003,2,5,63,7,99,12,3.469999999999982,0.9000000000000006,0.2700000000000001,0.2900000000000001,4,2,1,1,11,3,1,1,5,0,18,7,LH,0.3154545454545456,0.3000000000000001,0.2700000000000001,0.2900000000000001
2,10,20,1,10,0.6400000000000003,3,7,46,92,54,51,8.759999999999872,0.02,0.02,0.01,8,1,1,1,19,1,1,1,3,0,16,7,LH,0.4610526315789473,0.02,0.02,0.01
2,11,21,1,9,0.4400000000000002,2,3,63,67,71,69,1.8200000000000012,1.460000000000001,0.46000000000000024,0.7400000000000004,4,3,4,3,5,4,4,4,4,1,48,7,LH,0.3640000000000002,0.36500000000000016,0.115,0.18500000000000005
2,11,22,1,10,0.4400000000000002,2,4,87,42,57,2,2.4600000000000013,0.24000000000000007,0.9100000000000006,0.35000000000000014,4,1,3,1,12,1,3,1,3,0,18,7,LH,0.20500000000000007,0.24000000000000007,0.30333333333333345,0.35000000000000014
2,12,23,1,8,0.35000000000000014,2,3,111,71,5,118,1.570000000000001,1.1200000000000008,1.6300000000000012,0.9000000000000006,5,2,3,2,7,2,6,2,2,0,14,7,LH,0.22428571428571437,0.5600000000000003,0.2716666666666668,0.4500000000000003
2,12,24,1,2,0.8000000000000005,2,3,58,53,99,84,2.700000000000002,0.6100000000000003,1.2200000000000009,0.12999999999999998,4,1,3,1,7,2,3,1,4,0,13,7,LH,0.3857142857142859,0.3050000000000001,0.4066666666666669,0.12999999999999998
2,13,25,1,7,1.2100000000000009,2,4,13,48,51,47,14.979999999999752,0.02,0.22000000000000006,0.05,13,1,2,2,33,1,2,2,6,0,20,7,LH,0.4539393939393942,0.02,0.11000000000000003,0.025
2,13,26,1,1,0.3000000000000001,2,3,76,83,79,113,2.6199999999999948,0.5700000000000003,0.20000000000000004,0.7900000000000005,4,3,1,4,8,4,1,6,3,0.5,11,7,LH,0.3275000000000002,0.14250000000000002,0.20000000000000004,0.1316666666666667
2,14,27,1,1,0.7300000000000004,2,6,77,106,108,24,1.4900000000000009,2.249999999999996,0.5600000000000003,0.11999999999999998,4,3,2,1,11,7,3,1,3,0,13,7,LH,0.1354545454545455,0.32142857142857156,0.1866666666666667,0.11999999999999998
2,14,28,1,9,4.079999999999957,4,8,88,67,93,86,4.939999999999958,0.8900000000000006,1.7100000000000013,0.18000000000000002,7,1,4,1,11,1,6,1,4,0.5,13,7,LH,0.44909090909090915,0.8900000000000006,0.2850000000000001,0.18000000000000002
2,15,29,1,3,1.470000000000001,4,5,14,81,29,78,16.139999999999734,0.01,0.01,0.3300000000000001,20,1,1,2,41,1,1,2,5,0,17,7,LH,0.39365853658536604,0.01,0.01,0.16500000000000004
2,15,30,1,6,0.4200000000000002,2,6,62,108,7,61,3.249999999999984,0.5800000000000003,1.1600000000000008,0.04,6,1,3,1,13,1,3,1,6,0,16,7,LH,0.2500000000000001,0.5800000000000003,0.3866666666666669,0.04
2,16,31,1,9,2.6999999999999864,5,12,72,48,101,103,6.48999999999995,0.10999999999999999,0.19000000000000003,1.9600000000000015,9,1,2,2,21,1,2,2,4,0,13,7,LH,0.3090476190476192,0.10999999999999999,0.09499999999999999,0.9800000000000008
2,16,32,1,8,0.8200000000000005,2,3,118,1,29,4,2.3100000000000014,0.7500000000000004,1.0500000000000007,0.12999999999999998,3,2,3,1,4,2,5,1,2,0,19,7,LH,0.5775000000000003,0.3750000000000002,0.21000000000000005,0.12999999999999998
2,17,33,1,10,0.37000000000000016,2,4,94,93,61,64,1.3900000000000008,1.320000000000001,3.6899999999999653,0.02,4,3,4,1,8,3,6,1,3,0,14,7,LH,0.17375000000000007,0.4400000000000002,0.6150000000000004,0.02
2,17,34,1,6,1.6500000000000012,4,5,11,75,83,47,3.3200000000000025,2.8299999999999836,0.11999999999999998,0.12999999999999998,6,3,1,2,9,5,1,3,6,0,17,7,LH,0.36888888888888904,0.5660000000000004,0.11999999999999998,0.043333333333333335
2,18,35,1,10,3.47999999999997,5,10,93,111,117,3,5.449999999999971,0.6200000000000003,0.25000000000000006,1.1800000000000008,8,2,2,1,14,3,2,1,3,0,13,7,LH,0.3892857142857145,0.20666666666666675,0.12499999999999997,1.1800000000000008
2,18,36,1,7,0.8400000000000005,3,5,13,24,104,105,9.539999999999859,0.01,0.01,0.01,10,1,1,1,21,1,1,1,6,0,16,7,LH,0.45428571428571396,0.01,0.01,0.01
2,19,37,1,10,1.1200000000000008,4,6,65,115,89,95,4.219999999999978,0.21000000000000005,0.10999999999999999,0.16,7,1,1,2,13,1,1,2,3,0,12,7,LH,0.32461538461538475,0.21000000000000005,0.10999999999999999,0.08
2,19,38,1,2,0.18000000000000002,2,2,15,22,36,35,12.799999999999775,0.02,0.01,0.01,13,1,1,1,35,1,1,1,4,0,22,7,LH,0.3657142857142859,0.02,0.01,0.01
2,20,39,1,10,0.6800000000000004,3,7,89,37,95,72,1.3000000000000007,3.0799999999999783,0.060000000000000005,0.07,5,4,2,1,9,6,2,1,3,0,15,7,LH,0.1444444444444445,0.5133333333333336,0.03,0.07
2,20,40,1,7,0.47000000000000025,2,6,21,23,20,102,1.8100000000000012,0.4000000000000002,7.099999999999893,0.02,4,1,7,1,10,1,13,1,6,0.5,20,7,LH,0.18100000000000005,0.4000000000000002,0.5461538461538465,0.02
2,21,41,1,8,0.7600000000000005,2,3,112,96,93,31,2.3400000000000016,0.7300000000000004,0.21000000000000005,1.480000000000001,4,1,1,2,9,1,1,2,2,0,13,7,LH,0.2600000000000001,0.7300000000000004,0.21000000000000005,0.7400000000000004
2,21,42,1,4,0.4400000000000002,2,6,98,101,44,76,2.1100000000000017,0.4100000000000002,0.47000000000000025,0.6800000000000004,4,1,1,2,10,1,1,5,2,0,12,7,LH,0.21100000000000008,0.4100000000000002,0.47000000000000025,0.13600000000000004
3,1,1,0,6,0.8900000000000006,2,4,1,40,47,108,13.719999999999771,0.25000000000000006,0.5400000000000003,0.3000000000000001,17,1,1,1,52,1,1,1,6,0,18,7,LH,0.26384615384615395,0.25000000000000006,0.5400000000000003,0.3000000000000001
3,1,2,0,8,1.300000000000001,2,13,17,50,116,14,8.0799999999999,6.019999999999916,0.07,0.15,11,11,1,1,38,22,1,1,2,0,18,7,LH,0.2126315789473685,0.2736363636363638,0.07,0.15
3,2,3,0,3,0.8000000000000005,2,5,59,30,110,111,9.249999999999865,1.0400000000000007,3.839999999999962,1.9200000000000015,14,4,6,3,39,6,12,4,5,0,13,7,LH,0.23717948717948728,0.1733333333333334,0.3200000000000001,0.48000000000000026
3,2,4,0,1,0.9600000000000006,3,6,19,61,77,108,8.71999999999988,1.7000000000000013,0.19000000000000003,0.3200000000000001,14,4,2,1,40,4,2,1,3,0,15,7,LH,0.21800000000000008,0.4250000000000002,0.095,0.3200000000000001
3,3,5,0,2,1.2500000000000009,2,9,33,53,34,110,7.989999999999902,2.7799999999999847,0.7900000000000005,0.35000000000000014,8,5,2,1,32,15,8,1,4,0,16,7,LH,0.24968750000000012,0.18533333333333338,0.09875000000000003,0.35000000000000014
3,3,6,0,5,0.7800000000000005,4,8,47,100,46,97,5.069999999999953,2.5199999999999902,2.339999999999994,2.4699999999999913,9,3,4,7,23,4,8,15,5,0,14,7,LH,0.22043478260869573,0.6300000000000003,0.29250000000000015,0.1646666666666667
3,4,7,0,8,0.9700000000000006,2,8,110,47,20,115,4.899999999999961,3.239999999999975,1.1200000000000008,1.2100000000000009,8,6,2,3,19,12,4,5,2,0,15,7,LH,0.2578947368421054,0.27000000000000013,0.2800000000000001,0.24200000000000008
3,4,8,0,3,1.6900000000000013,3,14,49,36,26,54,5.929999999999955,3.649999999999966,3.7399999999999642,2.7999999999999843,7,6,7,6,32,12,15,14,5,0,18,7,LH,0.18531250000000007,0.3041666666666668,0.24933333333333343,0.20000000000000007
3,5,9,0,4,1.7600000000000013,3,9,33,99,101,97,9.199999999999887,1.2200000000000009,0.34000000000000014,0.2800000000000001,13,2,1,4,30,8,1,5,2,0.5,17,7,LH,0.3066666666666668,0.15250000000000002,0.34000000000000014,0.056
3,5,10,0,5,1.1400000000000008,4,9,15,14,113,116,10.639999999999842,0.20000000000000004,0.36000000000000015,0.2800000000000001,16,1,1,1,42,1,1,1,5,0,16,7,LH,0.2533333333333334,0.20000000000000004,0.36000000000000015,0.2800000000000001
3,6,11,0,10,0.7000000000000004,3,7,85,95,96,99,5.1599999999999495,3.7399999999999642,0.5700000000000003,1.270000000000001,13,6,2,2,24,9,4,9,3,0.5,20,7,LH,0.21500000000000008,0.4155555555555558,0.14250000000000002,0.14111111111111113
3,6,12,0,1,1.440000000000001,2,10,73,83,21,35,6.4699999999999385,2.53999999999999,1.380000000000001,1.1300000000000008,5,5,3,2,26,12,5,5,3,0,17,7,LH,0.24884615384615394,0.21166666666666675,0.27600000000000013,0.22600000000000006
3,7,13,1,6,1.1300000000000008,2,9,9,106,8,97,9.099999999999875,1.2200000000000009,0.18000000000000002,1.1000000000000008,10,3,1,3,38,4,1,3,6,0,16,7,LH,0.2394736842105264,0.3050000000000001,0.18000000000000002,0.3666666666666668
3,7,14,1,3,1.7400000000000013,2,12,34,31,17,119,6.309999999999948,1.5500000000000012,5.809999999999921,0.5600000000000003,6,2,10,2,34,7,28,2,5,0,18,7,LH,0.1855882352941177,0.2214285714285715,0.20750000000000007,0.28000000000000014
3,8,15,1,8,1.1100000000000008,2,9,120,112,111,114,7.269999999999914,3.0299999999999794,0.8600000000000005,6.359999999999909,7,8,3,16,22,14,3,27,2,1,24,7,LH,0.3304545454545456,0.2164285714285715,0.28666666666666674,0.23555555555555563
3,8,16,1,6,0.7600000000000005,2,4,2,97,78,55,11.569999999999814,0.09,0.6500000000000004,0.22000000000000006,11,1,2,2,46,1,5,2,6,0,15,7,LH,0.2515217391304349,0.09,0.13000000000000003,0.11
3,9,17,1,5,1.1400000000000008,2,9,46,20,43,70,8.119999999999896,0.5500000000000003,0.3200000000000001,3.3999999999999715,11,1,2,7,33,1,2,12,5,0,20,7,LH,0.24606060606060615,0.5500000000000003,0.16,0.28333333333333344
3,9,18,1,3,1.8900000000000015,3,9,99,30,60,107,7.219999999999932,3.5899999999999674,0.6300000000000003,0.26000000000000006,10,11,2,2,27,24,2,2,5,0,13,7,LH,0.26740740740740754,0.14958333333333337,0.3150000000000001,0.13
3,10,19,1,3,0.6200000000000003,3,8,4,106,57,100,9.389999999999858,0.4400000000000002,0.4000000000000002,0.20000000000000004,12,2,1,2,48,3,1,2,5,0,14,7,LH,0.19562500000000005,0.1466666666666667,0.4000000000000002,0.10000000000000002
3,10,20,1,1,2.5999999999999885,2,21,117,18,16,119,11.64999999999984,0.7900000000000005,1.0100000000000007,0.2800000000000001,13,4,2,1,58,4,10,1,3,0,16,7,LH,0.2008620689655173,0.19750000000000006,0.101,0.2800000000000001
3,11,21,1,7,0.6100000000000003,5,5,44,114,46,16,11.639999999999809,3.379999999999972,2.0500000000000003,1.370000000000001,18,6,4,3,44,17,4,5,6,0,18,7,LH,0.26454545454545464,0.19882352941176476,0.5125000000000003,0.27400000000000013
3,11,22,1,10,1.2500000000000009,2,10,92,90,88,97,6.19999999999994,1.8000000000000014,0.6000000000000003,3.239999999999975,9,3,3,10,25,7,3,13,3,0.5,11,7,LH,0.2480000000000001,0.25714285714285723,0.20000000000000004,0.2492307692307693
3,12,23,1,5,0.5400000000000003,2,3,39,41,77,97,10.299999999999837,2.199999999999997,2.299999999999995,0.11999999999999998,17,7,9,2,38,12,12,3,5,0,15,7,LH,0.2710526315789475,0.18333333333333338,0.1916666666666667,0.04
3,12,24,1,3,1.1400000000000008,3,7,30,17,19,22,8.939999999999879,1.490000000000001,0.5000000000000002,1.370000000000001,15,5,2,4,45,6,3,7,5,0.5,23,7,LH,0.19866666666666674,0.2483333333333334,0.1666666666666667,0.19571428571428579
3,13,25,1,8,0.8100000000000005,6,7,81,74,15,114,5.619999999999942,1.6800000000000013,3.989999999999959,0.19000000000000003,13,3,8,1,28,7,19,1,2,0,14,7,LH,0.20071428571428576,0.24000000000000007,0.21000000000000008,0.19000000000000003
3,13,26,1,2,0.5000000000000002,3,4,54,36,53,25,5.049999999999947,2.299999999999995,0.8100000000000005,2.9299999999999815,10,5,4,9,26,5,4,9,4,0,18,7,LH,0.1942307692307693,0.46000000000000024,0.20250000000000007,0.3255555555555557
3,14,27,1,3,0.22000000000000006,2,3,27,32,31,80,4.919999999999944,0.5100000000000002,0.6600000000000004,2.5599999999999894,9,2,3,8,22,3,6,11,5,0.5,18,7,LH,0.22363636363636372,0.17000000000000004,0.11000000000000003,0.2327272727272728
3,14,28,1,7,1.380000000000001,3,10,60,59,51,17,7.799999999999908,3.149999999999977,0.48000000000000026,0.11999999999999998,13,8,3,2,42,16,5,2,6,0.5,18,7,LH,0.18571428571428578,0.19687500000000005,0.096,0.05999999999999999
3,15,29,1,1,3.239999999999975,6,17,81,79,43,40,11.65999999999984,0.3300000000000001,0.23000000000000007,2.7499999999999853,13,2,1,8,50,2,1,11,3,0,16,7,LH,0.23320000000000007,0.165,0.23000000000000007,0.2500000000000001
3,15,30,1,10,1.0000000000000007,3,5,120,93,91,85,5.659999999999946,0.9000000000000006,2.3599999999999937,0.9000000000000006,10,3,3,5,33,4,18,8,3,0.5,11,7,LH,0.17151515151515156,0.2250000000000001,0.13111111111111115,0.11250000000000002
3,16,31,1,7,1.1900000000000008,2,10,13,119,81,71,8.98999999999988,0.34000000000000014,0.5100000000000002,0.6600000000000004,10,2,2,2,35,2,3,2,6,0,15,7,LH,0.25685714285714295,0.17,0.17000000000000004,0.3300000000000001
3,16,32,1,4,0.8800000000000006,2,5,29,97,103,53,6.559999999999924,0.8300000000000005,0.34000000000000014,0.8400000000000005,9,2,1,3,33,5,1,7,2,0,13,7,LH,0.19878787878787885,0.16600000000000004,0.34000000000000014,0.12000000000000002
3,17,33,1,2,10.419999999999822,10,59,45,84,41,13,13.789999999999795,0.7700000000000005,3.049999999999979,6.129999999999914,17,2,6,8,68,2,12,26,4,0,19,7,LH,0.2027941176470589,0.3850000000000002,0.25416666666666676,0.23576923076923087
3,17,34,1,6,0.7700000000000005,2,6,11,36,68,10,3.1199999999999943,3.089999999999978,3.8299999999999623,0.2900000000000001,5,6,5,2,12,9,13,2,6,0,21,7,LH,0.2600000000000001,0.3433333333333335,0.2946153846153847,0.14500000000000002
3,18,35,1,10,0.6200000000000003,3,7,89,91,92,67,8.729999999999873,0.9800000000000006,0.3000000000000001,0.7900000000000005,15,5,2,2,40,7,3,2,3,0.5,13,7,LH,0.21825000000000008,0.14,0.09999999999999999,0.3950000000000002
3,18,36,1,3,2.8399999999999834,2,14,35,29,79,112,12.049999999999832,0.6800000000000004,1.370000000000001,1.1900000000000008,13,1,5,4,59,1,6,9,5,0,15,7,LH,0.20423728813559328,0.6800000000000004,0.22833333333333342,0.13222222222222224
3,19,37,1,1,2.5999999999999885,5,14,39,63,46,1,8.039999999999917,1.5600000000000012,0.34000000000000014,1.410000000000001,11,4,1,6,38,9,2,9,3,0,20,7,LH,0.21157894736842114,0.1733333333333334,0.17000000000000004,0.1566666666666667
3,19,38,1,3,0.3300000000000001,2,7,15,60,89,56,19.010000000000122,0.01,0.07,0.02,17,1,1,1,86,1,1,1,5,0,17,7,LH,0.22104651162790706,0.01,0.07,0.02
3,20,39,1,2,1.5200000000000011,3,8,55,5,74,44,9.519999999999875,1.9100000000000015,0.5000000000000002,0.07,14,3,2,1,37,4,2,1,4,0,18,7,LH,0.2572972972972974,0.4775000000000003,0.25000000000000006,0.07
3,20,40,1,7,1.490000000000001,3,9,94,86,89,88,10.489999999999853,0.5100000000000002,0.36000000000000015,0.20000000000000004,17,3,2,1,54,6,2,1,6,1,36,7,LH,0.19425925925925933,0.085,0.18000000000000002,0.20000000000000004
4,1,1,0,3,0.8200000000000005,2,5,55,7,50,25,4.179999999999973,0.25000000000000006,0.19000000000000003,0.10999999999999999,8,2,1,2,19,2,1,2,5,0,19,7,LH,0.22000000000000008,0.12499999999999997,0.19000000000000003,0.05500000000000001
4,1,2,0,9,0.7300000000000004,2,6,67,86,24,64,1.9600000000000013,1.320000000000001,0.7100000000000004,1.5700000000000012,5,2,2,2,14,4,2,2,4,0,17,7,LH,0.14000000000000004,0.3300000000000001,0.35500000000000015,0.7850000000000006
4,2,3,0,1,0.7000000000000004,2,5,120,61,1,66,1.670000000000001,1.7400000000000013,1.8900000000000015,0.5600000000000003,3,3,3,1,6,7,5,1,3,0,16,7,LH,0.27833333333333343,0.24857142857142867,0.3780000000000002,0.5600000000000003
4,2,4,0,2,0.37000000000000016,2,2,16,46,50,97,16.40999999999971,0.01,0.01,0.01,18,1,1,1,33,1,1,1,4,0,17,7,LH,0.4972727272727276,0.01,0.01,0.01
4,3,5,0,9,0.2900000000000001,2,3,15,67,66,16,5.269999999999938,0.01,0.05,0.15,9,1,1,2,24,1,1,3,4,0,20,7,LH,0.2195833333333334,0.01,0.05,0.05
4,3,6,0,1,0.49000000000000027,2,3,75,106,1,55,0.8100000000000004,1.8500000000000014,0.48000000000000026,0.25000000000000006,4,2,2,1,5,7,2,1,3,0,15,7,LH,0.16200000000000003,0.2642857142857144,0.2400000000000001,0.25000000000000006
4,4,7,0,2,1.0200000000000007,2,5,57,51,56,59,2.1300000000000017,0.6900000000000004,0.3100000000000001,0.38000000000000017,4,2,1,2,7,3,1,3,4,1,48,7,LH,0.30428571428571444,0.23000000000000007,0.3100000000000001,0.12666666666666665
4,4,8,0,9,0.6500000000000004,2,5,70,94,102,34,1.3700000000000008,1.270000000000001,1.1400000000000008,0.6300000000000003,4,2,3,1,8,2,4,1,4,0,14,7,LH,0.17125000000000004,0.6350000000000005,0.2850000000000001,0.6300000000000003
4,5,9,0,1,1.340000000000001,12,14,83,80,74,50,1.740000000000001,0.25000000000000006,0.2800000000000001,1.8700000000000014,13,1,1,4,15,1,1,5,3,0.5,22,7,LH,0.11600000000000002,0.25000000000000006,0.2800000000000001,0.3740000000000002
4,5,10,0,10,0.6400000000000003,2,3,101,105,67,99,2.370000000000002,0.47000000000000025,0.5100000000000002,0.5800000000000003,6,2,1,3,10,2,1,4,3,0.5,16,7,LH,0.23700000000000007,0.23500000000000004,0.5100000000000002,0.14500000000000005
4,6,11,0,2,0.49000000000000027,2,4,52,2,100,56,1.1200000000000006,2.759999999999985,0.3300000000000001,0.19000000000000003,4,5,1,3,6,9,1,3,4,0,16,7,LH,0.18666666666666673,0.3066666666666668,0.3300000000000001,0.06333333333333334
4,6,12,0,5,1.5600000000000012,11,14,37,14,95,63,2.6700000000000017,2.07,0.6800000000000004,0.4000000000000002,13,4,3,1,18,6,4,1,5,0,18,7,LH,0.14833333333333337,0.34500000000000014,0.17000000000000004,0.4000000000000002
4,7,13,1,6,0.7100000000000004,2,5,60,55,40,75,3.7099999999999804,1.1800000000000008,0.5600000000000003,0.6600000000000004,6,3,3,2,11,4,3,2,6,0,16,7,LH,0.33727272727272745,0.2950000000000001,0.1866666666666667,0.3300000000000001
4,7,14,1,10,0.6600000000000004,2,4,95,96,66,28,1.640000000000001,0.2800000000000001,0.26000000000000006,1.2500000000000009,4,1,1,3,7,1,1,4,3,0,15,7,LH,0.23428571428571437,0.2800000000000001,0.26000000000000006,0.3125000000000001
4,8,15,1,2,0.9800000000000006,2,5,55,31,30,51,1.3600000000000008,2.199999999999997,0.6500000000000004,0.12999999999999998,4,3,1,1,7,5,1,1,4,0,18,7,LH,0.19428571428571434,0.4400000000000002,0.6500000000000004,0.12999999999999998
4,8,16,1,7,0.8700000000000006,6,10,18,15,39,118,1.2800000000000007,1.380000000000001,4.589999999999947,0.09999999999999999,8,3,8,2,12,6,15,2,6,0,19,7,LH,0.10666666666666667,0.2300000000000001,0.30600000000000016,0.05
4,9,17,1,9,0.5400000000000003,2,3,70,89,65,105,1.2900000000000007,1.5400000000000011,0.15,0.5700000000000003,4,3,2,2,5,6,2,2,4,0,13,7,LH,0.2580000000000001,0.25666666666666677,0.075,0.2850000000000001
4,9,18,1,7,0.6000000000000003,2,4,13,19,75,53,1.670000000000001,0.36000000000000015,0.45000000000000023,0.18000000000000002,4,2,1,1,8,2,1,1,6,0,19,7,LH,0.20875000000000005,0.18000000000000002,0.45000000000000023,0.18000000000000002
4,10,19,1,7,1.0400000000000007,2,5,118,46,23,53,2.680000000000002,0.5900000000000003,0.2800000000000001,0.5400000000000003,4,2,2,4,10,2,2,4,6,0,17,7,LH,0.2680000000000001,0.2950000000000001,0.14,0.13500000000000006
4,10,20,1,6,0.9000000000000006,2,7,12,93,107,61,1.700000000000001,0.38000000000000017,0.9600000000000006,0.23000000000000007,4,1,2,1,11,1,4,1,6,0,15,7,LH,0.1545454545454546,0.38000000000000017,0.24000000000000007,0.23000000000000007
4,11,21,1,6,0.7300000000000004,2,8,9,34,5,3,1.2200000000000006,1.480000000000001,0.25000000000000006,0.9600000000000006,3,4,2,3,9,4,3,4,6,0.5,23,7,LH,0.1355555555555556,0.37000000000000016,0.08333333333333333,0.24000000000000007
4,11,22,1,5,1.490000000000001,2,6,46,101,24,39,2.0000000000000013,0.7500000000000004,0.6400000000000003,0.48000000000000026,4,2,2,2,8,2,2,2,5,0,18,7,LH,0.25000000000000006,0.37500000000000017,0.3200000000000001,0.24000000000000005
4,12,23,1,4,0.7100000000000004,2,3,106,85,103,86,0.8700000000000004,0.9100000000000006,0.4200000000000002,0.8500000000000005,4,1,1,4,6,1,1,5,2,0,10,7,LH,0.14500000000000005,0.9100000000000006,0.4200000000000002,0.17000000000000004
4,12,24,1,8,1.1000000000000008,2,5,110,21,116,63,2.4300000000000015,0.36000000000000015,0.5200000000000002,0.35000000000000014,5,1,2,1,10,2,3,1,2,0,14,7,LH,0.24300000000000008,0.18000000000000008,0.17333333333333337,0.35000000000000014
4,13,25,1,4,0.34000000000000014,4,4,1,34,66,62,15.699999999999717,0.01,0.01,0.01,19,1,1,1,43,1,1,1,2,0,19,7,LH,0.3651162790697676,0.01,0.01,0.01
4,13,26,1,2,0.5300000000000002,2,3,94,47,120,93,1.1700000000000006,1.340000000000001,0.4200000000000002,0.11999999999999998,3,2,2,1,4,10,3,1,4,0,13,7,LH,0.2925000000000001,0.13400000000000004,0.14,0.11999999999999998
4,14,27,1,9,1.0500000000000007,5,10,99,92,33,31,1.8900000000000012,0.47000000000000025,0.26000000000000006,0.4100000000000002,7,1,1,1,13,1,1,1,4,0,15,7,LH,0.14538461538461542,0.47000000000000025,0.26000000000000006,0.4100000000000002
4,14,28,1,8,0.6900000000000004,2,3,42,45,23,116,2.2700000000000014,0.3900000000000002,0.3200000000000001,2.819999999999984,6,2,2,6,9,2,3,12,2,0,18,7,LH,0.2522222222222223,0.19500000000000003,0.10666666666666666,0.23500000000000007
4,15,29,1,1,0.5100000000000002,2,5,74,37,80,42,0.8100000000000003,1.500000000000001,0.18000000000000002,0.6200000000000003,4,2,1,2,7,3,1,3,3,0,16,7,LH,0.11571428571428573,0.5000000000000002,0.18000000000000002,0.20666666666666672
4,15,30,1,7,0.7600000000000005,4,5,17,86,89,120,1.2000000000000006,0.9600000000000006,0.9100000000000006,0.3000000000000001,6,3,2,2,7,4,2,3,6,0,14,7,LH,0.17142857142857146,0.24000000000000007,0.45500000000000024,0.1
4,16,31,1,9,0.5400000000000003,2,3,62,13,93,24,1.0900000000000005,1.380000000000001,0.5400000000000003,1.1000000000000008,4,3,1,3,5,3,1,3,4,0,19,7,LH,0.21800000000000005,0.46000000000000024,0.5400000000000003,0.3666666666666668
4,16,32,1,6,0.7400000000000004,2,4,1,106,10,77,7.749999999999895,0.01,0.02,0.02,11,1,1,1,25,1,1,1,6,0,17,7,LH,0.3099999999999996,0.01,0.02,0.02
4,17,33,1,2,1.6600000000000013,13,20,4,117,1,32,3.3600000000000025,0.09,0.5100000000000002,0.8400000000000005,16,1,2,2,24,1,2,3,4,0,19,7,LH,0.14000000000000004,0.09,0.25500000000000006,0.2800000000000001
4,17,34,1,9,1.0600000000000007,7,8,40,98,65,16,1.650000000000001,1.1000000000000008,0.16,0.6300000000000003,9,2,1,2,11,6,1,3,4,0,17,7,LH,0.15000000000000002,0.18333333333333338,0.16,0.21000000000000005
4,18,35,1,6,0.25000000000000006,3,4,1,5,38,65,1.2100000000000006,0.8300000000000005,0.10999999999999999,0.2900000000000001,5,2,1,1,9,5,1,1,6,0,21,7,LH,0.13444444444444448,0.16600000000000004,0.10999999999999999,0.2900000000000001
4,18,36,1,3,0.5500000000000003,2,6,28,112,14,96,1.7600000000000011,0.5700000000000003,0.7500000000000004,0.6500000000000004,4,2,4,2,11,2,4,2,5,0,16,7,LH,0.16000000000000003,0.28500000000000014,0.18750000000000006,0.3250000000000001
4,19,37,1,2,0.8300000000000005,2,4,55,40,101,49,1.2800000000000007,1.5900000000000012,0.21000000000000005,0.47000000000000025,4,2,1,2,6,5,1,2,4,0,15,7,LH,0.2133333333333334,0.3180000000000001,0.21000000000000005,0.23500000000000004
4,19,38,1,9,0.46000000000000024,2,3,64,14,21,26,1.0900000000000005,2.099999999999999,0.3200000000000001,0.5600000000000003,4,3,2,1,7,5,3,1,4,0,21,7,LH,0.15571428571428575,0.4200000000000002,0.10666666666666667,0.5600000000000003
4,20,39,1,6,0.6500000000000004,3,4,73,10,48,117,1.9000000000000012,0.3200000000000001,1.1300000000000008,1.320000000000001,5,2,3,3,6,2,5,4,6,0,16,7,LH,0.3166666666666668,0.16,0.2260000000000001,0.3300000000000001
4,20,40,1,4,1.0200000000000007,2,7,24,94,105,97,3.2899999999999965,0.6300000000000003,0.18000000000000002,0.23000000000000007,6,1,1,2,15,1,1,2,2,0,13,7,LH,0.2193333333333334,0.6300000000000003,0.18000000000000002,0.11499999999999999
4,21,41,1,6,1.0100000000000007,2,5,4,3,43,106,1.590000000000001,5.169999999999934,0.05,0.03,4,10,1,1,7,15,1,1,6,0,19,7,LH,0.2271428571428572,0.34466666666666684,0.05,0.03
4,21,42,1,3,0.6700000000000004,2,5,28,82,117,29,1.2900000000000007,1.1800000000000008,0.7900000000000005,0.5200000000000002,4,3,2,2,7,3,2,2,5,0,15,7,LH,0.18428571428571433,0.39333333333333353,0.39500000000000013,0.2600000000000001
5,1,1,0,8,4.659999999999945,4,19,43,5,41,6,5.189999999999945,0.2900000000000001,0.36000000000000015,0.5800000000000003,5,1,1,2,20,1,1,2,2,0,22,7,LH,0.2595000000000001,0.2900000000000001,0.36000000000000015,0.2900000000000001
5,1,2,0,7,3.0299999999999794,5,15,22,63,13,16,3.4199999999999795,0.5000000000000002,1.0800000000000007,0.2800000000000001,6,2,2,2,16,2,2,2,6,0.5,40,7,LH,0.21375000000000008,0.25000000000000006,0.5400000000000003,0.13999999999999999
5,2,3,0,4,4.089999999999957,3,21,103,39,38,10,4.399999999999958,0.35000000000000014,0.3300000000000001,2.8899999999999824,5,1,1,5,23,2,1,12,2,0,18,7,LH,0.19130434782608702,0.17500000000000004,0.3300000000000001,0.2408333333333334
5,2,4,0,1,1.450000000000001,8,14,82,14,20,83,1.500000000000001,1.8600000000000014,0.8200000000000005,0.13999999999999999,9,3,4,2,15,3,4,2,3,0,18,7,LH,0.10000000000000003,0.6200000000000003,0.20500000000000007,0.06999999999999999
5,3,5,0,1,3.649999999999966,15,21,76,84,117,81,3.679999999999966,0.09,0.6500000000000004,0.15,16,1,2,2,22,1,3,2,3,0.5,20,7,LH,0.16727272727272735,0.09,0.2166666666666667,0.07499999999999998
5,3,6,0,7,3.5999999999999672,4,19,17,19,95,16,3.9199999999999675,0.20000000000000004,0.21000000000000005,0.9100000000000006,5,1,2,2,20,1,2,2,6,0.5,39,7,LH,0.19600000000000006,0.20000000000000004,0.10500000000000002,0.45500000000000024
5,4,7,0,5,2.3199999999999945,4,11,112,46,22,87,3.069999999999995,0.6000000000000003,2.2699999999999956,3.3899999999999717,6,2,3,5,16,3,10,10,5,0,16,7,LH,0.19187500000000007,0.20000000000000004,0.22700000000000006,0.3390000000000002
5,4,8,0,4,1.9500000000000015,3,11,106,104,105,10,2.0800000000000014,0.4300000000000002,0.19000000000000003,0.5800000000000003,5,2,1,2,14,3,1,3,2,0.5,18,7,LH,0.14857142857142863,0.1433333333333333,0.19000000000000003,0.19333333333333336
5,5,9,0,10,2.4999999999999907,6,14,91,90,2,3,2.619999999999991,0.17,0.38000000000000017,1.8100000000000014,8,1,1,4,16,1,1,9,3,0,18,7,LH,0.16375000000000006,0.17,0.38000000000000017,0.20111111111111118
5,5,10,0,1,1.6200000000000012,10,16,103,15,50,49,16.51999999999973,0.01,0.01,0.01,20,1,1,1,58,1,1,1,3,0,16,7,LH,0.2848275862068967,0.01,0.01,0.01
5,6,11,0,10,3.2599999999999745,5,16,90,85,104,10,3.3099999999999743,0.15,0.8100000000000005,0.5300000000000002,6,1,2,2,17,1,4,4,3,0,14,7,LH,0.19470588235294123,0.15,0.20250000000000004,0.1325
5,6,12,0,7,1.7300000000000013,17,22,16,68,40,38,1.7400000000000013,0.6600000000000004,0.17,2.8399999999999834,18,2,2,5,23,2,2,10,6,0,20,7,LH,0.07565217391304349,0.3300000000000001,0.085,0.28400000000000014
5,7,13,1,1,2.619999999999988,4,16,76,97,107,101,2.809999999999988,0.26000000000000006,0.9600000000000006,0.4400000000000002,6,1,3,2,18,1,3,2,3,0.5,9,7,LH,0.15611111111111114,0.26000000000000006,0.3200000000000001,0.22000000000000003
5,7,14,1,2,3.4899999999999696,4,12,49,51,60,116,3.6699999999999697,0.17,0.21000000000000005,1.480000000000001,5,1,2,4,13,1,2,5,4,0.5,14,7,LH,0.2823076923076925,0.17,0.10500000000000001,0.2960000000000001
5,8,15,1,2,1.7900000000000014,5,9,5,55,37,54,2.650000000000002,0.11999999999999998,0.17,0.10999999999999999,7,1,1,1,16,1,1,1,4,0,19,7,LH,0.16562500000000005,0.11999999999999998,0.17,0.10999999999999999
5,8,16,1,9,2.709999999999986,4,10,61,94,69,67,2.799999999999986,0.3300000000000001,1.1100000000000008,0.5400000000000003,6,1,3,3,12,1,6,4,4,0.5,15,7,LH,0.23333333333333345,0.3300000000000001,0.18500000000000003,0.135
5,9,17,1,7,1.390000000000001,8,11,14,23,104,97,1.400000000000001,0.12999999999999998,0.20000000000000004,0.47000000000000025,9,1,1,2,12,1,1,4,6,0,16,7,LH,0.1166666666666667,0.12999999999999998,0.20000000000000004,0.11750000000000001
5,9,18,1,2,3.709999999999965,4,18,53,2,3,79,3.899999999999965,0.2700000000000001,6.0499999999999154,0.02,6,1,7,1,20,1,17,1,4,0,19,7,LH,0.19500000000000006,0.2700000000000001,0.35588235294117665,0.02
5,10,19,1,10,3.889999999999961,9,17,93,1,110,109,3.999999999999961,3.7299999999999645,0.7300000000000004,0.37000000000000016,11,4,2,2,19,12,2,2,3,0,13,7,LH,0.21052631578947378,0.3108333333333335,0.36500000000000016,0.18500000000000008
5,10,20,1,5,1.7500000000000013,3,8,39,79,100,14,2.3000000000000016,0.3100000000000001,1.400000000000001,0.9000000000000006,5,1,4,2,10,1,6,2,5,0,16,7,LH,0.2300000000000001,0.3100000000000001,0.23333333333333342,0.45000000000000023
5,11,21,1,10,2.7399999999999856,17,29,58,119,109,59,4.239999999999987,4.049999999999958,1.8500000000000014,1.410000000000001,20,7,6,7,33,15,7,8,3,0,12,7,LH,0.1284848484848485,0.2700000000000001,0.2642857142857144,0.17625000000000005
5,11,22,1,4,3.2099999999999755,3,14,16,13,71,82,4.279999999999976,1.7800000000000014,0.34000000000000014,0.11999999999999998,5,5,3,1,17,5,3,1,2,0,19,7,LH,0.25176470588235306,0.35600000000000015,0.11333333333333333,0.11999999999999998
5,12,23,1,4,4.059999999999958,6,18,108,104,93,12,4.369999999999958,0.3200000000000001,0.24000000000000007,0.15,8,2,2,2,20,2,2,2,2,0,13,7,LH,0.21850000000000008,0.16,0.12000000000000002,0.075
5,12,24,1,8,5.219999999999933,17,28,113,109,23,115,5.229999999999933,0.01,0.060000000000000005,0.02,18,1,1,1,29,1,1,1,2,0.5,12,7,LH,0.18034482758620698,0.01,0.060000000000000005,0.02
5,13,25,1,3,2.429999999999992,6,15,33,32,104,90,2.6099999999999923,0.3900000000000002,0.25000000000000006,0.16,7,2,2,1,16,3,2,1,5,0,15,7,LH,0.16312500000000005,0.12999999999999998,0.125,0.16
5,13,26,1,5,2.9199999999999817,4,12,43,42,2,3,3.0699999999999816,0.7100000000000004,0.9000000000000006,0.2800000000000001,5,3,3,3,13,4,3,3,5,0,22,7,LH,0.23615384615384624,0.17750000000000005,0.3000000000000001,0.09333333333333332
5,14,27,1,5,5.919999999999918,7,20,83,44,45,43,6.289999999999918,0.47000000000000025,0.21000000000000005,0.15,8,2,1,1,21,3,1,1,5,0.5,18,7,LH,0.2995238095238097,0.1566666666666667,0.21000000000000005,0.15
5,14,28,1,7,1.500000000000001,4,9,15,19,106,107,1.9300000000000013,0.12999999999999998,0.3100000000000001,0.9400000000000006,6,1,2,2,12,1,2,2,6,0,16,7,LH,0.16083333333333338,0.12999999999999998,0.15500000000000003,0.47000000000000025
5,15,29,1,10,5.509999999999927,5,23,15,114,96,92,10.109999999999873,0.12999999999999998,0.08,0.04,15,1,1,1,40,1,1,1,3,0,14,7,LH,0.25275000000000003,0.12999999999999998,0.08,0.04
5,15,30,1,1,2.3099999999999947,3,11,104,82,39,6,2.9299999999999953,0.11999999999999998,0.3100000000000001,0.47000000000000025,6,1,2,2,14,1,3,5,3,0,16,7,LH,0.20928571428571435,0.11999999999999998,0.10333333333333333,0.09400000000000001
5,16,31,1,5,3.4899999999999696,5,12,40,114,118,41,3.5999999999999694,0.35000000000000014,0.36000000000000015,0.25000000000000006,6,1,3,2,13,1,5,2,5,0,14,7,LH,0.27692307692307705,0.35000000000000014,0.07200000000000001,0.12500000000000003
5,16,32,1,9,3.6899999999999653,6,13,69,81,80,72,4.279999999999966,0.19000000000000003,0.8300000000000005,0.060000000000000005,9,2,3,1,16,2,5,1,4,0,14,7,LH,0.2675000000000001,0.095,0.16600000000000004,0.060000000000000005
5,17,33,1,3,1.7600000000000013,8,10,88,32,8,4,1.8400000000000014,0.7200000000000004,3.6799999999999655,4.709999999999944,9,2,5,10,11,3,5,17,5,0,20,7,LH,0.16727272727272732,0.2400000000000001,0.7360000000000003,0.2770588235294119
5,17,34,1,4,2.959999999999981,4,14,98,79,18,46,2.9899999999999807,0.5700000000000003,0.24000000000000007,0.22000000000000006,5,2,1,2,15,3,1,2,2,0,16,7,LH,0.19933333333333342,0.19000000000000003,0.24000000000000007,0.11000000000000001
5,18,35,1,3,4.109999999999957,6,18,36,34,77,8,4.129999999999956,0.15,0.22000000000000006,0.37000000000000016,7,1,1,2,19,1,1,4,5,0,19,7,LH,0.21736842105263166,0.15,0.22000000000000006,0.0925
5,18,36,1,10,2.869999999999983,5,11,87,48,19,111,3.119999999999983,0.4100000000000002,0.6300000000000003,1.7400000000000013,7,2,3,4,13,2,6,5,3,0,16,7,LH,0.2400000000000001,0.20500000000000002,0.10500000000000002,0.34800000000000014
5,19,37,1,9,2.199999999999997,5,11,72,71,77,13,2.249999999999997,0.08,0.5700000000000003,0.26000000000000006,6,1,2,1,12,1,2,1,4,0,17,7,LH,0.18750000000000006,0.08,0.2850000000000001,0.26000000000000006
5,19,38,1,6,1.1600000000000008,2,9,3,1,2,92,1.1700000000000008,0.04,8.319999999999867,0.11999999999999998,3,1,11,1,10,1,27,1,6,0.5,21,7,LH,0.117,0.04,0.3081481481481483,0.11999999999999998
5,20,39,1,7,4.199999999999955,6,17,33,28,88,31,4.319999999999955,2.0500000000000003,0.8300000000000005,0.5400000000000003,7,4,1,3,18,5,1,5,6,0.5,18,7,LH,0.2400000000000001,0.41000000000000025,0.8300000000000005,0.10800000000000003
5,20,40,1,6,3.089999999999978,4,15,4,39,8,41,3.8499999999999783,0.49000000000000027,0.3900000000000002,1.8900000000000015,6,2,2,5,19,3,2,9,6,0,22,7,LH,0.20263157894736847,0.16333333333333336,0.19500000000000003,0.2100000000000001
5,21,41,1,7,3.379999999999972,3,22,20,35,61,65,3.599999999999972,0.5000000000000002,1.7800000000000014,0.09999999999999999,5,2,5,1,24,2,7,1,6,0,19,7,LH,0.15000000000000002,0.25000000000000006,0.2542857142857144,0.09999999999999999
5,21,42,1,10,0.8300000000000005,13,17,3,6,85,53,3.439999999999989,1.280000000000001,0.01,0.34000000000000014,19,4,1,1,29,5,1,1,3,0,19,7,LH,0.11862068965517245,0.2560000000000001,0.01,0.34000000000000014
6,1,1,0,10,0.7300000000000004,2,8,86,90,17,23,2.2500000000000018,0.5100000000000002,0.36000000000000015,0.5600000000000003,5,2,1,3,20,2,1,6,3,0,18,7,LH,0.11250000000000002,0.25500000000000006,0.36000000000000015,0.09333333333333334
6,1,2,0,1,0.9400000000000006,3,8,80,77,111,1,1.1300000000000006,0.4000000000000002,1.9000000000000015,0.4000000000000002,5,2,5,1,10,2,9,1,3,0,14,7,LH,0.11300000000000002,0.20000000000000007,0.2111111111111112,0.4000000000000002
6,2,3,0,10,0.6300000000000003,2,4,40,46,8,39,2.4800000000000018,2.709999999999986,0.5900000000000003,0.49000000000000027,4,5,2,2,6,6,3,3,3,0.5,36,7,LH,0.41333333333333355,0.4516666666666669,0.1966666666666667,0.16333333333333336
6,2,4,0,3,0.9100000000000006,2,5,35,17,24,109,2.2500000000000018,1.360000000000001,0.7700000000000005,0.36000000000000015,4,2,2,1,13,4,3,1,5,0,19,7,LH,0.1730769230769231,0.34000000000000014,0.25666666666666677,0.36000000000000015
6,3,5,0,9,1.290000000000001,3,9,64,114,65,45,3.2700000000000022,1.1900000000000008,0.6500000000000004,0.7700000000000005,8,2,3,2,19,2,6,3,4,0,15,7,LH,0.1721052631578948,0.5950000000000003,0.10833333333333335,0.25666666666666677
6,3,6,0,7,0.7200000000000004,2,4,84,19,21,52,5.509999999999943,0.15,0.11999999999999998,0.5400000000000003,9,2,1,2,19,2,1,3,6,0,19,7,LH,0.29000000000000015,0.075,0.11999999999999998,0.18000000000000008
6,4,7,0,2,0.6900000000000004,6,8,59,56,53,58,0.9600000000000004,0.7400000000000004,1.450000000000001,1.480000000000001,8,2,3,4,10,3,4,8,4,1,48,7,LH,0.09600000000000002,0.24666666666666676,0.36250000000000016,0.18500000000000005
6,4,8,0,6,0.5400000000000003,5,5,66,71,69,119,3.889999999999973,1.0500000000000007,0.8900000000000006,0.09999999999999999,12,3,4,1,19,3,6,1,6,0.5,26,7,LH,0.20473684210526322,0.35000000000000014,0.14833333333333337,0.09999999999999999
6,5,9,0,5,1.320000000000001,2,13,4,63,1,61,3.979999999999988,0.9600000000000006,0.4300000000000002,0.25000000000000006,7,3,2,1,20,7,3,1,5,0,20,7,LH,0.19900000000000007,0.13714285714285718,0.14333333333333334,0.25000000000000006
6,5,10,0,7,0.8600000000000005,2,6,24,117,17,14,1.8100000000000012,1.1500000000000008,1.0800000000000007,0.26000000000000006,4,2,4,2,11,3,5,2,6,0.5,38,7,LH,0.16454545454545458,0.3833333333333335,0.21600000000000005,0.13
6,6,11,0,4,0.8100000000000005,3,6,108,67,100,101,2.1400000000000015,0.8600000000000005,0.5200000000000002,2.0000000000000013,7,2,2,5,13,2,2,8,2,0.5,16,7,LH,0.16461538461538464,0.4300000000000002,0.26000000000000006,0.25000000000000006
6,6,12,0,10,1.0400000000000007,2,7,96,59,88,116,1.8600000000000012,2.9199999999999817,2.719999999999986,0.05,5,4,5,1,10,8,7,1,3,0,12,7,LH,0.18600000000000005,0.36500000000000016,0.3885714285714288,0.05
6,7,13,1,10,1.5400000000000011,2,7,60,91,94,99,2.1200000000000014,2.159999999999998,1.6900000000000013,1.5300000000000011,3,3,5,2,9,12,13,3,3,0,12,7,LH,0.23555555555555563,0.18000000000000008,0.13000000000000003,0.5100000000000002
6,7,14,1,8,1.300000000000001,3,9,113,114,66,10,2.8900000000000023,0.7200000000000004,0.3100000000000001,0.8100000000000005,5,3,1,3,13,4,1,5,2,0,14,7,LH,0.2223076923076924,0.18000000000000005,0.3100000000000001,0.16200000000000003
6,8,15,1,9,1.7400000000000013,4,11,74,63,112,7,4.399999999999989,1.0700000000000007,1.1900000000000008,0.3100000000000001,8,4,3,2,18,4,7,3,4,0,15,7,LH,0.24444444444444455,0.2675000000000001,0.17000000000000004,0.10333333333333333
6,8,16,1,2,0.6500000000000004,1,2,14,51,88,49,4.269999999999968,0.3000000000000001,0.5500000000000003,0.20000000000000004,8,1,2,1,20,1,3,1,4,0,17,7,LH,0.21350000000000008,0.3000000000000001,0.18333333333333338,0.20000000000000004
6,9,17,1,3,0.4300000000000002,2,3,27,34,12,30,0.8000000000000004,1.0900000000000007,0.4400000000000002,0.6200000000000003,3,4,2,2,4,4,2,2,5,0.5,21,7,LH,0.20000000000000007,0.27250000000000013,0.2200000000000001,0.3100000000000001
6,9,18,1,5,0.9500000000000006,4,7,24,60,17,115,2.650000000000002,0.3900000000000002,0.6900000000000004,0.2700000000000001,6,1,2,1,11,1,2,1,5,0,18,7,LH,0.24090909090909102,0.3900000000000002,0.34500000000000014,0.2700000000000001
6,10,19,1,3,0.6100000000000003,2,4,30,35,56,55,1.8700000000000012,0.3300000000000001,1.500000000000001,2.6599999999999873,4,1,4,4,14,1,7,7,5,0,18,7,LH,0.1335714285714286,0.3300000000000001,0.21428571428571436,0.38000000000000017
6,10,20,1,1,0.6400000000000003,2,5,116,77,73,81,2.030000000000001,0.6000000000000003,2.8899999999999824,0.35000000000000014,5,3,7,3,10,5,11,4,3,0.5,11,7,LH,0.20300000000000007,0.12000000000000001,0.2627272727272728,0.0875
6,11,21,1,1,0.5900000000000003,2,3,83,78,60,58,1.710000000000001,0.45000000000000023,3.4399999999999706,1.330000000000001,4,2,9,3,9,2,11,3,3,0,14,7,LH,0.19000000000000006,0.2250000000000001,0.31272727272727285,0.4433333333333335
6,11,22,1,9,1.2400000000000009,12,15,70,67,62,11,4.0599999999999845,0.8300000000000005,1.9200000000000015,3.379999999999972,19,3,6,10,24,3,8,14,4,0.5,18,7,LH,0.16916666666666672,0.2766666666666668,0.2400000000000001,0.24142857142857152
6,12,23,1,9,0.12999999999999998,2,2,15,67,115,20,12.239999999999787,0.01,0.04,0.01,18,1,2,1,55,1,2,1,4,0,18,7,LH,0.22254545454545463,0.01,0.02,0.01
6,12,24,1,6,1.0400000000000007,14,18,1,84,12,54,1.4700000000000009,4.139999999999956,0.08,3.979999999999959,15,11,1,10,19,21,1,20,6,0,19,7,LH,0.07736842105263159,0.1971428571428572,0.08,0.19900000000000007
6,13,25,1,7,1.0400000000000007,2,7,16,17,14,15,2.3500000000000014,1.1800000000000008,0.5000000000000002,4.939999999999939,4,4,3,10,13,5,3,20,6,1,72,7,LH,0.18076923076923082,0.2360000000000001,0.16666666666666669,0.24700000000000008
6,13,26,1,4,0.8400000000000005,2,5,108,103,79,6,0.9900000000000005,1.450000000000001,2.4699999999999913,0.3200000000000001,4,4,5,1,7,6,7,2,2,0,13,7,LH,0.14142857142857146,0.24166666666666675,0.352857142857143,0.16000000000000003
6,14,27,1,2,0.5500000000000003,2,4,83,73,51,49,4.829999999999954,0.48000000000000026,3.239999999999975,0.22000000000000006,7,1,7,2,15,1,10,2,4,0,14,7,LH,0.3220000000000002,0.48000000000000026,0.3240000000000001,0.11000000000000001
6,14,28,1,8,0.8200000000000005,2,7,111,62,112,66,1.670000000000001,5.209999999999933,1.420000000000001,1.350000000000001,4,11,5,4,11,20,7,5,2,0,12,7,LH,0.15181818181818185,0.2605000000000001,0.20285714285714293,0.27000000000000013
6,15,29,1,4,0.5200000000000002,2,3,97,100,101,74,2.9899999999999913,0.3200000000000001,1.2200000000000009,2.389999999999993,7,2,4,10,9,4,5,17,2,0.5,9,7,LH,0.33222222222222236,0.08000000000000002,0.2440000000000001,0.14058823529411768
6,15,30,1,2,1.1200000000000008,2,7,55,57,54,113,1.8600000000000012,2.349999999999994,0.5100000000000002,0.5300000000000002,4,4,2,2,11,5,2,5,4,0.5,14,7,LH,0.16909090909090913,0.47000000000000025,0.25500000000000006,0.10599999999999998
6,16,31,1,7,0.45000000000000023,2,3,16,73,75,22,10.53999999999983,0.02,0.04,0.02,16,1,1,1,40,1,1,1,6,0,18,7,LH,0.2635000000000001,0.02,0.04,0.02
6,16,32,1,8,0.9600000000000006,2,3,116,64,87,114,2.6700000000000017,2.0300000000000007,0.5800000000000003,0.25000000000000006,5,5,2,1,6,10,4,1,2,0,11,7,LH,0.44500000000000023,0.20300000000000007,0.14500000000000002,0.25000000000000006
6,17,33,1,5,0.6600000000000004,4,5,47,48,44,66,1.0600000000000005,2.4699999999999913,0.18000000000000002,0.4100000000000002,6,5,1,2,7,9,1,3,5,0.5,19,7,LH,0.15142857142857147,0.27444444444444455,0.18000000000000002,0.1366666666666667
6,17,34,1,2,0.9000000000000006,8,12,57,55,54,24,2.1300000000000017,1.500000000000001,0.21000000000000005,0.4400000000000002,11,4,2,1,15,6,2,1,4,0.5,18,7,LH,0.14200000000000004,0.2500000000000001,0.10499999999999998,0.4400000000000002
6,18,35,1,8,0.5500000000000003,2,4,118,22,112,109,1.8200000000000012,1.5300000000000011,0.17,0.9100000000000006,5,3,1,3,8,3,2,4,2,0.5,12,7,LH,0.2275000000000001,0.5100000000000002,0.08499999999999999,0.22750000000000006
6,18,36,1,6,1.0800000000000007,16,18,4,1,11,78,1.1600000000000008,7.659999999999881,0.01,1.350000000000001,17,15,1,4,19,19,1,6,6,0.5,21,7,LH,0.06105263157894738,0.4031578947368423,0.01,0.22500000000000006
6,19,37,1,8,0.5400000000000003,2,3,117,75,9,37,2.5900000000000007,0.9300000000000006,1.0900000000000007,0.8900000000000006,6,2,3,3,7,3,5,4,2,0,16,7,LH,0.37000000000000016,0.3100000000000001,0.2180000000000001,0.22250000000000006
6,19,38,1,4,0.5900000000000003,2,9,98,105,106,107,1.4000000000000008,0.3200000000000001,0.6700000000000004,1.5500000000000012,5,1,4,5,13,1,5,7,2,1,24,7,LH,0.10769230769230771,0.3200000000000001,0.134,0.2214285714285715
6,20,39,1,6,0.7500000000000004,2,4,77,1,4,98,1.620000000000001,1.6000000000000012,0.22000000000000006,2.709999999999986,3,6,2,8,5,8,3,15,6,0,17,7,LH,0.3240000000000001,0.20000000000000007,0.07333333333333333,0.1806666666666667
6,20,40,1,3,1.260000000000001,13,16,33,29,19,120,1.320000000000001,1.7600000000000013,2.010000000000001,1.7800000000000014,14,2,4,3,17,8,8,5,5,0,18,7,LH,0.07764705882352942,0.22000000000000008,0.2512500000000001,0.3560000000000002
6,21,41,1,2,0.7200000000000004,2,5,50,23,80,54,2.3900000000000015,1.0600000000000007,0.7100000000000004,0.9500000000000006,5,3,2,3,14,4,2,3,4,0,17,7,LH,0.17071428571428574,0.2650000000000001,0.35500000000000015,0.31666666666666676
6,21,42,1,5,0.6000000000000003,2,3,39,97,6,48,1.1100000000000005,1.5600000000000012,1.5400000000000011,0.15,4,4,3,1,5,4,6,1,5,0,18,7,LH,0.22200000000000006,0.3900000000000002,0.25666666666666677,0.15
7,1,1,0,5,10.659999999999817,7,41,39,47,60,51,10.919999999999817,3.3099999999999734,0.4200000000000002,1.350000000000001,9,4,2,3,43,8,2,4,5,0,18,7,LH,0.25395348837209314,0.41375000000000023,0.21000000000000002,0.33750000000000013
7,1,2,0,10,11.179999999999806,13,51,86,89,93,12,11.189999999999806,0.04,1.350000000000001,0.5900000000000003,14,1,4,2,52,1,7,2,3,0.5,24,7,LH,0.21519230769230777,0.04,0.19285714285714292,0.29500000000000015
7,2,3,0,10,9.729999999999837,11,40,66,21,120,117,9.839999999999836,1.360000000000001,0.08,0.49000000000000027,12,4,2,2,41,7,3,2,3,0,14,7,LH,0.2400000000000001,0.19428571428571437,0.02666666666666667,0.24500000000000005
7,2,4,0,2,10.319999999999824,8,38,103,4,8,105,14.659999999999776,6.709999999999901,0.01,0.09999999999999999,15,8,1,1,51,21,1,1,4,0,16,7,LH,0.287450980392157,0.3195238095238097,0.01,0.09999999999999999
7,3,5,0,4,11.169999999999806,13,45,108,52,55,24,11.229999999999807,0.23000000000000007,1.6700000000000013,0.6600000000000004,14,2,5,2,46,2,7,2,2,0,16,7,LH,0.24413043478260882,0.11499999999999999,0.23857142857142866,0.3300000000000002
7,3,6,0,1,11.96999999999979,8,46,81,69,78,83,11.979999999999789,0.3000000000000001,0.08,0.19000000000000003,9,2,1,2,47,2,1,3,3,0.5,22,7,LH,0.2548936170212767,0.15000000000000002,0.08,0.06333333333333332
7,4,7,0,6,11.819999999999792,10,44,2,4,10,111,11.829999999999792,0.07,0.08,0.17,11,2,1,2,45,2,2,2,6,0.5,38,7,LH,0.262888888888889,0.035,0.04,0.08499999999999999
7,4,8,0,9,10.439999999999822,11,42,16,68,70,14,10.619999999999822,0.08,0.060000000000000005,1.1200000000000008,12,2,1,2,43,2,1,2,4,0,20,7,LH,0.24697674418604662,0.04,0.060000000000000005,0.5600000000000003
7,5,9,0,10,13.449999999999758,15,54,86,106,54,20,13.499999999999758,0.5800000000000003,1.490000000000001,0.01,16,2,3,1,55,2,4,1,3,0,15,7,LH,0.24545454545454556,0.29000000000000015,0.37250000000000016,0.01
7,5,10,0,1,10.739999999999815,8,41,79,82,9,76,10.749999999999815,0.04,0.09999999999999999,0.08,9,1,1,1,42,1,1,1,3,0.5,24,7,LH,0.25595238095238104,0.04,0.09999999999999999,0.08
7,6,11,0,5,11.589999999999797,7,33,37,47,102,91,11.659999999999798,0.07,0.03,0.20000000000000004,8,1,1,3,34,1,1,3,5,0,15,7,LH,0.3429411764705879,0.07,0.03,0.06666666666666667
7,6,12,0,7,4.87999999999994,20,46,109,15,19,67,9.549999999999885,6.529999999999905,0.01,0.7800000000000005,20,12,1,2,55,18,1,2,6,0,18,7,LH,0.1736363636363637,0.362777777777778,0.01,0.39000000000000024
7,7,13,1,3,10.869999999999813,8,35,30,1,32,9,11.029999999999813,0.03,0.22000000000000006,0.4000000000000002,10,1,2,2,37,1,4,4,5,0,22,7,LH,0.2981081081081082,0.03,0.05500000000000001,0.1
7,7,14,1,10,10.03999999999983,11,42,85,50,48,45,10.11999999999983,1.5700000000000012,1.380000000000001,0.6600000000000004,12,4,4,2,43,8,6,3,3,0,17,7,LH,0.23534883720930244,0.19625000000000006,0.23000000000000007,0.22000000000000008
7,8,15,1,2,9.839999999999835,6,52,54,98,86,90,10.049999999999836,0.16,0.5600000000000003,0.24000000000000007,8,2,1,1,54,2,1,1,4,0,12,7,LH,0.18611111111111117,0.07999999999999999,0.5600000000000003,0.24000000000000007
7,8,16,1,5,11.589999999999797,12,61,13,20,17,112,17.939999999999706,4.189999999999955,17.58999999999995,0.01,20,8,17,1,81,13,65,1,5,0.5,20,7,LH,0.22148148148148156,0.32230769230769246,0.2706153846153847,0.01
7,9,17,1,3,9.56999999999984,7,33,30,14,69,24,9.57999999999984,5.879999999999919,0.02,0.19000000000000003,8,7,1,2,34,18,1,2,5,0,21,7,LH,0.2817647058823531,0.3266666666666668,0.02,0.095
7,9,18,1,4,20.000000000000327,17,77,89,3,103,97,22.490000000000318,4.8299999999999415,1.2400000000000009,0.03,20,9,3,1,84,19,3,1,2,0,13,7,LH,0.2677380952380954,0.2542105263157896,0.41333333333333355,0.03
7,10,19,1,5,11.049999999999809,10,39,106,43,42,20,11.11999999999981,0.07,2.5899999999999888,0.23000000000000007,11,1,4,2,40,1,10,2,5,0,18,7,LH,0.27800000000000014,0.07,0.2590000000000001,0.11500000000000002
7,10,20,1,10,8.17999999999987,20,50,89,86,7,6,8.18999999999987,0.02,1.9200000000000015,2.6399999999999877,20,2,4,6,51,2,7,6,3,0,18,7,LH,0.1605882352941177,0.01,0.2742857142857144,0.4400000000000002
7,11,21,1,8,19.1900000000002,14,58,114,68,78,43,19.200000000000202,1.5300000000000011,0.02,0.8500000000000005,15,3,1,3,59,3,1,4,2,0,14,7,LH,0.32542372881355935,0.5100000000000003,0.02,0.21250000000000005
7,11,22,1,10,15.69999999999971,18,59,55,89,96,59,16.02999999999971,0.01,0.38000000000000017,2.5199999999999902,20,1,2,4,61,1,2,5,3,0,14,7,LH,0.2627868852459016,0.01,0.19000000000000006,0.5039999999999996
7,12,23,1,3,12.459999999999779,12,50,25,26,17,14,12.74999999999978,0.5200000000000002,0.4000000000000002,0.5400000000000003,14,2,3,2,52,2,4,2,5,0,22,7,LH,0.2451923076923078,0.2600000000000001,0.1,0.2700000000000001
7,12,24,1,6,10.779999999999815,9,39,5,2,39,9,10.829999999999815,0.060000000000000005,0.05,1.390000000000001,11,1,1,4,41,1,1,4,6,0.5,23,7,LH,0.26414634146341476,0.060000000000000005,0.05,0.3475000000000002
7,13,25,1,6,12.659999999999775,10,37,7,86,51,2,12.759999999999774,0.09,1.5400000000000011,0.6700000000000004,12,1,3,2,39,1,6,2,6,0,19,7,LH,0.32717948717948736,0.09,0.25666666666666677,0.3350000000000002
7,13,26,1,9,11.93999999999979,8,40,18,108,43,65,12.31999999999979,0.3900000000000002,0.3000000000000001,0.2800000000000001,9,2,1,2,41,3,1,2,4,0,17,7,LH,0.30048780487804894,0.13000000000000003,0.3000000000000001,0.14
7,14,27,1,6,11.859999999999792,11,46,3,9,11,8,11.869999999999791,0.04,0.02,11.00999999999981,12,1,1,15,47,1,1,38,6,1,72,7,LH,0.25255319148936184,0.04,0.02,0.2897368421052633
7,14,28,1,4,10.889999999999812,9,38,94,98,24,60,11.029999999999813,0.8500000000000005,1.9100000000000015,0.02,10,3,3,1,39,6,3,1,2,0,15,7,LH,0.28282051282051296,0.1416666666666667,0.636666666666667,0.02
7,15,29,1,2,9.919999999999833,10,45,27,57,53,51,10.839999999999833,0.07,1.1600000000000008,0.8700000000000006,13,1,4,2,49,1,5,2,4,0.5,17,7,LH,0.22122448979591847,0.07,0.2320000000000001,0.4350000000000002
7,15,30,1,5,12.179999999999785,13,47,64,46,21,16,12.399999999999785,0.08,1.2400000000000009,4.999999999999938,14,1,4,11,48,1,4,23,5,0,21,7,LH,0.25833333333333347,0.08,0.31000000000000016,0.21739130434782616
7,16,31,1,4,16.75999999999982,11,46,99,79,33,26,17.15999999999982,0.47000000000000025,0.18000000000000002,0.37000000000000016,13,2,1,2,50,3,1,3,2,0,15,7,LH,0.34320000000000017,0.15666666666666668,0.18000000000000002,0.12333333333333335
7,16,32,1,10,10.389999999999823,12,38,85,8,46,118,11.039999999999823,1.5700000000000012,4.6399999999999455,1.320000000000001,14,3,10,2,40,3,17,2,3,0,16,7,LH,0.27600000000000013,0.5233333333333337,0.27294117647058835,0.6600000000000005
7,17,33,1,9,9.769999999999836,19,55,18,110,66,93,20.569999999999652,2.819999999999984,0.01,1.480000000000001,20,8,1,2,79,8,1,2,4,0,15,7,LH,0.2603797468354431,0.35250000000000015,0.01,0.7400000000000005
7,17,34,1,6,7.869999999999877,9,31,2,4,76,103,7.879999999999876,0.05,0.05,0.4100000000000002,10,1,1,2,32,1,1,3,6,0,17,7,LH,0.2462500000000001,0.05,0.05,0.1366666666666667
7,18,35,1,4,12.489999999999778,7,56,98,64,61,3,13.229999999999778,0.9200000000000006,3.429999999999971,1.1200000000000008,10,4,7,3,60,5,11,3,2,0,16,7,LH,0.22050000000000008,0.18400000000000005,0.311818181818182,0.3733333333333336
7,18,36,1,8,8.289999999999868,10,43,120,110,19,23,8.319999999999867,0.02,2.3199999999999945,2.809999999999984,11,1,4,4,44,1,5,7,2,0,16,7,LH,0.18909090909090914,0.02,0.46400000000000025,0.40142857142857163
7,19,37,1,8,12.149999999999785,9,49,14,15,52,118,12.279999999999786,0.18000000000000002,0.6600000000000004,0.5400000000000003,10,2,2,2,50,2,2,3,2,0,18,7,LH,0.2456000000000001,0.09,0.3300000000000002,0.18000000000000005
7,19,38,1,1,11.819999999999792,9,37,77,76,107,12,11.899999999999793,0.02,0.5400000000000003,0.2900000000000001,11,1,2,2,39,1,2,2,3,0,14,7,LH,0.30512820512820527,0.02,0.2700000000000001,0.14500000000000005
8,1,1,0,3,1.1500000000000008,2,10,28,110,30,60,1.600000000000001,1.7500000000000013,0.16,1.430000000000001,4,3,1,3,12,6,1,7,5,0,16,7,LH,0.13333333333333336,0.2916666666666668,0.16,0.20428571428571435
8,1,2,0,6,3.989999999999959,5,24,6,71,37,3,5.969999999999961,1.1700000000000008,2.109999999999999,1.2300000000000009,9,4,6,4,31,7,8,7,6,0,21,7,LH,0.1925806451612904,0.16714285714285718,0.2637500000000001,0.1757142857142858
8,2,3,0,1,0.8700000000000006,5,8,56,17,16,79,1.8900000000000012,0.7100000000000004,5.319999999999931,0.25000000000000006,6,3,7,2,9,4,15,4,3,0,19,7,LH,0.21000000000000008,0.17750000000000002,0.35466666666666685,0.06249999999999999
8,2,4,0,10,0.7600000000000005,9,9,90,5,89,66,7.179999999999908,0.9700000000000006,0.02,0.05,17,2,1,1,26,2,1,1,3,0,16,7,LH,0.27615384615384625,0.4850000000000003,0.02,0.05
8,3,5,0,9,1.7300000000000013,2,11,61,67,84,43,1.9800000000000013,1.5100000000000011,1.2300000000000009,0.34000000000000014,3,2,2,1,12,4,3,1,4,0,16,7,LH,0.16500000000000004,0.37750000000000017,0.4100000000000002,0.34000000000000014
8,3,6,0,7,2.4199999999999924,4,10,19,14,93,96,2.7699999999999925,1.400000000000001,0.9600000000000006,0.9600000000000006,6,3,2,4,12,4,2,5,6,0,18,7,LH,0.23083333333333342,0.35000000000000014,0.4800000000000002,0.19200000000000003
8,4,7,0,4,1.470000000000001,3,8,108,38,106,43,1.8600000000000012,1.290000000000001,0.21000000000000005,1.0300000000000007,5,2,1,5,10,8,1,5,2,0,14,7,LH,0.18600000000000005,0.16125000000000003,0.21000000000000005,0.20600000000000007
8,4,8,0,3,5.339999999999931,10,33,27,36,85,33,5.47999999999993,0.49000000000000027,0.37000000000000016,1.2100000000000009,12,2,2,2,35,3,2,3,5,0.5,33,7,LH,0.15657142857142864,0.16333333333333336,0.18500000000000005,0.40333333333333354
8,5,9,0,1,1.5300000000000011,3,10,80,74,82,75,1.8900000000000012,0.25000000000000006,0.7300000000000004,0.8600000000000005,5,1,2,2,12,1,4,8,3,1,36,7,LH,0.15750000000000003,0.25000000000000006,0.18250000000000005,0.10750000000000001
8,5,10,0,3,1.2400000000000009,2,6,69,87,61,98,3.3599999999999994,0.6900000000000004,0.4400000000000002,0.5600000000000003,5,2,3,3,12,2,4,5,5,0,13,7,LH,0.2800000000000001,0.34500000000000014,0.11000000000000001,0.112
8,6,11,0,1,1.1200000000000008,3,8,75,64,76,72,1.8100000000000012,2.289999999999995,0.3100000000000001,0.09,7,4,2,1,12,10,2,1,3,0,14,7,LH,0.15083333333333337,0.22900000000000006,0.15500000000000003,0.09
8,6,12,0,6,2.759999999999985,3,13,8,102,27,101,3.2899999999999854,0.7100000000000004,3.659999999999966,0.09999999999999999,5,2,6,1,15,2,15,1,6,0,15,7,LH,0.2193333333333334,0.35500000000000015,0.2440000000000001,0.09999999999999999
8,7,13,1,9,4.059999999999958,6,22,101,28,70,100,4.569999999999958,0.9500000000000006,0.2700000000000001,1.0200000000000007,7,2,1,3,23,3,1,5,4,0,13,7,LH,0.19869565217391313,0.3166666666666668,0.2700000000000001,0.20400000000000004
8,7,14,1,2,3.1599999999999766,3,16,78,37,6,47,4.519999999999977,0.9000000000000006,0.7800000000000005,0.2700000000000001,6,3,2,1,20,4,4,1,4,0,19,7,LH,0.22600000000000006,0.22500000000000006,0.19500000000000006,0.2700000000000001
8,8,15,1,7,1.280000000000001,3,8,38,116,20,61,1.9000000000000012,1.1600000000000008,0.35000000000000014,0.34000000000000014,4,2,2,2,9,7,2,2,6,0,17,7,LH,0.2111111111111112,0.16571428571428576,0.17500000000000002,0.17
8,8,16,1,3,3.619999999999967,4,13,10,31,3,108,3.7499999999999667,2.669999999999987,2.3099999999999947,0.08,5,7,5,1,14,12,6,1,5,0,19,7,LH,0.267857142857143,0.22250000000000006,0.3850000000000002,0.08
8,9,17,1,1,0.5200000000000002,2,4,78,33,29,18,0.9100000000000004,1.8300000000000014,1.1800000000000008,0.2800000000000001,4,4,3,1,6,8,5,1,3,0,19,7,LH,0.1516666666666667,0.2287500000000001,0.23600000000000007,0.2800000000000001
8,9,18,1,4,1.350000000000001,5,9,1,62,70,48,2.1900000000000013,0.7200000000000004,1.1900000000000008,1.1600000000000008,7,2,4,2,11,2,5,3,2,0,19,7,LH,0.19909090909090915,0.36000000000000015,0.2380000000000001,0.3866666666666668
8,10,19,1,8,3.46999999999997,6,18,111,66,5,119,3.51999999999997,0.7500000000000004,1.0100000000000007,0.05,7,2,3,1,19,2,5,1,2,0,14,7,LH,0.1852631578947369,0.3750000000000002,0.20200000000000007,0.05
8,10,20,1,3,3.7199999999999647,4,12,28,25,98,30,3.7999999999999647,0.37000000000000016,0.4300000000000002,0.6500000000000004,5,1,1,3,13,1,1,4,5,0.5,17,7,LH,0.29230769230769243,0.37000000000000016,0.4300000000000002,0.16250000000000003
8,11,21,1,5,2.959999999999981,3,11,39,38,90,100,3.589999999999981,1.0000000000000007,1.370000000000001,0.3900000000000002,5,3,4,3,13,5,5,4,5,0,15,7,LH,0.27615384615384625,0.20000000000000007,0.27400000000000013,0.0975
8,11,22,1,6,1.7900000000000014,3,5,10,70,65,7,2.0100000000000016,0.5000000000000002,1.270000000000001,1.1600000000000008,5,2,2,3,7,2,7,3,6,0,20,7,LH,0.28714285714285726,0.2500000000000001,0.18142857142857147,0.3866666666666668
8,12,23,1,10,2.6499999999999875,3,8,95,9,6,30,3.6299999999999883,0.22000000000000006,2.06,0.46000000000000024,5,1,7,3,14,1,11,4,3,0,20,7,LH,0.2592857142857144,0.22000000000000006,0.1872727272727273,0.11500000000000002
8,12,24,1,7,5.84999999999992,10,27,20,14,78,17,6.25999999999992,0.09999999999999999,2.0000000000000013,6.169999999999913,12,2,6,10,29,2,8,16,6,0.5,21,7,LH,0.21586206896551735,0.05,0.2500000000000001,0.3856250000000002
8,13,25,1,2,2.2199999999999966,3,12,25,27,24,31,3.599999999999998,1.280000000000001,0.3900000000000002,0.22000000000000006,6,3,1,1,22,5,1,1,4,0.5,21,7,LH,0.16363636363636366,0.25600000000000006,0.3900000000000002,0.22000000000000006
8,13,26,1,5,2.7499999999999853,3,17,65,9,43,6,3.7699999999999863,0.35000000000000014,0.25000000000000006,0.4100000000000002,6,2,1,3,22,3,1,3,5,0,21,7,LH,0.17136363636363644,0.1166666666666667,0.25000000000000006,0.1366666666666667
8,14,27,1,5,1.5300000000000011,11,15,61,41,23,64,2.0100000000000016,0.3000000000000001,2.7999999999999843,0.25000000000000006,14,2,5,2,18,3,9,2,5,0,19,7,LH,0.11166666666666669,0.10000000000000002,0.3111111111111112,0.12500000000000003
8,14,28,1,4,1.7200000000000013,8,14,106,100,36,89,2.0200000000000014,0.16,2.399999999999993,0.7000000000000004,9,1,4,2,15,1,12,2,2,0,12,7,LH,0.1346666666666667,0.16,0.20000000000000007,0.35000000000000014
8,15,29,1,8,0.5900000000000003,3,7,112,18,73,69,1.0300000000000005,1.430000000000001,0.4400000000000002,0.9800000000000006,5,4,2,3,9,7,2,5,2,0,15,7,LH,0.11444444444444446,0.20428571428571435,0.22000000000000006,0.19600000000000004
8,15,30,1,2,3.379999999999972,4,12,56,43,5,12,3.749999999999972,1.1500000000000008,0.34000000000000014,1.350000000000001,6,2,1,3,14,2,1,5,4,0,21,7,LH,0.26785714285714296,0.5750000000000003,0.34000000000000014,0.2700000000000001
8,16,31,1,3,0.6500000000000004,2,4,35,56,27,15,1.1000000000000005,0.7000000000000004,0.9800000000000006,1.1100000000000008,4,1,4,4,8,2,6,7,5,0,20,7,LH,0.1375,0.3500000000000002,0.16333333333333336,0.1585714285714286
8,16,32,1,4,0.9500000000000006,2,5,105,2,75,72,1.1600000000000006,17.609999999999953,0.01,0.02,4,17,1,1,7,42,1,1,2,0,15,7,LH,0.16571428571428573,0.41928571428571454,0.01,0.02
8,17,33,1,8,1.7600000000000013,3,10,118,114,25,53,1.7900000000000014,0.4200000000000002,1.9400000000000015,0.8000000000000005,5,2,3,1,12,2,4,1,2,0,13,7,LH,0.1491666666666667,0.21000000000000008,0.4850000000000002,0.8000000000000005
8,17,34,1,4,1.7200000000000013,8,11,101,66,98,71,1.8100000000000014,0.8100000000000005,0.16,1.7500000000000013,10,2,1,4,13,3,1,9,2,0,12,7,LH,0.13923076923076924,0.2700000000000001,0.16,0.19444444444444453
8,18,35,1,9,1.9700000000000015,3,11,61,89,48,85,2.4200000000000017,1.290000000000001,0.20000000000000004,1.0700000000000007,5,2,2,2,13,2,2,8,4,0,15,7,LH,0.1861538461538462,0.6450000000000004,0.09999999999999999,0.13375000000000004
8,18,36,1,1,0.7000000000000004,2,3,76,53,7,80,1.2500000000000007,2.859999999999983,0.22000000000000006,0.9500000000000006,4,5,1,3,9,11,1,4,3,0,16,7,LH,0.13888888888888892,0.2600000000000001,0.22000000000000006,0.23750000000000007
8,19,37,1,7,0.2700000000000001,2,2,13,44,74,48,8.91999999999986,0.01,0.02,0.01,15,1,1,1,38,1,1,1,6,0,19,7,LH,0.23473684210526324,0.01,0.02,0.01
8,19,38,1,8,2.399999999999993,3,14,117,36,8,7,3.079999999999993,0.6800000000000004,1.1400000000000008,2.8799999999999826,5,1,2,6,16,1,6,14,2,0,19,7,LH,0.19250000000000006,0.6800000000000004,0.19000000000000006,0.2057142857142858
8,20,39,1,4,2.6099999999999883,4,14,76,26,80,69,4.26999999999999,0.5300000000000002,1.5200000000000011,0.47000000000000025,7,2,3,2,21,2,4,2,2,0,15,7,LH,0.2033333333333334,0.2650000000000001,0.38000000000000017,0.2350000000000001
8,20,40,1,6,0.8900000000000006,2,3,5,120,115,96,1.7900000000000011,1.0000000000000007,0.21000000000000005,0.5200000000000002,4,4,1,2,7,6,1,2,6,0,13,7,LH,0.25571428571428584,0.1666666666666667,0.21000000000000005,0.26000000000000006
8,21,41,1,2,0.7700000000000005,5,5,2,12,50,3,4.179999999999971,8.739999999999858,0.01,1.270000000000001,8,12,1,4,16,24,1,4,4,0.5,22,7,LH,0.2612500000000001,0.36416666666666686,0.01,0.31750000000000017
8,21,42,1,4,2.0300000000000007,4,12,105,107,32,96,2.1800000000000006,0.7900000000000005,0.8400000000000005,0.35000000000000014,6,3,2,2,14,3,5,2,2,0,12,7,LH,0.15571428571428575,0.2633333333333334,0.16800000000000004,0.17500000000000004
9,1,1,0,8,0.23000000000000007,2,3,15,111,18,51,2.0100000000000016,0.5200000000000002,0.6800000000000004,0.8100000000000005,4,2,2,2,8,2,3,2,2,0,18,7,LH,0.2512500000000001,0.26000000000000006,0.22666666666666674,0.4050000000000002
9,1,2,0,4,0.19000000000000003,2,4,4,100,39,41,3.5299999999999727,0.23000000000000007,0.4100000000000002,0.45000000000000023,7,2,2,2,13,2,3,3,2,0,18,7,LH,0.2715384615384617,0.115,0.1366666666666667,0.15
9,2,3,0,1,0.11999999999999998,1,2,38,64,80,48,2.64999999999999,0.6800000000000004,0.24000000000000007,0.09,3,1,2,1,8,1,2,1,3,0,17,7,LH,0.33125000000000016,0.6800000000000004,0.12,0.09
9,2,4,0,10,0.20000000000000004,2,3,108,105,87,99,1.9300000000000013,0.6200000000000003,0.5400000000000003,0.36000000000000015,4,2,2,2,6,5,4,2,3,0.5,15,7,LH,0.3216666666666668,0.12400000000000005,0.13500000000000004,0.18000000000000002
9,3,5,0,10,0.23000000000000007,2,3,9,12,86,10,2.469999999999996,0.6900000000000004,0.12999999999999998,0.38000000000000017,5,2,1,2,8,4,1,2,3,0.5,39,7,LH,0.30875000000000014,0.17250000000000004,0.12999999999999998,0.19000000000000006
9,3,6,0,1,0.24000000000000007,2,3,77,72,61,107,3.1399999999999824,0.8000000000000005,0.20000000000000004,0.7200000000000004,5,2,1,3,11,3,1,4,3,0,13,7,LH,0.28545454545454557,0.2666666666666668,0.20000000000000004,0.18000000000000005
9,4,7,0,3,0.23000000000000007,2,5,20,65,77,84,3.279999999999979,0.4100000000000002,0.3000000000000001,0.3100000000000001,4,1,2,2,12,1,3,3,5,0,16,7,LH,0.27333333333333343,0.4100000000000002,0.10000000000000002,0.10333333333333333
9,4,8,0,10,0.8900000000000006,3,3,87,88,42,55,2.110000000000001,1.7400000000000013,0.08,0.3300000000000001,4,3,1,1,4,3,1,1,3,0,15,7,LH,0.5275000000000003,0.5800000000000004,0.08,0.3300000000000001
9,5,9,0,6,0.13999999999999999,2,3,11,37,85,45,2.3699999999999966,0.4400000000000002,0.4200000000000002,0.8300000000000005,4,2,2,2,9,2,2,2,6,0,19,7,LH,0.2633333333333335,0.22000000000000006,0.21000000000000005,0.41500000000000026
9,5,10,0,3,0.6500000000000004,9,9,14,77,84,108,3.1699999999999906,2.099999999999999,3.2199999999999753,0.02,12,3,4,1,12,7,5,1,5,0,14,7,LH,0.2641666666666668,0.3000000000000001,0.6440000000000002,0.02
9,6,11,0,2,0.36000000000000015,2,3,53,17,78,40,2.7399999999999936,1.500000000000001,0.3100000000000001,0.19000000000000003,4,3,1,2,9,6,1,2,4,0,18,7,LH,0.3044444444444446,0.25000000000000006,0.3100000000000001,0.095
9,6,12,0,9,1.9500000000000015,3,4,4,100,5,101,4.040000000000001,0.2700000000000001,0.7300000000000004,2.2699999999999956,6,1,2,4,11,1,2,4,4,0,16,7,LH,0.3672727272727275,0.2700000000000001,0.36500000000000016,0.5675000000000004
9,7,13,1,9,0.6900000000000004,8,11,70,65,103,97,2.2800000000000016,0.35000000000000014,0.37000000000000016,0.16,10,1,2,1,16,1,2,1,4,0,12,7,LH,0.14250000000000004,0.35000000000000014,0.18500000000000003,0.16
9,7,14,1,2,0.6700000000000004,3,4,11,56,53,87,1.7900000000000011,2.709999999999986,0.20000000000000004,0.10999999999999999,5,5,2,2,7,6,2,2,4,0,17,7,LH,0.25571428571428584,0.4516666666666669,0.09999999999999999,0.05500000000000001
9,8,15,1,7,0.3000000000000001,5,6,17,47,73,62,1.1600000000000006,3.9699999999999593,0.9900000000000007,0.19000000000000003,6,7,5,2,7,9,7,2,6,0,18,7,LH,0.16571428571428579,0.44111111111111134,0.14142857142857146,0.095
9,8,16,1,2,0.16,2,3,54,55,8,53,1.590000000000001,0.5100000000000002,1.6200000000000012,0.04,4,1,3,1,7,1,4,1,4,0.5,18,7,LH,0.22714285714285723,0.5100000000000002,0.4050000000000002,0.04
9,9,17,1,5,0.3000000000000001,4,6,81,47,40,18,2.2500000000000018,0.34000000000000014,1.1600000000000008,2.239999999999996,7,1,5,4,12,1,5,8,5,0,19,7,LH,0.18750000000000008,0.34000000000000014,0.2320000000000001,0.28000000000000014
9,9,18,1,10,0.23000000000000007,2,3,85,92,2,65,2.3199999999999994,1.400000000000001,2.06,0.01,6,4,6,1,9,5,7,1,3,0,16,7,LH,0.2577777777777779,0.2800000000000001,0.29428571428571443,0.01
9,10,19,1,6,0.21000000000000005,2,3,8,5,10,11,2.4899999999999953,0.6100000000000003,0.12999999999999998,4.859999999999941,8,4,1,9,11,4,1,11,6,1,72,7,LH,0.22636363636363646,0.15250000000000002,0.12999999999999998,0.44181818181818205
9,10,20,1,9,0.7100000000000004,3,7,69,62,18,41,2.0800000000000014,1.5200000000000011,0.2800000000000001,4.049999999999958,6,3,1,5,11,4,1,14,4,0,19,7,LH,0.18909090909090917,0.38000000000000017,0.2800000000000001,0.2892857142857144
9,11,21,1,1,0.19000000000000003,2,3,74,78,38,76,1.730000000000001,0.7300000000000004,0.5300000000000002,0.15,4,2,2,1,8,3,2,2,3,0.5,14,7,LH,0.21625000000000008,0.2433333333333334,0.26500000000000007,0.075
9,11,22,1,8,0.13999999999999999,2,3,109,110,118,19,1.650000000000001,0.4000000000000002,0.5700000000000003,0.13999999999999999,4,1,2,1,10,1,2,2,2,0.5,12,7,LH,0.16500000000000006,0.4000000000000002,0.2850000000000001,0.06999999999999999
9,12,23,1,3,0.15,2,3,26,84,113,36,1.3700000000000008,0.6200000000000003,1.1100000000000008,0.16,4,1,3,2,5,1,4,2,5,0,15,7,LH,0.27400000000000013,0.6200000000000003,0.2775000000000001,0.07999999999999999
9,12,24,1,2,0.25000000000000006,4,6,55,57,42,43,2.0100000000000016,1.0100000000000007,1.7600000000000013,0.6300000000000003,6,2,3,4,10,3,3,6,4,0,18,7,LH,0.20100000000000007,0.3366666666666668,0.586666666666667,0.105
9,13,25,1,9,0.07,1,2,99,108,68,62,1.5600000000000012,0.47000000000000025,0.17,0.18000000000000002,3,2,1,2,4,3,1,3,4,0,12,7,LH,0.39000000000000024,0.1566666666666667,0.17,0.06
9,13,26,1,10,0.16,2,4,29,88,53,33,2.0700000000000016,0.25000000000000006,0.7900000000000005,0.19000000000000003,5,1,3,1,9,1,3,1,3,0,17,7,LH,0.2300000000000001,0.25000000000000006,0.2633333333333334,0.19000000000000003
9,14,27,1,4,0.5600000000000003,2,3,80,100,83,102,3.3099999999999854,1.1900000000000008,0.45000000000000023,0.47000000000000025,8,2,2,2,16,3,2,2,2,0,10,7,LH,0.20687500000000006,0.39666666666666683,0.2250000000000001,0.2350000000000001
9,14,28,1,5,0.23000000000000007,2,3,41,43,45,63,1.9100000000000013,0.47000000000000025,0.24000000000000007,3.2699999999999743,4,1,1,7,8,1,1,10,5,0.5,19,7,LH,0.2387500000000001,0.47000000000000025,0.24000000000000007,0.3270000000000002
9,15,29,1,2,0.13999999999999999,2,3,55,31,50,14,1.1400000000000006,2.479999999999991,0.22000000000000006,1.280000000000001,5,4,2,4,7,6,2,4,4,0,19,7,LH,0.1628571428571429,0.41333333333333355,0.11000000000000001,0.3200000000000002
9,15,30,1,1,0.4300000000000002,2,3,63,78,62,97,2.1200000000000014,0.36000000000000015,1.0300000000000007,0.060000000000000005,5,1,4,1,7,1,4,1,3,0,13,7,LH,0.302857142857143,0.36000000000000015,0.2575000000000001,0.060000000000000005
9,16,31,1,3,0.23000000000000007,2,5,5,28,25,67,3.849999999999967,0.47000000000000025,0.6800000000000004,0.09999999999999999,6,2,3,2,17,2,3,2,5,0,20,7,LH,0.22647058823529423,0.2350000000000001,0.22666666666666677,0.049999999999999996
9,16,32,1,2,0.13999999999999999,2,2,53,57,21,41,2.0300000000000016,0.4200000000000002,1.8000000000000014,0.20000000000000004,6,2,4,2,11,3,5,2,4,0,19,7,LH,0.1845454545454546,0.14,0.36000000000000015,0.09999999999999999
9,17,33,1,2,0.26000000000000006,2,4,31,3,51,56,2.4599999999999973,1.0000000000000007,0.22000000000000006,1.7800000000000014,5,2,2,5,9,2,2,5,4,0,19,7,LH,0.2733333333333335,0.5000000000000002,0.11000000000000001,0.3560000000000002
9,17,34,1,1,0.3000000000000001,2,3,48,72,76,24,1.8100000000000012,0.46000000000000024,0.25000000000000006,0.34000000000000014,4,2,1,1,8,4,1,1,3,0,18,7,LH,0.22625000000000006,0.11499999999999999,0.25000000000000006,0.34000000000000014
9,18,35,1,9,0.10999999999999999,2,4,61,117,77,114,1.5700000000000012,1.5600000000000012,2.9799999999999804,0.07,5,3,2,1,8,5,3,1,4,0,11,7,LH,0.1962500000000001,0.3120000000000001,0.9933333333333314,0.07
9,18,36,1,10,0.13999999999999999,2,3,92,26,25,2,0.8300000000000004,0.8600000000000005,0.6100000000000003,0.9600000000000006,4,2,2,2,5,3,4,4,3,0,19,7,LH,0.16600000000000006,0.2866666666666668,0.15250000000000002,0.2400000000000001
9,19,37,1,3,0.16,2,3,26,10,2,113,2.409999999999996,0.8200000000000005,0.8500000000000005,0.16,4,2,3,1,13,3,5,1,5,0,19,7,LH,0.18538461538461543,0.27333333333333343,0.17000000000000004,0.16
9,19,38,1,5,0.3300000000000001,4,5,47,21,18,98,1.700000000000001,0.5700000000000003,1.2500000000000009,0.10999999999999999,6,1,2,1,12,1,4,1,5,0,19,7,LH,0.1416666666666667,0.5700000000000003,0.3125000000000001,0.10999999999999999
9,20,39,1,8,4.2199999999999545,4,10,71,110,86,116,25.550000000000487,0.01,0.01,0.36000000000000015,20,1,1,3,75,1,1,3,2,0,11,7,LH,0.34066666666666684,0.01,0.01,0.12000000000000001
9,20,40,1,2,0.3900000000000002,2,3,52,56,101,105,2.91999999999999,0.2900000000000001,0.45000000000000023,0.3000000000000001,5,1,2,2,10,1,3,2,4,0,12,7,LH,0.29200000000000015,0.2900000000000001,0.15000000000000002,0.15
9,21,41,1,10,0.19000000000000003,3,3,93,68,89,103,1.650000000000001,0.5500000000000003,0.18000000000000002,0.26000000000000006,5,2,1,2,9,2,1,2,3,0,12,7,LH,0.18333333333333338,0.2750000000000001,0.18000000000000002,0.13000000000000003
9,21,42,1,2,67.92999999999785,9,165,116,120,49,83,68.01999999999785,0.01,0.02,0.01,11,1,1,1,167,1,1,1,4,0,11,7,LH,0.4073053892215571,0.01,0.02,0.01
10,1,1,0,2,0.26000000000000006,2,3,58,109,113,114,1.8100000000000012,1.1200000000000008,0.6100000000000003,0.9800000000000006,5,1,1,2,12,1,1,3,4,0.5,16,7,LH,0.15083333333333337,1.1200000000000008,0.6100000000000003,0.32666666666666677
10,1,2,0,4,0.25000000000000006,2,3,99,107,11,70,1.7700000000000011,0.49000000000000027,1.1400000000000008,0.5300000000000002,4,1,2,1,7,2,4,1,2,0,14,7,LH,0.25285714285714295,0.2450000000000001,0.2850000000000001,0.5300000000000002
10,2,3,0,6,0.46000000000000024,2,3,12,72,100,84,2.0500000000000016,1.310000000000001,0.22000000000000006,0.9900000000000007,4,3,1,1,7,4,1,1,6,0,15,7,LH,0.292857142857143,0.3275000000000001,0.22000000000000006,0.9900000000000007
10,2,4,0,10,0.20000000000000004,2,3,95,96,88,113,1.7800000000000011,0.8100000000000005,0.12999999999999998,1.2000000000000008,6,3,1,3,11,4,1,3,3,0.5,20,7,LH,0.16181818181818186,0.20250000000000004,0.12999999999999998,0.4000000000000002
10,3,5,0,6,0.3100000000000001,2,4,2,1,100,59,1.8900000000000012,1.450000000000001,0.2800000000000001,0.9200000000000006,4,2,1,2,10,5,1,2,6,0,18,7,LH,0.18900000000000008,0.2900000000000001,0.2800000000000001,0.4600000000000003
10,3,6,0,5,0.22000000000000006,2,3,43,63,67,46,1.2200000000000006,2.4999999999999907,1.1500000000000008,0.03,4,5,3,1,5,5,3,1,5,0,18,7,LH,0.24400000000000013,0.5000000000000002,0.3833333333333336,0.03
10,4,7,0,1,0.19000000000000003,2,2,2,73,62,109,20.420000000000364,0.01,0.01,0.01,18,1,1,1,42,1,1,1,3,0,15,7,LH,0.48619047619047645,0.01,0.01,0.01
10,4,8,0,10,0.25000000000000006,2,5,86,91,88,58,1.590000000000001,0.9800000000000006,0.11999999999999998,1.2400000000000009,5,3,1,4,10,4,1,6,3,0.5,22,7,LH,0.15900000000000006,0.2450000000000001,0.11999999999999998,0.20666666666666672
10,5,9,0,10,0.24000000000000007,2,3,93,66,98,105,2.1800000000000015,1.490000000000001,0.05,0.7100000000000004,4,2,1,2,7,8,1,2,3,0,11,7,LH,0.3114285714285716,0.18625000000000003,0.05,0.35500000000000015
10,5,10,0,8,0.25000000000000006,1,2,73,113,74,55,2.509999999999996,0.20000000000000004,0.24000000000000007,0.5700000000000003,4,1,2,1,9,1,3,1,2,0,12,7,LH,0.278888888888889,0.20000000000000004,0.07999999999999999,0.5700000000000003
10,6,11,0,9,1.350000000000001,2,7,72,111,81,16,3.7699999999999934,0.35000000000000014,0.5400000000000003,0.11999999999999998,4,1,2,1,11,1,2,1,4,0,15,7,LH,0.3427272727272729,0.35000000000000014,0.2700000000000001,0.11999999999999998
10,6,12,0,10,0.4000000000000002,5,6,53,97,92,98,3.039999999999988,0.5500000000000003,1.370000000000001,0.060000000000000005,7,2,4,1,13,3,4,1,3,0,11,7,LH,0.23384615384615395,0.18333333333333338,0.34250000000000014,0.060000000000000005
10,7,13,1,10,0.48000000000000026,2,3,88,89,90,13,2.5400000000000005,1.380000000000001,2.8899999999999824,0.5700000000000003,5,3,6,3,11,5,7,3,3,0.5,15,7,LH,0.23090909090909098,0.27600000000000013,0.4128571428571431,0.19000000000000006
10,7,14,1,9,0.47000000000000025,2,4,64,69,2,61,2.919999999999992,0.34000000000000014,4.749999999999943,0.01,4,1,8,1,10,1,11,1,4,0.5,18,7,LH,0.2920000000000001,0.34000000000000014,0.43181818181818205,0.01
10,8,15,1,2,0.24000000000000007,2,3,92,97,53,16,2.6999999999999917,0.38000000000000017,0.13999999999999999,0.15,5,2,1,1,7,2,1,1,4,0,15,7,LH,0.38571428571428595,0.19000000000000003,0.13999999999999999,0.15
10,8,16,1,8,0.22000000000000006,2,3,118,113,37,41,1.8400000000000012,0.38000000000000017,3.429999999999971,1.0000000000000007,4,1,10,3,8,1,11,4,2,0,14,7,LH,0.2300000000000001,0.38000000000000017,0.31181818181818194,0.2500000000000001
10,9,17,1,3,1.5800000000000012,3,5,32,116,109,94,2.290000000000002,0.8300000000000005,0.24000000000000007,0.7900000000000005,5,2,1,2,7,4,1,3,5,0,12,7,LH,0.3271428571428573,0.20750000000000005,0.24000000000000007,0.2633333333333334
10,9,18,1,9,0.2800000000000001,2,4,61,18,74,62,2.779999999999991,0.2700000000000001,1.1000000000000008,0.20000000000000004,4,1,2,2,12,1,2,2,4,0,17,7,LH,0.23166666666666674,0.2700000000000001,0.5500000000000004,0.09999999999999999
10,10,19,1,10,1.1400000000000008,5,6,90,109,53,54,2.960000000000002,0.2700000000000001,0.37000000000000016,0.18000000000000002,7,1,1,1,8,1,1,1,3,0,13,7,LH,0.3700000000000002,0.2700000000000001,0.37000000000000016,0.18000000000000002
10,10,20,1,7,0.2800000000000001,2,3,21,19,14,65,2.1800000000000015,0.4000000000000002,20.490000000000403,0.01,4,1,17,1,7,1,45,1,6,0.5,22,7,LH,0.31142857142857155,0.4000000000000002,0.4553333333333336,0.01
10,11,21,1,3,13.439999999999758,9,32,27,29,30,114,13.809999999999759,0.01,1.300000000000001,0.38000000000000017,11,1,2,1,34,1,4,1,5,0.5,17,7,LH,0.4061764705882355,0.01,0.3250000000000001,0.38000000000000017
10,11,22,1,10,0.22000000000000006,2,3,89,57,60,59,5.469999999999932,0.060000000000000005,1.350000000000001,0.09,10,2,2,1,13,2,3,1,3,0.5,15,7,LH,0.42076923076923034,0.03,0.4500000000000003,0.09
10,12,23,1,1,0.09,2,3,83,80,63,97,0.9200000000000005,0.46000000000000024,1.9000000000000015,0.3900000000000002,4,1,3,2,5,1,4,3,3,0,12,7,LH,0.18400000000000008,0.46000000000000024,0.4750000000000003,0.13000000000000003
10,12,24,1,7,0.3200000000000001,2,4,15,36,34,24,6.469999999999914,0.02,0.03,0.8800000000000006,9,1,1,2,11,1,1,2,6,0,22,7,LH,0.5881818181818186,0.02,0.03,0.4400000000000003
10,13,25,1,4,0.22000000000000006,2,3,64,106,70,17,1.9400000000000013,0.3000000000000001,0.21000000000000005,0.6500000000000004,4,1,1,2,10,1,1,2,2,0,16,7,LH,0.19400000000000006,0.3000000000000001,0.21000000000000005,0.3250000000000001
10,13,26,1,2,0.4200000000000002,3,5,50,46,60,37,2.310000000000002,0.9700000000000006,0.26000000000000006,0.9800000000000006,5,2,2,4,7,3,2,4,4,0,18,7,LH,0.3300000000000002,0.3233333333333335,0.12999999999999998,0.24500000000000008
10,14,27,1,10,0.38000000000000017,2,3,87,86,98,66,1.1300000000000006,0.7700000000000005,0.4100000000000002,0.6400000000000003,4,2,1,1,5,5,1,1,3,0,12,7,LH,0.2260000000000001,0.15400000000000005,0.4100000000000002,0.6400000000000003
10,14,28,1,2,0.25000000000000006,2,4,82,50,81,35,1.630000000000001,0.3900000000000002,1.6100000000000012,0.21000000000000005,4,1,3,1,7,1,5,1,4,0,15,7,LH,0.23285714285714296,0.3900000000000002,0.3220000000000001,0.21000000000000005
10,15,29,1,4,0.22000000000000006,2,3,107,91,108,23,1.3300000000000007,1.2200000000000009,0.23000000000000007,0.7300000000000004,4,2,1,3,7,3,1,3,2,0,13,7,LH,0.19000000000000009,0.40666666666666684,0.23000000000000007,0.2433333333333334
10,15,30,1,8,0.21000000000000005,2,5,110,81,83,120,1.660000000000001,1.8200000000000014,0.16,0.09,4,3,1,1,9,5,1,1,2,0,10,7,LH,0.18444444444444452,0.36400000000000016,0.16,0.09
10,16,31,1,10,0.9100000000000006,2,4,47,42,87,39,2.3900000000000015,0.6900000000000004,0.3200000000000001,0.4000000000000002,5,2,2,2,7,2,2,3,3,0.5,18,7,LH,0.3414285714285716,0.34500000000000014,0.16000000000000006,0.13333333333333336
10,16,32,1,3,0.3100000000000001,3,5,30,26,79,98,1.4100000000000008,11.049999999999809,3.1999999999999758,0.38000000000000017,5,14,5,2,7,18,5,2,5,0,15,7,LH,0.2014285714285715,0.6138888888888888,0.6400000000000003,0.19000000000000009
10,17,33,1,3,0.4000000000000002,2,5,31,35,16,21,4.259999999999962,0.35000000000000014,0.6300000000000003,0.6700000000000004,9,3,3,3,15,3,3,4,5,0,22,7,LH,0.28400000000000014,0.11666666666666668,0.2100000000000001,0.16750000000000007
10,17,34,1,2,0.3000000000000001,2,3,53,100,87,4,1.8700000000000012,0.37000000000000016,0.4300000000000002,0.4000000000000002,4,1,1,1,6,1,1,1,4,0,15,7,LH,0.3116666666666668,0.37000000000000016,0.4300000000000002,0.4000000000000002
10,18,35,1,9,0.13999999999999999,2,3,63,61,70,98,1.3600000000000008,0.6900000000000004,0.2700000000000001,2.3299999999999943,4,2,2,3,8,2,3,3,4,0.5,14,7,LH,0.17000000000000007,0.34500000000000014,0.09000000000000001,0.7766666666666672
10,18,36,1,10,0.5700000000000003,2,4,60,86,49,10,2.7599999999999976,1.6100000000000012,0.13999999999999999,0.24000000000000007,5,3,2,1,9,3,2,1,3,0,17,7,LH,0.3066666666666668,0.5366666666666671,0.07,0.24000000000000007
10,19,37,1,5,0.22000000000000006,2,3,46,44,23,14,6.189999999999917,5.34999999999993,0.37000000000000016,0.17,9,10,2,2,12,13,2,2,5,0,22,7,LH,0.5158333333333315,0.41153846153846174,0.18500000000000008,0.08499999999999999
10,19,38,1,3,3.0199999999999796,3,6,29,32,118,77,4.659999999999981,0.7900000000000005,2.149999999999998,0.02,5,2,5,1,8,7,6,1,5,0,15,7,LH,0.5825000000000004,0.11285714285714286,0.35833333333333356,0.02
10,20,39,1,5,0.5500000000000003,4,5,47,78,53,55,3.1999999999999877,0.8700000000000006,0.10999999999999999,0.07,6,3,1,1,15,5,1,1,5,0,16,7,LH,0.2133333333333334,0.17400000000000004,0.10999999999999999,0.07
10,20,40,1,9,0.10999999999999999,2,2,13,115,96,61,10.939999999999813,0.01,0.01,0.01,12,1,1,1,21,1,1,1,4,0,15,7,LH,0.5209523809523813,0.01,0.01,0.01
10,21,41,1,4,0.7200000000000004,2,3,67,85,107,101,2.7200000000000015,2.569999999999989,0.02,0.01,5,5,1,1,8,5,1,1,2,0,11,7,LH,0.3400000000000002,0.5140000000000003,0.02,0.01
10,21,42,1,1,0.20000000000000004,1,2,76,43,59,50,1.560000000000001,1.5900000000000012,0.16,0.2900000000000001,3,3,1,2,4,6,1,3,3,0,16,7,LH,0.3900000000000002,0.2650000000000001,0.16,0.09666666666666666
11,1,1,0,1,0.10999999999999999,2,2,77,73,18,70,2.6199999999999903,0.8200000000000005,2.259999999999996,0.21000000000000005,4,2,2,1,7,5,7,1,3,0,16,7,LH,0.3742857142857145,0.16400000000000003,0.322857142857143,0.21000000000000005
11,1,2,0,5,0.23000000000000007,2,3,40,52,91,8,1.8600000000000012,3.0199999999999796,1.0700000000000007,0.3200000000000001,4,2,2,2,5,8,3,2,5,0,18,7,LH,0.3720000000000002,0.37750000000000017,0.35666666666666685,0.16000000000000003
11,2,3,0,7,0.19000000000000003,2,4,22,18,95,85,3.3599999999999763,0.3900000000000002,1.0800000000000007,1.500000000000001,4,1,3,2,11,1,7,3,6,0,18,7,LH,0.3054545454545456,0.3900000000000002,0.15428571428571433,0.5000000000000002
11,2,4,0,6,0.22000000000000006,2,3,9,4,33,102,3.7599999999999687,14.929999999999726,0.01,0.01,4,11,1,1,11,33,1,1,6,0,19,7,LH,0.34181818181818197,0.4524242424242427,0.01,0.01
11,3,5,0,3,0.18000000000000002,2,3,33,34,82,97,2.26,0.6600000000000004,2.3099999999999947,1.0400000000000007,4,1,3,2,10,1,4,2,5,0,15,7,LH,0.2260000000000001,0.6600000000000004,0.5775000000000003,0.5200000000000002
11,3,6,0,10,0.19000000000000003,2,3,88,94,66,111,2.4099999999999966,0.7700000000000005,2.5999999999999885,3.709999999999965,4,2,3,7,11,3,6,9,3,0,12,7,LH,0.21909090909090917,0.2566666666666667,0.43333333333333357,0.41222222222222243
11,4,7,0,10,0.23000000000000007,2,3,101,89,9,66,2.5099999999999953,0.6700000000000004,1.1300000000000008,0.5800000000000003,5,2,2,2,6,3,5,3,3,0,15,7,LH,0.41833333333333356,0.2233333333333334,0.22600000000000006,0.19333333333333336
11,4,8,0,5,0.4200000000000002,2,3,81,17,46,53,3.7999999999999723,0.6500000000000004,0.46000000000000024,0.19000000000000003,4,2,2,1,12,2,3,1,5,0,18,7,LH,0.3166666666666668,0.3250000000000001,0.15333333333333335,0.19000000000000003
11,5,9,0,2,0.2900000000000001,2,3,49,54,39,7,2.5999999999999948,1.490000000000001,1.1400000000000008,9.819999999999835,4,2,2,7,10,3,2,11,4,0,19,7,LH,0.2600000000000001,0.4966666666666669,0.5700000000000003,0.8927272727272733
11,5,10,0,9,0.3200000000000001,2,2,70,98,65,27,3.469999999999977,0.7000000000000004,0.45000000000000023,0.6800000000000004,4,2,1,2,8,2,1,2,4,0,15,7,LH,0.43375000000000025,0.35000000000000014,0.45000000000000023,0.34000000000000014
11,6,11,0,5,0.3100000000000001,2,4,67,47,65,118,3.399999999999978,0.3900000000000002,0.8600000000000005,1.2000000000000008,4,1,2,2,9,1,5,8,5,0,15,7,LH,0.377777777777778,0.3900000000000002,0.17200000000000004,0.15000000000000002
11,6,12,0,3,0.3100000000000001,2,3,35,28,17,52,2.2100000000000017,0.36000000000000015,3.0299999999999794,0.47000000000000025,4,1,3,2,7,1,7,3,5,0,20,7,LH,0.31571428571428584,0.36000000000000015,0.4328571428571431,0.15666666666666668
11,7,13,1,5,0.34000000000000014,2,3,6,48,42,4,2.649999999999995,0.6900000000000004,0.6900000000000004,0.4400000000000002,4,2,2,2,8,3,3,3,5,0,22,7,LH,0.33125000000000016,0.23000000000000004,0.23000000000000007,0.14666666666666667
11,7,14,1,7,0.3300000000000001,3,5,98,17,99,108,3.569999999999975,0.6600000000000004,7.009999999999895,2.289999999999995,5,2,4,4,10,4,16,7,6,0.5,12,7,LH,0.3570000000000002,0.16500000000000004,0.4381250000000002,0.3271428571428573
11,8,15,1,10,0.6400000000000003,2,3,88,24,120,68,3.559999999999982,1.6700000000000013,0.19000000000000003,0.2700000000000001,5,2,1,1,13,4,1,1,3,0,15,7,LH,0.27384615384615396,0.4175000000000002,0.19000000000000003,0.2700000000000001
11,8,16,1,4,0.17,2,3,1,105,82,101,3.779999999999967,0.15,2.579999999999989,0.09999999999999999,4,1,5,2,10,1,8,2,2,0,13,7,LH,0.37800000000000017,0.15,0.3225000000000002,0.05
11,9,17,1,7,0.3900000000000002,2,3,21,18,15,33,4.089999999999965,1.1600000000000008,20.610000000000422,0.01,6,5,14,1,10,7,40,1,6,0.5,23,7,LH,0.4090000000000002,0.16571428571428576,0.5152500000000002,0.01
11,9,18,1,9,0.18000000000000002,2,3,9,71,74,78,5.0899999999999395,1.1900000000000008,0.08,0.25000000000000006,4,4,1,2,14,4,1,3,4,0,16,7,LH,0.36357142857142877,0.29750000000000015,0.08,0.08333333333333331
11,10,19,1,5,0.21000000000000005,2,4,47,72,45,100,3.3299999999999774,0.6800000000000004,0.2700000000000001,0.7800000000000005,4,2,2,1,10,4,2,2,5,0,16,7,LH,0.3330000000000002,0.17000000000000004,0.135,0.3900000000000002
11,10,20,1,8,0.3900000000000002,2,4,111,60,25,120,3.169999999999985,1.1100000000000008,1.5800000000000012,0.03,5,2,3,1,10,2,8,1,2,0,13,7,LH,0.31700000000000017,0.5550000000000003,0.19750000000000006,0.03
11,11,21,1,1,0.15,2,3,83,78,42,61,2.2899999999999983,0.38000000000000017,1.9400000000000015,1.0400000000000007,4,1,2,3,9,1,5,5,3,0,15,7,LH,0.25444444444444453,0.38000000000000017,0.38800000000000023,0.20800000000000007
11,11,22,1,7,0.19000000000000003,3,3,15,19,14,90,2.6099999999999923,0.5700000000000003,15.959999999999704,0.09,5,1,14,1,7,1,36,1,6,0.5,21,7,LH,0.37285714285714305,0.5700000000000003,0.4433333333333336,0.09
11,12,23,1,6,0.11999999999999998,2,3,10,95,11,8,2.0500000000000016,1.460000000000001,0.22000000000000006,6.809999999999899,4,3,1,6,11,6,1,25,6,0.5,21,7,LH,0.18636363636363643,0.2433333333333334,0.22000000000000006,0.27240000000000014
11,12,24,1,7,0.08,1,2,24,19,77,20,2.7199999999999878,0.5300000000000002,1.1300000000000008,5.139999999999935,3,2,2,6,8,3,2,16,6,0.5,21,7,LH,0.34000000000000014,0.1766666666666667,0.5650000000000003,0.32125000000000015
11,13,25,1,3,0.3000000000000001,3,3,58,84,49,27,5.0699999999999426,0.46000000000000024,0.37000000000000016,0.3100000000000001,6,2,1,1,20,2,1,1,5,0,16,7,LH,0.2535000000000001,0.23000000000000004,0.37000000000000016,0.3100000000000001
11,13,26,1,5,0.46000000000000024,2,3,44,104,43,2,3.189999999999986,1.0100000000000007,0.09999999999999999,0.3300000000000001,4,2,1,1,8,6,1,1,5,0,18,7,LH,0.3987500000000002,0.16833333333333336,0.09999999999999999,0.3300000000000001
11,14,27,1,10,0.08,2,2,96,88,45,11,2.0100000000000016,0.5600000000000003,1.6400000000000012,0.49000000000000027,4,1,3,2,12,1,6,4,3,0,17,7,LH,0.16750000000000004,0.5600000000000003,0.27333333333333343,0.12250000000000003
11,14,28,1,3,0.24000000000000007,2,3,30,51,50,23,3.9899999999999642,0.6900000000000004,0.37000000000000016,0.4400000000000002,4,2,2,1,11,2,2,1,5,0,19,7,LH,0.3627272727272729,0.34500000000000014,0.18500000000000003,0.4400000000000002
11,15,29,1,5,0.10999999999999999,2,3,38,113,42,49,1.560000000000001,0.8300000000000005,0.9700000000000006,0.6300000000000003,4,2,2,1,7,2,3,1,5,0,16,7,LH,0.22285714285714295,0.4150000000000002,0.3233333333333335,0.6300000000000003
11,15,30,1,4,0.2900000000000001,2,3,104,87,19,95,2.3699999999999997,1.290000000000001,0.6100000000000003,0.3200000000000001,4,2,2,1,7,3,2,1,2,0,14,7,LH,0.33857142857142875,0.4300000000000002,0.30500000000000016,0.3200000000000001
11,16,31,1,7,0.25000000000000006,2,3,22,83,69,37,3.9699999999999647,0.3100000000000001,2.010000000000001,1.340000000000001,4,1,4,4,15,1,5,6,6,0,18,7,LH,0.26466666666666677,0.3100000000000001,0.40200000000000025,0.2233333333333334
11,16,32,1,6,0.7000000000000004,4,6,6,8,11,31,3.629999999999982,0.8800000000000006,0.08,0.13999999999999999,6,2,1,1,13,4,1,1,6,0.5,23,7,LH,0.27923076923076934,0.22000000000000006,0.08,0.13999999999999999
11,17,33,1,7,0.18000000000000002,2,3,20,50,22,97,2.1300000000000017,1.6100000000000012,7.979999999999874,0.11999999999999998,4,3,5,1,5,5,23,1,6,0,18,7,LH,0.42600000000000027,0.3220000000000001,0.3469565217391306,0.11999999999999998
11,17,34,1,10,0.19000000000000003,2,4,90,39,96,119,4.559999999999952,1.1600000000000008,0.12999999999999998,0.3100000000000001,5,1,1,1,14,2,1,1,3,0,13,7,LH,0.3257142857142859,0.5800000000000003,0.12999999999999998,0.3100000000000001
11,18,35,1,4,1.7200000000000013,3,3,99,69,74,23,4.079999999999995,0.7300000000000004,0.6800000000000004,0.7100000000000004,5,2,2,2,11,4,2,2,2,0,15,7,LH,0.37090909090909113,0.18250000000000005,0.34000000000000014,0.35500000000000015
11,18,36,1,2,0.11999999999999998,1,2,53,36,26,49,2.8799999999999852,0.3900000000000002,0.6500000000000004,0.3100000000000001,5,2,2,2,12,2,6,3,4,0,18,7,LH,0.24000000000000007,0.195,0.10833333333333334,0.10333333333333333
11,19,37,1,4,0.38000000000000017,2,5,107,1,10,26,3.2399999999999833,1.1900000000000008,1.1300000000000008,0.38000000000000017,4,2,2,3,11,4,3,4,2,0,19,7,LH,0.29454545454545467,0.29750000000000015,0.3766666666666668,0.095
11,19,38,1,5,0.2900000000000001,2,4,40,51,110,54,1.670000000000001,1.6300000000000012,0.5800000000000003,0.9300000000000006,4,2,1,2,6,3,1,3,5,0,15,7,LH,0.2783333333333335,0.5433333333333337,0.5800000000000003,0.3100000000000001
11,20,39,1,4,0.10999999999999999,2,2,100,99,3,50,2.0000000000000013,0.6900000000000004,2.389999999999993,1.330000000000001,4,1,2,3,4,2,10,5,2,0,14,7,LH,0.5000000000000003,0.34500000000000014,0.23900000000000007,0.26600000000000007
11,20,40,1,1,0.38000000000000017,3,5,44,78,15,110,4.279999999999961,0.47000000000000025,0.6600000000000004,0.38000000000000017,5,1,1,1,13,1,1,1,3,0,16,7,LH,0.3292307692307694,0.47000000000000025,0.6600000000000004,0.38000000000000017
11,21,41,1,3,0.07,2,2,27,30,51,34,3.06999999999998,0.3300000000000001,0.45000000000000023,1.9100000000000015,4,1,1,4,13,1,1,4,5,0.5,19,7,LH,0.23615384615384624,0.3300000000000001,0.45000000000000023,0.4775000000000003
11,21,42,1,7,0.9300000000000006,3,4,24,18,38,15,2.980000000000001,0.5000000000000002,0.8100000000000005,8.079999999999872,5,1,2,7,8,1,3,17,6,0.5,23,7,LH,0.3725000000000002,0.5000000000000002,0.2700000000000001,0.4752941176470591
12,1,1,0,1,0.24000000000000007,2,3,75,78,5,64,1.720000000000001,1.490000000000001,0.47000000000000025,1.460000000000001,4,2,1,2,5,3,1,6,3,0,16,7,LH,0.3440000000000002,0.4966666666666669,0.47000000000000025,0.24333333333333343
12,1,2,0,2,0.2800000000000001,2,3,56,93,89,116,12.489999999999783,0.01,0.07,0.6500000000000004,11,1,1,3,25,1,1,3,4,0,12,7,LH,0.49960000000000027,0.01,0.07,0.21666666666666676
12,2,3,0,10,0.25000000000000006,2,3,60,87,21,53,2.8099999999999894,0.34000000000000014,1.0100000000000007,2.4099999999999926,5,1,2,3,7,1,2,3,3,0,17,7,LH,0.40142857142857163,0.34000000000000014,0.5050000000000003,0.8033333333333333
12,2,4,0,3,0.26000000000000006,2,3,34,80,71,119,2.7199999999999918,0.46000000000000024,0.3300000000000001,0.8100000000000005,4,1,2,1,9,1,3,1,5,0,14,7,LH,0.30222222222222234,0.46000000000000024,0.11000000000000004,0.8100000000000005
12,3,5,0,3,0.4300000000000002,2,3,26,28,30,79,2.8999999999999915,0.48000000000000026,0.9100000000000006,1.2200000000000009,4,1,2,4,8,1,2,5,5,0.5,33,7,LH,0.36250000000000016,0.48000000000000026,0.4550000000000002,0.24400000000000008
12,3,6,0,7,0.37000000000000016,2,4,13,19,15,50,1.750000000000001,0.8400000000000005,5.429999999999929,0.01,4,2,4,1,9,3,14,1,6,0.5,40,7,LH,0.1944444444444445,0.2800000000000001,0.38785714285714307,0.01
