Subject,Round,Phase,afterbreak,Schema,Schema_RT,Schema_OB,Schema_AS,Cho_1,Cho_2,Cho_3,Cho_4,RT_1,RT_2,RT_3,RT_4,OB_1,OB_2,OB_3,OB_4,AS_1,AS_2,AS_3,AS_4,schema_payoff,AC,performance,breakR,type,dwellmean_1,dwellmean_2,dwellmean_3,dwellmean_4
1,1,1,0,2,0.6100000000000003,2,7,73,76,81,74,10.459999999999834,1.5700000000000012,1.8500000000000014,2.0400000000000005,15,5,5,8,101,9,17,15,3,1,36,6,LH,0.10356435643564359,0.1744444444444445,0.10882352941176474,0.13600000000000004
1,1,2,0,6,1.1500000000000008,2,15,51,90,57,53,12.009999999999813,6.439999999999907,0.3900000000000002,0.10999999999999999,8,7,2,2,125,54,4,2,4,0.5,27,6,LH,0.09608000000000001,0.11925925925925927,0.09750000000000002,0.055
1,2,3,0,7,0.6800000000000004,2,9,95,97,46,88,14.679999999999746,4.329999999999952,1.5900000000000012,0.07,16,10,4,1,153,42,10,1,3,0,13,6,LH,0.09594771241830066,0.10309523809523811,0.15900000000000003,0.07
1,2,4,0,1,1.0400000000000007,2,14,27,35,34,32,13.719999999999775,0.8800000000000006,0.3900000000000002,1.6500000000000012,14,3,2,10,143,6,3,15,5,1,60,6,LH,0.09594405594405596,0.1466666666666667,0.13,0.11000000000000001
1,3,5,0,3,0.6200000000000003,2,9,41,39,40,102,12.979999999999782,1.0500000000000007,0.6500000000000004,2.6999999999999864,19,4,3,8,124,5,6,29,5,0.5,32,6,LH,0.10467741935483872,0.21000000000000008,0.10833333333333334,0.09310344827586209
1,3,6,0,9,1.260000000000001,2,11,91,70,94,61,17.56999999999975,0.37000000000000016,0.4400000000000002,0.17,15,6,3,2,173,8,4,3,4,0,14,6,LH,0.1015606936416185,0.04625,0.10999999999999999,0.05666666666666667
1,4,7,0,10,0.9200000000000006,2,13,21,19,16,98,11.87999999999981,0.4400000000000002,6.979999999999896,0.19000000000000003,16,3,8,1,116,3,73,1,6,0.5,38,6,LH,0.10241379310344828,0.1466666666666667,0.09561643835616439,0.19000000000000003
1,4,8,0,5,1.7700000000000014,2,20,9,3,54,10,11.589999999999836,13.499999999999757,2.0799999999999996,0.23000000000000007,16,18,8,5,108,100,26,5,6,0.5,40,6,LH,0.10731481481481482,0.13500000000000004,0.08000000000000002,0.046
1,5,9,0,1,0.5600000000000003,2,7,34,27,28,29,10.869999999999825,1.7200000000000013,0.3300000000000001,3.0699999999999785,11,6,2,6,101,15,3,24,5,1,60,6,LH,0.10762376237623764,0.11466666666666668,0.11000000000000001,0.12791666666666668
1,5,10,0,2,0.37000000000000016,2,4,77,71,64,79,11.679999999999804,8.62999999999986,1.1500000000000008,1.0100000000000007,18,14,4,7,115,73,13,7,3,0,14,6,LH,0.10156521739130436,0.1182191780821918,0.08846153846153847,0.14428571428571432
1,6,11,1,2,1.480000000000001,3,17,69,66,75,61,11.749999999999826,5.329999999999931,1.8000000000000014,0.23000000000000007,14,10,4,2,110,46,10,4,3,0.5,15,6,LH,0.10681818181818184,0.11586956521739132,0.18000000000000008,0.0575
1,6,12,1,6,0.5900000000000003,2,10,52,55,49,51,11.14999999999982,3.3899999999999717,1.1000000000000008,1.1200000000000008,12,6,3,5,112,35,9,9,4,1,48,6,LH,0.09955357142857144,0.09685714285714286,0.12222222222222223,0.12444444444444445
1,7,13,1,5,1.390000000000001,2,16,61,7,5,77,13.969999999999777,0.9100000000000006,4.3099999999999525,1.290000000000001,9,2,6,3,119,14,41,13,6,0,19,6,LH,0.1173949579831933,0.065,0.1051219512195122,0.09923076923076923
1,7,14,1,3,0.7000000000000004,4,8,39,88,60,43,17.65999999999985,2.489999999999991,1.320000000000001,0.35000000000000014,20,7,3,2,164,22,17,6,5,0,17,6,LH,0.1076829268292683,0.1131818181818182,0.07764705882352942,0.058333333333333334
1,8,15,1,4,1.2100000000000009,4,14,99,62,89,101,13.299999999999788,3.759999999999964,0.7600000000000005,0.7400000000000004,14,7,4,4,126,41,9,6,2,0,11,6,LH,0.10555555555555557,0.09170731707317074,0.08444444444444445,0.12333333333333334
1,8,16,1,10,0.5800000000000003,2,5,24,19,16,22,9.969999999999844,4.209999999999955,0.35000000000000014,4.039999999999958,13,10,2,14,74,35,3,36,6,1,72,6,LH,0.13472972972972977,0.1202857142857143,0.11666666666666667,0.11222222222222224
1,9,17,1,2,1.7700000000000014,4,21,78,3,82,5,15.279999999999758,0.7300000000000004,0.24000000000000007,0.6300000000000003,19,3,2,2,142,7,3,4,3,0,18,6,LH,0.10760563380281692,0.10428571428571429,0.08,0.15750000000000003
1,9,18,1,8,1.0000000000000007,2,14,119,117,61,14,11.429999999999822,2.5899999999999888,2.4099999999999926,3.93999999999996,10,4,9,9,95,22,17,37,2,0,14,6,LH,0.12031578947368424,0.11772727272727274,0.141764705882353,0.1064864864864865
1,10,19,1,8,1.5100000000000011,2,11,115,120,86,117,15.759999999999742,0.45000000000000023,0.6500000000000004,0.3000000000000001,18,2,2,2,137,3,8,4,2,0.5,9,6,LH,0.11503649635036498,0.15000000000000002,0.08125,0.075
1,10,20,1,2,0.5400000000000003,2,10,82,40,84,43,11.209999999999818,4.399999999999951,0.23000000000000007,0.37000000000000016,16,8,2,2,99,48,2,5,3,0,16,6,LH,0.11323232323232325,0.09166666666666667,0.115,0.074
1,11,21,1,6,0.7800000000000005,3,12,47,46,73,60,10.599999999999836,5.939999999999918,0.6200000000000003,0.12999999999999998,14,7,3,1,115,46,6,1,4,0,17,6,LH,0.09217391304347827,0.12913043478260872,0.10333333333333335,0.12999999999999998
1,11,22,1,1,0.6300000000000003,2,8,25,30,34,27,10.969999999999825,0.9200000000000006,2.07,2.9199999999999817,18,3,8,13,101,5,19,38,5,1,60,6,LH,0.10861386138613863,0.18400000000000005,0.10894736842105264,0.0768421052631579
1,12,23,1,1,0.7300000000000004,3,12,78,80,33,73,11.149999999999823,2.0799999999999996,0.3100000000000001,2.7399999999999856,13,8,2,10,124,23,3,31,5,0.5,14,6,LH,0.08991935483870969,0.09043478260869567,0.10333333333333333,0.08838709677419355
1,12,24,1,4,1.7700000000000014,2,18,102,52,99,24,12.84999999999981,6.249999999999911,0.3900000000000002,0.8000000000000005,14,12,4,2,121,63,9,8,2,0,14,6,LH,0.10619834710743803,0.09920634920634921,0.043333333333333335,0.1
1,13,25,1,2,0.47000000000000025,3,6,84,11,77,3,14.249999999999751,0.8700000000000006,0.8400000000000005,1.9500000000000015,19,3,5,6,160,11,6,21,3,0,18,6,LH,0.0890625,0.0790909090909091,0.14,0.09285714285714287
1,13,26,1,7,1.420000000000001,2,13,91,95,49,54,13.319999999999792,3.4399999999999706,0.35000000000000014,0.8300000000000005,13,9,2,2,137,27,2,8,3,0,14,6,LH,0.09722627737226279,0.12740740740740744,0.17500000000000002,0.10375
1,14,27,1,3,0.35000000000000014,2,5,38,45,37,58,11.639999999999803,2.0400000000000005,3.989999999999959,1.2500000000000009,14,5,8,4,109,25,43,16,5,0.5,19,6,LH,0.10678899082568809,0.0816,0.09279069767441861,0.078125
1,14,28,1,9,0.6100000000000003,2,6,98,103,70,69,15.499999999999726,0.45000000000000023,1.1300000000000008,1.0600000000000007,20,3,4,3,150,7,12,10,4,0,12,6,LH,0.10333333333333335,0.06428571428571428,0.09416666666666666,0.106
1,15,29,1,1,1.0800000000000007,2,13,32,33,69,67,10.149999999999851,3.9999999999999587,0.9300000000000006,1.410000000000001,18,5,2,5,86,31,8,20,5,0,18,6,LH,0.11802325581395351,0.12903225806451615,0.11625000000000002,0.07050000000000001
1,15,30,1,4,0.6600000000000004,4,10,10,107,108,104,12.959999999999782,0.21000000000000005,1.6900000000000013,0.19000000000000003,20,1,7,3,122,1,17,4,2,0.5,12,6,LH,0.10622950819672133,0.21000000000000005,0.09941176470588237,0.0475
1,16,31,1,8,0.34000000000000014,2,3,115,119,114,118,16.109999999999708,0.20000000000000004,2.899999999999982,1.1500000000000008,20,2,11,8,140,2,38,11,2,1,24,6,LH,0.11507142857142859,0.1,0.07631578947368421,0.10454545454545455
1,16,32,1,4,0.5100000000000002,5,6,4,70,26,85,30.040000000001818,0.01,0.02,0.01,20,1,1,1,263,1,1,1,2,0,18,6,LH,0.11422053231939165,0.01,0.02,0.01
1,17,33,1,10,1.1300000000000008,2,11,87,23,15,89,13.209999999999788,1.1500000000000008,2.020000000000001,7.559999999999883,13,3,5,13,120,15,14,68,6,0,18,6,LH,0.11008333333333335,0.07666666666666667,0.14428571428571432,0.11117647058823532
1,17,34,1,8,0.34000000000000014,2,7,111,47,118,114,12.989999999999775,7.749999999999879,0.3000000000000001,0.3000000000000001,13,14,2,2,126,74,5,3,2,0.5,11,6,LH,0.10309523809523811,0.10472972972972974,0.06,0.1
1,18,35,1,6,0.9700000000000006,3,14,49,51,60,46,12.4299999999998,1.2300000000000009,1.0900000000000007,4.509999999999948,13,2,3,8,125,13,12,39,4,0.5,17,6,LH,0.09944000000000001,0.09461538461538464,0.09083333333333334,0.11564102564102566
1,18,36,1,2,0.34000000000000014,2,6,83,84,79,105,12.589999999999783,1.9200000000000015,1.8000000000000014,0.060000000000000005,17,8,9,1,119,17,18,1,3,0.5,11,6,LH,0.10579831932773111,0.11294117647058825,0.10000000000000002,0.060000000000000005
1,19,37,1,6,0.6400000000000003,2,7,49,57,51,45,12.309999999999796,1.350000000000001,0.3300000000000001,8.739999999999858,17,10,2,16,115,19,3,78,4,0.5,17,6,LH,0.10704347826086959,0.07105263157894737,0.11,0.11205128205128206
1,19,38,1,5,0.3200000000000001,5,8,9,7,91,93,10.229999999999833,5.429999999999929,1.300000000000001,0.9100000000000006,15,9,3,2,106,58,15,12,6,0,18,6,LH,0.09650943396226416,0.09362068965517242,0.08666666666666667,0.07583333333333334
2,1,1,0,3,1.0400000000000007,2,8,40,39,37,41,11.669999999999819,4.179999999999955,4.399999999999951,3.4099999999999713,18,10,13,11,70,23,24,19,5,1,60,6,LH,0.16671428571428576,0.18173913043478265,0.18333333333333338,0.17947368421052637
2,1,2,0,1,0.17,2,2,14,98,20,101,29.690000000001817,0.05,0.05,0.04,20,2,1,2,152,2,1,2,5,0,16,6,LH,0.1953289473684211,0.025,0.05,0.02
2,2,3,0,7,0.8000000000000005,2,11,89,86,91,87,9.339999999999863,2.7799999999999847,1.460000000000001,6.589999999999904,17,6,6,14,47,20,10,38,3,1,36,6,LH,0.1987234042553192,0.13900000000000004,0.14600000000000002,0.173421052631579
2,2,4,0,5,1.0000000000000007,2,9,7,8,5,112,13.609999999999776,3.509999999999969,13.029999999999767,0.5200000000000002,18,11,16,2,71,19,75,2,6,0.5,38,6,LH,0.19169014084507047,0.1847368421052632,0.17373333333333338,0.2600000000000001
2,3,5,0,7,0.34000000000000014,2,3,85,90,87,97,9.069999999999858,5.709999999999923,3.2999999999999736,4.549999999999947,15,11,9,14,39,29,12,32,3,0.5,20,6,LH,0.23256410256410265,0.196896551724138,0.27500000000000013,0.14218750000000002
2,3,6,0,1,0.8000000000000005,2,6,30,31,10,26,11.209999999999823,6.819999999999899,0.8800000000000006,1.1500000000000008,12,13,4,6,56,39,7,7,5,0.5,36,6,LH,0.20017857142857148,0.17487179487179494,0.12571428571428575,0.16428571428571434
2,4,7,0,10,0.18000000000000002,2,2,13,23,115,116,17.819999999999958,0.3200000000000001,0.5000000000000002,0.5800000000000003,20,2,2,3,88,2,2,4,6,0,16,6,LH,0.20250000000000007,0.16,0.25000000000000006,0.14500000000000002
2,4,8,0,3,0.3200000000000001,2,5,41,44,43,40,11.7799999999998,0.6500000000000004,1.0900000000000007,4.87999999999994,19,3,3,12,66,5,7,31,5,1,60,6,LH,0.17848484848484855,0.13,0.15571428571428575,0.15741935483870972
2,5,9,0,9,0.7400000000000004,2,7,70,119,61,67,12.969999999999784,1.390000000000001,1.0400000000000007,2.0799999999999996,20,5,6,5,75,7,10,14,4,0.5,26,6,LH,0.17293333333333338,0.19857142857142862,0.10400000000000002,0.1485714285714286
2,5,10,0,4,0.4000000000000002,2,4,102,100,106,99,13.75999999999976,3.1699999999999764,5.479999999999928,1.1400000000000008,20,10,11,6,84,23,23,7,2,1,24,6,LH,0.16380952380952385,0.13782608695652177,0.23826086956521747,0.1628571428571429
2,6,11,1,4,0.7100000000000004,2,8,104,15,105,14,13.13999999999978,6.899999999999897,3.9599999999999596,2.99999999999998,20,15,7,10,81,35,16,14,2,0,16,6,LH,0.16222222222222227,0.1971428571428572,0.24750000000000008,0.21428571428571436
2,6,12,1,3,0.21000000000000005,1,2,46,43,118,8,12.239999999999789,2.0000000000000013,3.619999999999967,2.159999999999998,15,5,7,7,80,11,14,11,5,0,18,6,LH,0.15300000000000002,0.18181818181818188,0.2585714285714287,0.1963636363636364
2,7,13,1,4,0.8800000000000006,11,14,15,108,106,38,25.270000000001012,0.05,0.08,0.10999999999999999,20,1,2,1,155,1,2,1,2,0,15,6,LH,0.16303225806451618,0.05,0.04,0.10999999999999999
2,7,14,1,9,0.4100000000000002,2,3,120,114,69,119,12.429999999999788,0.5100000000000002,2.629999999999988,1.440000000000001,15,1,7,5,73,1,12,8,4,0.5,10,6,LH,0.17027397260273977,0.5100000000000002,0.21916666666666676,0.18000000000000005
2,8,15,1,2,0.5700000000000003,2,6,79,82,76,24,9.079999999999863,3.179999999999976,4.389999999999951,5.959999999999917,13,10,8,9,57,16,20,24,3,0.5,15,6,LH,0.15929824561403513,0.19875000000000007,0.21950000000000008,0.24833333333333343
2,8,16,1,4,0.6500000000000004,2,6,98,39,108,104,11.929999999999804,2.869999999999983,3.099999999999978,2.1699999999999977,15,8,8,7,84,16,28,16,2,0.5,11,6,LH,0.14202380952380955,0.17937500000000003,0.11071428571428574,0.13562500000000002
2,9,17,1,1,1.2000000000000008,15,19,100,97,50,80,15.479999999999741,0.5300000000000002,6.709999999999901,0.5700000000000003,20,2,11,3,109,3,36,5,5,0,11,6,LH,0.14201834862385324,0.1766666666666667,0.18638888888888894,0.114
2,9,18,1,7,0.7000000000000004,8,9,96,40,86,43,15.389999999999732,2.4599999999999915,0.6600000000000004,0.9800000000000006,20,4,2,3,86,18,4,8,3,0,16,6,LH,0.17895348837209307,0.1366666666666667,0.165,0.12250000000000001
2,10,19,1,7,0.3200000000000001,2,4,14,104,86,85,31.60000000000209,1.0300000000000007,0.02,0.01,20,5,1,1,178,5,1,1,3,0,14,6,LH,0.1775280898876405,0.20600000000000007,0.02,0.01
2,10,20,1,8,1.280000000000001,14,17,111,59,60,114,14.449999999999765,4.549999999999947,1.8100000000000014,0.46000000000000024,20,5,6,3,76,21,14,5,2,0,12,6,LH,0.19013157894736848,0.21666666666666676,0.1292857142857143,0.09200000000000001
2,11,21,1,8,1.6200000000000012,2,11,115,109,26,18,15.04999999999976,0.6900000000000004,5.0599999999999365,1.5300000000000011,18,2,11,6,92,3,26,14,2,0,15,6,LH,0.16358695652173919,0.2300000000000001,0.19461538461538466,0.1092857142857143
2,11,22,1,5,2.1799999999999975,13,22,55,57,74,102,21.00000000000014,0.17,0.9100000000000006,0.09,20,1,3,1,116,1,4,1,6,0,13,6,LH,0.18103448275862075,0.17,0.22750000000000006,0.09
2,12,23,1,4,0.4000000000000002,2,4,36,83,25,28,16.89999999999978,1.7600000000000013,2.3299999999999943,0.6300000000000003,20,5,7,4,100,6,14,6,2,0.5,18,6,LH,0.16900000000000004,0.29333333333333345,0.16642857142857145,0.10500000000000001
2,12,24,1,6,1.260000000000001,10,11,117,56,48,12,15.069999999999752,0.8600000000000005,5.6699999999999235,1.340000000000001,20,2,8,3,87,4,29,8,4,0,17,6,LH,0.17321839080459775,0.21500000000000008,0.19551724137931042,0.16750000000000004
2,13,25,1,10,0.25000000000000006,2,4,22,24,15,18,12.869999999999775,2.07,2.07,0.4200000000000002,16,5,5,3,78,9,8,5,6,1,72,6,LH,0.16500000000000004,0.23000000000000007,0.2587500000000001,0.08399999999999999
2,13,26,1,7,0.3300000000000001,2,3,95,41,97,48,14.669999999999739,3.4999999999999694,0.25000000000000006,0.46000000000000024,16,7,2,3,79,22,2,3,3,0,15,6,LH,0.18569620253164565,0.15909090909090914,0.12499999999999997,0.15333333333333335
2,14,27,1,10,1.5700000000000012,13,19,22,23,16,93,14.54999999999977,1.2000000000000008,6.429999999999907,14.849999999999728,20,4,8,15,103,5,36,110,6,0.5,21,6,LH,0.1412621359223301,0.24000000000000007,0.17861111111111116,0.13500000000000004
2,14,28,1,1,1.0300000000000007,2,11,26,28,25,79,15.069999999999746,0.47000000000000025,1.360000000000001,3.4099999999999713,19,2,3,9,106,3,4,13,5,0.5,18,6,LH,0.14216981132075474,0.1566666666666667,0.3400000000000002,0.2623076923076924
2,15,29,1,7,0.5900000000000003,9,9,95,118,111,115,12.279999999999795,4.709999999999944,1.0300000000000007,3.189999999999976,20,11,4,11,81,27,8,25,3,0.5,9,6,LH,0.15160493827160498,0.17444444444444449,0.12875,0.12760000000000002
2,15,30,1,1,0.8800000000000006,9,11,31,60,57,8,13.79999999999977,1.440000000000001,1.1400000000000008,1.270000000000001,20,3,3,4,78,6,6,10,5,0,19,6,LH,0.176923076923077,0.24000000000000007,0.19000000000000006,0.127
2,16,31,1,6,0.6300000000000003,2,3,51,12,95,38,12.549999999999791,2.9899999999999802,1.2400000000000009,0.35000000000000014,17,7,2,3,64,24,3,4,4,0,18,6,LH,0.19609375000000007,0.12458333333333335,0.4133333333333335,0.08750000000000002
2,16,32,1,9,1.0200000000000007,11,13,69,72,36,107,14.599999999999756,2.5899999999999888,0.7800000000000005,1.410000000000001,20,6,2,3,91,14,6,12,4,0,15,6,LH,0.16043956043956048,0.18500000000000005,0.13000000000000003,0.11750000000000002
2,17,33,1,6,0.7600000000000005,2,6,51,49,54,4,11.619999999999813,0.8600000000000005,2.2799999999999954,1.280000000000001,15,3,4,4,70,5,10,8,4,0.5,18,6,LH,0.16600000000000004,0.17200000000000004,0.22800000000000006,0.16000000000000003
2,17,34,1,1,0.4200000000000002,2,6,66,61,25,113,13.349999999999769,1.6600000000000013,0.7100000000000004,0.7400000000000004,17,4,5,2,74,11,6,5,5,0,15,6,LH,0.18040540540540545,0.15090909090909094,0.11833333333333335,0.14800000000000005
2,18,35,1,10,0.5000000000000002,8,8,13,17,16,70,16.23999999999971,2.149999999999998,0.9600000000000006,2.7899999999999845,20,8,4,8,84,14,4,17,6,0.5,22,6,LH,0.1933333333333334,0.1535714285714286,0.24000000000000007,0.1641176470588236
2,18,36,1,8,0.26000000000000006,2,3,59,114,110,111,12.64999999999978,0.4100000000000002,1.6800000000000013,0.9600000000000006,19,2,6,6,78,4,9,11,2,0.5,10,6,LH,0.16217948717948721,0.10250000000000001,0.18666666666666673,0.08727272727272728
3,1,1,0,5,0.9300000000000006,2,9,3,1,12,102,15.929999999999726,5.969999999999917,1.7800000000000014,1.330000000000001,19,12,6,3,113,36,10,11,6,0.5,38,6,LH,0.14097345132743366,0.16583333333333336,0.17800000000000002,0.12090909090909094
3,1,2,0,2,0.7200000000000004,2,8,76,43,39,83,17.22999999999978,7.5499999999998835,1.430000000000001,0.09,17,8,5,1,144,48,13,1,3,0,16,6,LH,0.1196527777777778,0.1572916666666667,0.11000000000000001,0.09
3,2,3,0,1,0.9300000000000006,2,8,31,27,117,32,17.159999999999737,1.9300000000000015,4.89999999999994,2.1299999999999986,18,7,11,6,101,11,30,11,5,0.5,32,6,LH,0.16990099009900994,0.1754545454545455,0.16333333333333339,0.19363636363636372
3,2,4,0,6,0.3100000000000001,2,3,51,101,56,41,15.239999999999727,10.02999999999983,0.6300000000000003,3.00999999999998,16,16,2,6,99,82,8,21,4,0,15,6,LH,0.153939393939394,0.12231707317073173,0.07875,0.14333333333333337
3,3,5,0,8,0.8400000000000005,2,7,119,118,112,28,15.909999999999723,3.5899999999999674,3.00999999999998,4.729999999999944,16,7,5,10,104,24,26,30,2,0.5,17,6,LH,0.15298076923076928,0.14958333333333337,0.11576923076923078,0.1576666666666667
3,3,6,0,6,0.4400000000000002,2,4,46,51,49,40,13.339999999999769,0.7600000000000005,1.7400000000000013,1.9900000000000015,16,2,4,6,93,6,14,15,4,0,18,6,LH,0.14344086021505378,0.1266666666666667,0.1242857142857143,0.1326666666666667
3,4,7,0,2,0.2900000000000001,2,3,73,46,57,21,18.500000000000046,1.0200000000000007,0.2900000000000001,1.390000000000001,16,2,1,3,125,10,1,7,3,0,18,6,LH,0.14800000000000002,0.10200000000000001,0.2900000000000001,0.19857142857142862
3,4,8,0,8,0.38000000000000017,2,3,113,115,117,111,19.880000000000248,1.7200000000000013,3.7299999999999645,1.480000000000001,20,6,6,5,129,14,25,7,2,1,24,6,LH,0.15410852713178297,0.12285714285714289,0.14920000000000003,0.21142857142857147
3,5,9,0,7,1.420000000000001,2,16,95,88,90,115,24.100000000000747,0.5600000000000003,0.17,0.7900000000000005,20,2,2,1,157,4,2,1,3,0.5,20,6,LH,0.15350318471337585,0.14000000000000004,0.08499999999999999,0.7900000000000005
3,5,10,0,6,0.7900000000000005,5,10,76,49,80,51,17.709999999999845,1.8100000000000014,1.7800000000000014,2.4999999999999907,20,2,5,6,131,15,12,17,4,0,14,6,LH,0.1351908396946565,0.12066666666666667,0.14833333333333337,0.1470588235294118
3,6,11,1,3,0.8700000000000006,2,6,47,46,91,38,15.309999999999738,4.609999999999946,1.9300000000000015,0.8000000000000005,18,11,5,2,112,29,10,10,5,0.5,18,6,LH,0.1366964285714286,0.15896551724137936,0.19300000000000006,0.08
3,6,12,1,9,0.5400000000000003,3,4,62,80,61,74,20.44000000000031,1.480000000000001,0.18000000000000002,2.1299999999999986,20,5,1,8,122,9,1,13,4,0,14,6,LH,0.16754098360655742,0.16444444444444448,0.18000000000000002,0.1638461538461539
3,7,13,1,2,0.35000000000000014,2,4,82,83,74,53,18.9000000000001,1.1700000000000008,0.17,22.080000000000652,20,5,1,17,125,13,1,161,3,0.5,13,6,LH,0.15120000000000003,0.09,0.17,0.13714285714285718
3,7,14,1,9,1.2500000000000009,2,14,61,66,87,68,21.050000000000296,0.5800000000000003,1.400000000000001,0.7400000000000004,20,3,4,4,141,5,13,7,4,0.5,15,6,LH,0.149290780141844,0.116,0.10769230769230771,0.10571428571428573
3,8,15,1,2,0.6700000000000004,3,8,77,73,75,80,14.269999999999754,6.249999999999911,1.5100000000000011,2.2299999999999964,18,17,10,10,97,45,14,17,3,1,36,6,LH,0.14711340206185572,0.13888888888888892,0.10785714285714287,0.1311764705882353
3,8,16,1,7,1.5500000000000012,2,17,94,90,70,95,15.739999999999743,2.5499999999999896,1.2100000000000009,2.389999999999993,20,6,2,6,101,15,8,19,3,0.5,13,6,LH,0.15584158415841587,0.17000000000000004,0.15125000000000002,0.12578947368421053
3,9,17,1,4,0.6100000000000003,2,6,45,71,64,81,17.56999999999985,1.6600000000000013,2.010000000000001,1.0100000000000007,19,4,4,4,115,11,15,8,2,0,16,6,LH,0.15278260869565222,0.15090909090909096,0.134,0.12625000000000003
3,9,18,1,1,1.0500000000000007,2,8,32,34,25,31,16.289999999999722,1.1000000000000008,2.8899999999999824,2.4699999999999913,16,3,10,6,107,10,24,16,5,1,60,6,LH,0.15224299065420563,0.11000000000000001,0.12041666666666669,0.15437500000000004
3,10,19,1,10,0.25000000000000006,2,4,13,23,20,107,28.730000000001652,0.03,1.7000000000000013,3.889999999999961,20,1,7,10,189,1,12,18,6,0.5,20,6,LH,0.15201058201058204,0.03,0.1416666666666667,0.2161111111111112
3,10,20,1,8,0.4200000000000002,2,4,115,109,111,119,14.499999999999744,1.9700000000000015,1.9300000000000015,2.9399999999999813,20,5,6,7,89,12,18,23,2,1,24,6,LH,0.16292134831460678,0.1641666666666667,0.10722222222222223,0.12782608695652176
3,11,21,1,5,1.5900000000000012,2,19,11,9,6,2,14.149999999999778,3.3999999999999715,2.1699999999999977,3.369999999999972,17,6,7,5,70,33,20,22,6,1,72,6,LH,0.2021428571428572,0.10303030303030304,0.10850000000000001,0.15318181818181822
3,11,22,1,8,0.4100000000000002,2,4,16,113,115,114,18.269999999999992,2.1299999999999986,0.25000000000000006,0.5400000000000003,17,5,1,2,93,15,1,2,2,0.5,12,6,LH,0.19645161290322588,0.14200000000000002,0.25000000000000006,0.2700000000000001
3,12,23,1,7,0.9000000000000006,2,9,87,91,85,96,17.599999999999813,3.4899999999999696,2.2299999999999964,0.8000000000000005,20,10,10,3,129,19,18,7,3,1,36,6,LH,0.1364341085271318,0.18368421052631584,0.1238888888888889,0.11428571428571431
3,12,24,1,8,0.7200000000000004,2,7,112,117,18,115,18.599999999999994,0.8600000000000005,0.6300000000000003,4.6399999999999455,20,4,2,9,122,7,3,29,2,0.5,12,6,LH,0.15245901639344267,0.12285714285714286,0.21000000000000008,0.16000000000000003
3,13,25,1,8,0.5100000000000002,2,6,110,113,114,56,17.19999999999981,3.8099999999999627,0.7600000000000005,1.1600000000000008,20,6,2,4,116,33,11,7,2,0.5,10,6,LH,0.14827586206896556,0.11545454545454548,0.06909090909090909,0.16571428571428576
3,13,26,1,2,0.7300000000000004,2,8,100,105,19,13,24.810000000000965,0.18000000000000002,1.8800000000000014,1.1400000000000008,20,2,7,4,166,2,11,9,3,0,16,6,LH,0.14945783132530124,0.09,0.17090909090909095,0.12666666666666668
3,14,27,1,10,0.2900000000000001,2,3,24,98,23,106,12.059999999999794,3.979999999999959,1.7200000000000013,1.5600000000000012,19,12,10,4,87,19,17,14,6,0,16,6,LH,0.13862068965517244,0.2094736842105264,0.10117647058823531,0.11142857142857145
3,14,28,1,3,0.36000000000000015,2,5,43,47,44,41,11.429999999999808,3.659999999999966,1.8800000000000014,11.559999999999798,18,13,6,17,89,27,10,71,5,1,60,6,LH,0.12842696629213485,0.1355555555555556,0.18800000000000006,0.16281690140845076
3,15,29,1,2,0.5200000000000002,2,11,76,21,80,81,18.17999999999996,1.5100000000000011,0.4100000000000002,0.46000000000000024,19,4,2,3,122,10,2,3,3,0.5,15,6,LH,0.149016393442623,0.15100000000000002,0.20500000000000004,0.15333333333333335
3,15,30,1,5,1.2300000000000009,5,15,59,98,6,2,17.039999999999708,2.1699999999999977,1.280000000000001,0.5200000000000002,20,11,5,3,115,15,6,4,6,0,18,6,LH,0.1481739130434783,0.1446666666666667,0.21333333333333337,0.13000000000000003
3,16,31,1,7,0.5600000000000003,3,5,58,51,22,92,14.729999999999743,2.6099999999999883,1.2300000000000009,0.7900000000000005,17,4,4,5,102,18,10,9,3,0,17,6,LH,0.14441176470588238,0.14500000000000005,0.12300000000000001,0.08777777777777777
3,16,32,1,8,0.3100000000000001,2,4,109,120,111,4,15.739999999999716,0.8000000000000005,0.8100000000000005,5.82999999999992,18,3,2,12,102,5,3,47,2,0.5,12,6,LH,0.15431372549019612,0.16000000000000003,0.2700000000000001,0.12404255319148938
3,17,33,1,9,0.7700000000000005,3,6,61,6,64,75,21.280000000000406,1.390000000000001,1.320000000000001,1.1500000000000008,17,3,5,2,156,15,9,4,4,0,17,6,LH,0.13641025641025645,0.09266666666666667,0.1466666666666667,0.2875000000000001
3,17,34,1,7,0.9000000000000006,2,10,91,87,15,93,18.72999999999999,0.8900000000000006,0.5800000000000003,0.46000000000000024,17,2,3,3,142,5,3,4,3,0.5,15,6,LH,0.13190140845070425,0.17800000000000005,0.19333333333333338,0.115
3,18,35,1,6,0.4000000000000002,2,5,54,50,59,13,18.9500000000001,1.1100000000000008,5.899999999999919,1.440000000000001,19,3,11,4,116,10,42,11,4,0.5,18,6,LH,0.16336206896551728,0.11100000000000002,0.1404761904761905,0.13090909090909092
3,18,36,1,2,0.4300000000000002,2,5,83,82,74,70,14.009999999999755,6.839999999999899,0.24000000000000007,0.5600000000000003,17,10,2,1,99,44,3,1,3,0.5,13,6,LH,0.14151515151515154,0.1554545454545455,0.08,0.5600000000000003
4,1,1,0,6,0.48000000000000026,2,5,56,59,60,53,5.679999999999934,0.5400000000000003,0.22000000000000006,0.13999999999999999,10,5,2,2,44,6,4,2,4,1,48,7,LH,0.12909090909090912,0.09000000000000001,0.05499999999999999,0.06999999999999999
4,1,2,0,9,0.45000000000000023,2,7,68,19,13,103,5.069999999999946,2.7299999999999858,0.38000000000000017,0.4100000000000002,6,6,2,2,51,22,5,4,4,0,18,7,LH,0.09941176470588237,0.12409090909090911,0.076,0.10250000000000002
4,2,3,0,10,0.7500000000000004,4,13,101,23,18,17,6.949999999999912,0.8900000000000006,4.4999999999999485,3.5299999999999687,12,5,12,14,69,7,30,32,6,0.5,38,7,LH,0.10072463768115943,0.12714285714285717,0.15000000000000002,0.11031250000000001
4,2,4,0,2,0.9000000000000006,2,11,74,9,84,114,7.319999999999908,0.7700000000000005,0.12999999999999998,2.2699999999999956,15,3,2,7,65,5,2,17,3,0,14,7,LH,0.11261538461538463,0.15400000000000003,0.065,0.1335294117647059
4,3,5,0,9,0.8600000000000005,3,9,10,9,80,63,7.679999999999899,0.7500000000000004,0.26000000000000006,0.5200000000000002,12,3,1,3,72,7,1,5,4,0,19,7,LH,0.10666666666666669,0.10714285714285715,0.26000000000000006,0.10400000000000001
4,3,6,0,8,0.5400000000000003,2,4,110,23,24,18,4.889999999999952,0.8900000000000006,0.5600000000000003,0.5300000000000002,9,3,3,2,35,8,6,4,2,0.5,38,7,LH,0.13971428571428574,0.11125000000000002,0.09333333333333334,0.1325
4,4,7,0,7,0.9200000000000006,2,12,86,93,116,87,5.149999999999955,0.3000000000000001,2.1699999999999977,0.060000000000000005,11,2,6,1,49,3,27,1,3,0.5,20,7,LH,0.10510204081632654,0.09999999999999999,0.08037037037037037,0.060000000000000005
4,4,8,0,5,1.0300000000000007,12,18,11,5,3,74,5.679999999999946,0.8200000000000005,3.379999999999972,0.5900000000000003,17,4,8,3,59,7,23,3,6,0.5,39,7,LH,0.09627118644067797,0.11714285714285716,0.14695652173913046,0.19666666666666668
4,5,9,0,7,0.7800000000000005,2,7,85,13,96,90,4.789999999999959,3.5899999999999674,1.7000000000000013,0.3000000000000001,9,16,8,3,41,29,18,3,3,0.5,24,7,LH,0.11682926829268295,0.12379310344827588,0.09444444444444446,0.1
4,5,10,0,5,0.8000000000000005,2,9,4,1,67,6,3.7499999999999813,3.0799999999999783,0.8400000000000005,0.04,8,8,3,1,35,20,6,1,6,0.5,40,7,LH,0.10714285714285715,0.15400000000000005,0.14000000000000004,0.04
4,6,11,0,6,0.5800000000000003,2,6,51,59,52,49,5.319999999999943,0.5300000000000002,0.10999999999999999,0.5600000000000003,5,4,1,3,43,7,2,3,4,1,48,7,LH,0.12372093023255816,0.07571428571428572,0.05500000000000001,0.18666666666666673
4,6,12,0,4,1.0300000000000007,2,11,98,13,103,104,3.000000000000002,3.3899999999999717,0.9900000000000007,0.9200000000000006,6,8,4,5,20,35,10,10,2,0.5,18,7,LH,0.15000000000000002,0.09685714285714286,0.099,0.09200000000000001
4,7,13,1,8,0.3000000000000001,2,3,117,110,114,12,3.4299999999999775,1.6300000000000012,0.2900000000000001,0.3900000000000002,5,4,2,1,29,18,4,1,2,0.5,12,7,LH,0.11827586206896554,0.09055555555555556,0.0725,0.3900000000000002
4,7,14,1,10,1.9000000000000015,2,26,19,13,17,44,6.4099999999999495,6.509999999999906,1.0900000000000007,0.03,9,15,3,1,65,52,3,1,6,0.5,23,7,LH,0.09861538461538463,0.12519230769230771,0.3633333333333335,0.03
4,8,15,1,9,0.6400000000000003,4,7,66,114,70,4,4.409999999999964,2.8899999999999824,0.6100000000000003,0.060000000000000005,8,7,4,1,41,23,4,1,4,0,16,7,LH,0.10756097560975611,0.1256521739130435,0.15250000000000002,0.060000000000000005
4,8,16,1,4,0.48000000000000026,2,6,99,105,39,50,3.409999999999982,1.7500000000000013,2.769999999999985,0.24000000000000007,8,4,8,1,28,16,31,1,2,0,13,7,LH,0.12178571428571432,0.10937500000000001,0.08935483870967743,0.24000000000000007
4,9,17,1,8,0.8800000000000006,2,11,120,115,12,48,4.099999999999976,1.440000000000001,1.6700000000000013,0.3200000000000001,10,4,4,4,39,16,15,5,2,0,15,7,LH,0.10512820512820514,0.09000000000000001,0.11133333333333334,0.064
4,9,18,1,1,0.6100000000000003,2,7,26,101,81,21,6.539999999999918,0.6400000000000003,0.7500000000000004,0.7700000000000005,7,3,3,3,65,6,3,6,5,0,16,7,LH,0.10061538461538462,0.10666666666666667,0.25000000000000006,0.12833333333333338
4,10,19,1,4,1.360000000000001,3,18,100,44,47,102,4.669999999999974,0.9300000000000006,2.579999999999989,0.8100000000000005,7,6,8,2,39,6,21,13,2,0,14,7,LH,0.11974358974358977,0.15500000000000003,0.12285714285714287,0.06230769230769231
4,10,20,1,6,1.0800000000000007,3,15,50,57,96,120,5.469999999999952,0.6900000000000004,1.2000000000000008,0.060000000000000005,8,3,4,1,50,11,8,1,4,0,13,7,LH,0.10940000000000001,0.06272727272727273,0.15000000000000002,0.060000000000000005
4,11,21,1,2,0.38000000000000017,2,8,76,80,74,84,3.309999999999982,0.37000000000000016,1.5700000000000012,0.6000000000000003,4,3,8,5,38,5,14,5,3,1,36,7,LH,0.08710526315789474,0.074,0.11214285714285716,0.12000000000000004
4,11,22,1,7,0.7900000000000005,2,12,69,93,67,63,6.959999999999914,0.3900000000000002,0.5100000000000002,0.20000000000000004,13,2,2,2,68,4,6,3,3,0.5,15,7,LH,0.1023529411764706,0.0975,0.08499999999999999,0.06666666666666667
4,12,23,1,9,0.8100000000000005,2,7,72,68,65,67,5.649999999999942,0.17,0.7400000000000004,1.320000000000001,12,1,5,6,36,2,7,10,4,1,48,7,LH,0.15694444444444447,0.08499999999999999,0.10571428571428572,0.13200000000000003
4,12,24,1,6,0.9900000000000007,3,11,51,87,55,8,5.209999999999955,0.8000000000000005,0.8200000000000005,1.300000000000001,9,3,6,3,61,4,9,16,4,0,17,7,LH,0.08540983606557379,0.20000000000000007,0.09111111111111111,0.08125
4,13,25,1,1,0.5900000000000003,3,5,18,68,117,69,7.3399999999999,0.36000000000000015,0.26000000000000006,0.10999999999999999,13,2,2,1,54,2,7,1,5,0,16,7,LH,0.13592592592592595,0.18000000000000005,0.037142857142857144,0.10999999999999999
4,13,26,1,4,0.6200000000000003,5,14,99,11,103,3,3.9999999999999725,2.4699999999999913,0.10999999999999999,0.5000000000000002,12,6,2,2,43,20,2,5,2,0,16,7,LH,0.0930232558139535,0.12350000000000001,0.055,0.09999999999999999
4,14,27,1,6,0.20000000000000004,2,6,2,54,59,79,13.729999999999755,0.01,0.01,0.02,20,1,1,1,122,1,1,1,4,0,17,7,LH,0.1125409836065574,0.01,0.01,0.02
4,14,28,1,7,0.5800000000000003,2,4,86,65,85,67,8.109999999999884,0.20000000000000004,0.060000000000000005,0.24000000000000007,15,2,1,3,54,4,1,4,3,0,14,7,LH,0.15018518518518523,0.049999999999999996,0.060000000000000005,0.06
4,15,29,1,7,0.4000000000000002,2,4,70,3,64,85,4.6799999999999535,0.7900000000000005,0.20000000000000004,0.12999999999999998,6,4,1,2,40,6,1,3,3,0,17,7,LH,0.117,0.13166666666666668,0.20000000000000004,0.043333333333333335
4,15,30,1,2,0.6300000000000003,2,5,14,21,18,82,6.01999999999993,0.3200000000000001,1.1500000000000008,1.380000000000001,8,2,4,4,51,3,7,14,3,0.5,21,7,LH,0.11803921568627453,0.10666666666666667,0.16428571428571434,0.09857142857142859
4,16,31,1,9,0.9800000000000006,2,9,118,18,20,84,5.959999999999939,1.1400000000000008,0.47000000000000025,0.21000000000000005,11,4,3,2,55,7,6,4,4,0,17,7,LH,0.10836363636363638,0.1628571428571429,0.07833333333333334,0.052500000000000005
4,16,32,1,4,0.3100000000000001,2,3,7,91,8,103,3.6999999999999718,0.7600000000000005,1.340000000000001,0.49000000000000027,7,5,5,4,30,7,7,9,2,0,17,7,LH,0.12333333333333336,0.10857142857142861,0.19142857142857148,0.054444444444444455
4,17,33,1,7,0.46000000000000024,2,6,94,113,111,14,3.4599999999999804,3.0199999999999796,4.299999999999953,1.8300000000000014,10,11,12,8,31,31,41,10,3,0,13,7,LH,0.11161290322580647,0.09741935483870968,0.10487804878048781,0.18300000000000005
4,17,34,1,4,0.5400000000000003,2,4,100,36,11,83,4.739999999999955,2.8799999999999826,0.05,0.3100000000000001,9,10,1,2,34,25,1,3,2,0,16,7,LH,0.13941176470588237,0.11520000000000001,0.05,0.10333333333333333
4,18,35,1,5,1.0400000000000007,2,7,74,3,80,25,6.339999999999932,0.25000000000000006,0.24000000000000007,0.6600000000000004,8,1,1,3,57,1,1,6,6,0,17,7,LH,0.1112280701754386,0.25000000000000006,0.24000000000000007,0.11
4,18,36,1,3,0.34000000000000014,2,3,48,42,45,110,3.3899999999999793,0.5700000000000003,0.6100000000000003,0.35000000000000014,7,3,3,3,32,7,3,4,5,0.5,17,7,LH,0.1059375,0.08142857142857143,0.2033333333333334,0.0875
4,19,37,1,3,0.26000000000000006,2,3,100,39,90,43,3.369999999999978,0.5900000000000003,0.5700000000000003,0.24000000000000007,6,2,2,2,34,7,3,7,5,0,15,7,LH,0.09911764705882355,0.0842857142857143,0.19000000000000009,0.03428571428571429
4,19,38,1,8,0.5200000000000002,2,11,109,76,110,84,5.119999999999947,2.249999999999996,0.18000000000000002,0.05,8,6,2,1,57,15,3,1,2,0,10,7,LH,0.08982456140350878,0.15000000000000002,0.06,0.05
4,20,39,1,6,0.6500000000000004,2,9,58,51,73,54,3.629999999999981,0.9100000000000006,0.4300000000000002,0.38000000000000017,4,3,4,3,43,7,6,3,4,0.5,15,7,LH,0.0844186046511628,0.13000000000000003,0.07166666666666667,0.12666666666666668
4,20,40,1,7,0.9700000000000006,2,16,93,86,66,94,3.9399999999999813,1.450000000000001,0.4200000000000002,1.470000000000001,6,8,3,8,33,19,3,12,3,0.5,13,7,LH,0.11939393939393943,0.07631578947368423,0.14000000000000004,0.12250000000000001
4,21,41,1,5,0.8100000000000005,3,15,4,2,55,97,5.71999999999994,5.169999999999934,0.09999999999999999,0.01,12,11,2,1,64,44,3,1,6,0,18,7,LH,0.08937500000000001,0.11750000000000002,0.03333333333333333,0.01
4,21,42,1,10,0.5900000000000003,5,13,63,31,87,115,5.279999999999944,1.470000000000001,0.7800000000000005,0.18000000000000002,9,5,4,2,59,11,9,2,6,0,14,7,LH,0.08949152542372882,0.13363636363636366,0.08666666666666667,0.09
5,1,1,0,2,0.5500000000000003,2,12,79,76,10,6,2.290000000000002,1.2200000000000009,0.18000000000000002,0.6800000000000004,10,12,4,7,66,31,6,11,3,0,18,7,LH,0.0346969696969697,0.039354838709677424,0.03,0.061818181818181814
5,1,2,0,10,0.6600000000000004,3,23,22,20,104,88,1.9600000000000013,0.4200000000000002,1.0700000000000007,0.5300000000000002,5,6,12,8,55,16,33,11,6,0,17,7,LH,0.03563636363636364,0.026250000000000002,0.032424242424242425,0.04818181818181819
5,2,3,0,1,0.7500000000000004,2,22,25,83,18,27,2.2000000000000015,1.0200000000000007,0.13999999999999999,0.02,7,7,5,1,55,20,8,1,5,0,19,7,LH,0.04,0.051000000000000004,0.0175,0.02
5,2,4,0,5,0.7000000000000004,2,20,6,3,7,97,2.0200000000000014,1.500000000000001,0.04,0.03,5,13,3,1,48,33,3,1,6,0.5,38,7,LH,0.042083333333333334,0.045454545454545456,0.013333333333333334,0.03
5,3,5,0,9,0.6100000000000003,2,20,4,61,41,67,3.0799999999999916,0.02,0.17,0.03,12,1,4,1,73,1,7,1,4,0,19,7,LH,0.04219178082191781,0.02,0.024285714285714285,0.03
5,3,6,0,6,0.8100000000000005,3,20,49,25,30,33,1.9200000000000013,1.0400000000000007,0.13999999999999999,0.12999999999999998,11,6,2,3,46,22,3,4,4,0.5,34,7,LH,0.04173913043478261,0.04727272727272727,0.04666666666666667,0.0325
5,4,7,0,1,0.5400000000000003,2,9,33,30,4,35,2.3600000000000017,0.18000000000000002,0.49000000000000027,0.04,14,3,6,1,57,7,13,1,5,0.5,36,7,LH,0.041403508771929824,0.025714285714285717,0.03769230769230769,0.04
5,4,8,0,10,0.8900000000000006,3,30,21,15,17,20,1.9500000000000013,0.5100000000000002,0.45000000000000023,1.9300000000000015,6,2,4,15,56,12,9,52,6,1,72,7,LH,0.03482142857142857,0.042499999999999996,0.05,0.03711538461538461
5,5,9,0,1,1.1200000000000008,2,41,30,73,83,27,2.0500000000000016,0.8700000000000006,0.45000000000000023,0.23000000000000007,7,9,7,4,69,22,15,9,5,0,16,7,LH,0.029710144927536233,0.03954545454545454,0.03,0.025555555555555557
5,5,10,0,4,0.5500000000000003,2,14,98,104,105,103,3.419999999999983,0.4200000000000002,0.17,0.060000000000000005,13,8,4,3,94,15,5,3,2,1,24,7,LH,0.036382978723404256,0.028,0.033999999999999996,0.02
5,6,11,0,7,0.6400000000000003,3,15,86,43,42,95,1.8300000000000012,0.8700000000000006,0.15,0.10999999999999999,9,3,2,3,55,21,3,5,3,0,16,7,LH,0.03327272727272727,0.041428571428571426,0.05,0.022
5,6,12,0,4,0.6300000000000003,2,18,103,102,74,73,2.2300000000000013,0.4300000000000002,0.2900000000000001,0.16,13,7,4,4,60,15,7,6,2,0,10,7,LH,0.03716666666666667,0.028666666666666667,0.041428571428571426,0.02666666666666667
5,7,13,1,6,0.5500000000000003,2,19,60,56,36,26,2.030000000000001,0.7600000000000005,0.3000000000000001,0.16,11,10,5,3,52,21,12,3,4,0,18,7,LH,0.03903846153846154,0.03619047619047619,0.025,0.05333333333333334
5,7,14,1,7,0.7200000000000004,3,24,95,97,105,8,1.9800000000000013,0.8000000000000005,0.22000000000000006,0.24000000000000007,11,6,2,3,53,25,5,5,3,0,13,7,LH,0.03735849056603774,0.032,0.044,0.047999999999999994
5,8,15,1,9,0.7900000000000005,3,22,68,71,62,99,2.660000000000002,0.35000000000000014,0.12999999999999998,0.12999999999999998,11,4,2,2,62,9,4,4,4,0.5,14,7,LH,0.04290322580645161,0.03888888888888889,0.0325,0.0325
5,8,16,1,6,0.6100000000000003,3,11,55,49,95,32,2.2400000000000015,0.45000000000000023,0.6300000000000003,0.5500000000000003,7,2,8,9,48,14,16,12,4,0,16,7,LH,0.04666666666666667,0.03214285714285714,0.039375,0.04583333333333334
5,9,17,1,4,1.0100000000000007,2,36,105,51,57,54,2.530000000000002,0.6000000000000003,0.26000000000000006,0.04,7,6,2,1,76,18,8,1,2,0.5,14,7,LH,0.03328947368421053,0.03333333333333333,0.0325,0.04
5,9,18,1,10,0.6500000000000004,3,22,24,14,18,64,1.9300000000000013,0.6200000000000003,0.07,1.1600000000000008,5,5,2,11,54,18,3,27,6,0.5,22,7,LH,0.03574074074074074,0.034444444444444444,0.023333333333333334,0.04296296296296297
5,10,19,1,4,0.3000000000000001,2,3,102,97,73,104,1.9400000000000013,0.23000000000000007,0.35000000000000014,0.16,7,3,8,3,40,5,13,5,2,0.5,9,7,LH,0.0485,0.046000000000000006,0.026923076923076925,0.032
5,10,20,1,3,0.5300000000000002,2,17,41,37,44,51,1.7900000000000011,0.19000000000000003,0.36000000000000015,0.36000000000000015,4,2,5,5,49,3,14,11,5,0.5,19,7,LH,0.03653061224489796,0.06333333333333332,0.025714285714285714,0.03272727272727273
5,11,21,1,5,0.49000000000000027,2,21,11,29,74,9,1.690000000000001,0.6100000000000003,0.3000000000000001,0.08,6,2,3,2,45,15,5,3,6,0,20,7,LH,0.03755555555555556,0.040666666666666663,0.060000000000000005,0.026666666666666665
5,11,22,1,7,0.5100000000000002,2,14,93,96,92,87,1.9600000000000013,0.4100000000000002,0.4400000000000002,0.13999999999999999,8,4,5,2,60,12,9,3,3,1,36,7,LH,0.03266666666666667,0.034166666666666665,0.04888888888888889,0.04666666666666666
5,12,23,1,10,0.7700000000000005,2,23,20,16,59,101,1.8400000000000012,0.7800000000000005,0.5100000000000002,0.3100000000000001,7,2,7,8,47,26,21,12,6,0,18,7,LH,0.03914893617021277,0.030000000000000002,0.024285714285714285,0.025833333333333333
5,12,24,1,8,1.1800000000000008,13,30,109,2,31,111,1.9800000000000013,0.6300000000000003,0.2900000000000001,0.05,15,4,3,1,57,20,8,1,2,0,15,7,LH,0.034736842105263156,0.0315,0.03625,0.05
5,13,25,1,9,0.5200000000000002,2,8,70,66,61,71,1.9800000000000013,0.04,0.3300000000000001,0.3200000000000001,4,1,6,6,53,1,10,9,4,1,48,7,LH,0.03735849056603774,0.04,0.033,0.035555555555555556
5,13,26,1,6,0.6200000000000003,2,16,54,52,27,49,1.710000000000001,0.3900000000000002,0.5700000000000003,0.12999999999999998,7,2,7,2,52,11,14,6,4,0.5,17,7,LH,0.03288461538461539,0.035454545454545454,0.04071428571428572,0.021666666666666667
5,14,27,1,7,0.7900000000000005,2,24,89,90,60,85,2.1900000000000013,0.25000000000000006,0.3300000000000001,0.26000000000000006,9,4,4,4,68,8,7,8,3,0.5,13,7,LH,0.032205882352941174,0.03125,0.047142857142857146,0.0325
5,14,28,1,4,0.37000000000000016,3,10,108,97,2,12,1.4500000000000008,0.35000000000000014,0.7100000000000004,0.05,5,3,5,1,35,11,28,1,2,0,16,7,LH,0.041428571428571426,0.03181818181818182,0.02535714285714286,0.05
5,15,29,1,4,0.6800000000000004,2,16,102,59,107,106,1.9600000000000013,0.5100000000000002,0.22000000000000006,0.36000000000000015,6,5,3,6,46,14,6,9,2,0.5,10,7,LH,0.042608695652173914,0.03642857142857143,0.03666666666666667,0.04
5,15,30,1,9,0.36000000000000015,3,8,71,29,66,112,1.8900000000000012,0.5100000000000002,0.09999999999999999,0.2700000000000001,6,6,2,4,42,18,3,7,4,0,15,7,LH,0.045,0.028333333333333335,0.03333333333333333,0.03857142857142857
5,16,31,1,8,0.7800000000000005,6,22,54,111,109,112,3.7499999999999813,0.22000000000000006,0.09999999999999999,0.3000000000000001,19,5,2,6,91,7,2,8,2,0.5,10,7,LH,0.04120879120879121,0.03142857142857143,0.05,0.0375
5,16,32,1,2,0.47000000000000025,2,11,79,76,78,81,1.2900000000000007,0.6400000000000003,0.21000000000000005,0.36000000000000015,8,3,2,5,27,20,5,12,3,1,36,7,LH,0.04777777777777778,0.032,0.042,0.03
5,17,33,1,9,0.6800000000000004,5,18,64,1,63,84,2.3000000000000016,0.3000000000000001,0.18000000000000002,0.12999999999999998,7,3,3,3,60,9,4,4,4,0,17,7,LH,0.03833333333333334,0.03333333333333333,0.045,0.0325
5,17,34,1,6,0.2700000000000001,2,9,50,31,55,25,1.640000000000001,0.5000000000000002,0.09999999999999999,0.23000000000000007,5,6,3,3,42,14,3,4,4,0,18,7,LH,0.039047619047619046,0.03571428571428571,0.03333333333333333,0.0575
5,18,35,1,5,0.5600000000000003,2,14,50,6,2,33,2.410000000000002,0.4200000000000002,0.060000000000000005,0.5800000000000003,9,6,2,9,63,8,2,18,6,0,21,7,LH,0.038253968253968255,0.0525,0.030000000000000002,0.03222222222222222
5,18,36,1,2,0.2900000000000001,2,5,75,16,77,22,1.4900000000000009,0.8700000000000006,0.02,0.7700000000000005,6,7,1,11,31,32,1,16,3,0,18,7,LH,0.04806451612903226,0.0271875,0.02,0.048125
5,19,37,1,8,0.46000000000000024,2,15,1,40,44,114,3.5499999999999785,0.21000000000000005,0.04,0.01,15,5,1,1,84,5,1,1,2,0,18,7,LH,0.04226190476190476,0.041999999999999996,0.04,0.01
5,19,38,1,1,0.7200000000000004,4,23,101,34,32,27,2.2200000000000015,0.13999999999999999,0.24000000000000007,0.05,7,4,2,1,58,6,11,1,5,0.5,17,7,LH,0.038275862068965515,0.023333333333333334,0.02181818181818182,0.05
5,20,39,1,5,0.46000000000000024,2,10,7,6,42,108,1.7900000000000011,2.9699999999999807,0.01,0.01,4,15,1,1,44,85,1,1,6,0,19,7,LH,0.04068181818181818,0.03494117647058823,0.01,0.01
5,20,40,1,7,0.8600000000000005,2,20,110,96,85,21,2.5900000000000016,0.08,0.5400000000000003,0.03,9,2,3,1,61,4,23,1,3,0,14,7,LH,0.04245901639344263,0.02,0.02347826086956522,0.03
5,21,41,1,4,0.5300000000000002,5,16,98,99,104,14,1.9100000000000013,0.24000000000000007,0.26000000000000006,0.23000000000000007,7,4,4,2,57,9,9,6,2,0.5,12,7,LH,0.033508771929824564,0.02666666666666667,0.028888888888888888,0.03833333333333334
5,21,42,1,7,0.8800000000000006,2,29,89,3,8,38,2.2600000000000016,0.5800000000000003,0.36000000000000015,0.21000000000000005,5,2,5,4,69,19,7,4,3,0,20,7,LH,0.0327536231884058,0.030526315789473686,0.05142857142857143,0.0525
5,22,43,1,1,0.5000000000000002,2,11,28,30,4,12,2.1200000000000014,0.07,0.24000000000000007,0.12999999999999998,4,2,2,2,52,3,7,3,5,0,22,7,LH,0.04076923076923077,0.02333333333333333,0.03428571428571429,0.043333333333333335
5,22,44,1,7,0.8400000000000005,5,22,86,91,38,39,2.4700000000000015,0.34000000000000014,0.09999999999999999,0.24000000000000007,9,5,3,3,58,15,5,9,3,0,16,7,LH,0.04258620689655172,0.02266666666666667,0.02,0.02666666666666667
6,1,1,0,9,0.5600000000000003,2,10,68,41,114,66,1.510000000000001,1.490000000000001,0.11999999999999998,0.04,6,9,1,2,20,16,1,2,4,0,15,7,LH,0.0755,0.09312500000000001,0.11999999999999998,0.02
6,1,2,0,4,0.6100000000000003,2,8,104,94,11,10,2.789999999999998,0.23000000000000007,0.7700000000000005,1.360000000000001,12,2,8,9,36,2,8,15,2,0,17,7,LH,0.07750000000000001,0.115,0.09625,0.09066666666666667
6,2,3,0,6,0.5400000000000003,2,7,39,50,119,41,2.809999999999996,0.060000000000000005,0.07,0.11999999999999998,13,2,1,2,37,2,1,2,4,0,16,7,LH,0.07594594594594595,0.030000000000000002,0.07,0.060000000000000005
6,2,4,0,1,0.4300000000000002,2,9,34,65,67,1,1.8600000000000012,0.8600000000000005,0.2700000000000001,0.26000000000000006,9,6,5,4,29,13,7,4,5,0,19,7,LH,0.06413793103448276,0.06615384615384615,0.038571428571428576,0.065
6,3,5,0,8,0.8000000000000005,2,9,48,109,112,52,3.1799999999999935,0.03,0.2800000000000001,0.060000000000000005,14,1,6,2,33,1,8,3,2,0,13,7,LH,0.09636363636363636,0.03,0.035,0.02
6,3,6,0,2,0.5400000000000003,2,9,73,77,12,79,2.0900000000000016,0.3000000000000001,0.35000000000000014,0.04,7,3,6,1,25,3,7,1,3,0.5,24,7,LH,0.08360000000000001,0.1,0.05,0.04
6,4,7,0,2,0.7000000000000004,2,9,80,117,84,77,2.8699999999999983,0.09999999999999999,0.25000000000000006,0.03,17,1,5,2,40,1,6,3,3,0.5,20,7,LH,0.07175000000000001,0.09999999999999999,0.041666666666666664,0.01
6,4,8,0,1,0.7000000000000004,2,15,30,26,23,20,2.580000000000002,0.2800000000000001,1.0900000000000007,0.2700000000000001,14,6,10,4,41,6,14,5,5,0,22,7,LH,0.06292682926829268,0.04666666666666667,0.07785714285714286,0.054
6,5,9,0,6,0.34000000000000014,2,3,55,49,47,23,1.8500000000000012,0.16,0.16,1.1300000000000008,8,1,2,9,15,1,2,15,4,0,19,7,LH,0.12333333333333335,0.16,0.07999999999999999,0.07533333333333334
6,5,10,0,1,0.5100000000000002,6,10,30,26,35,113,2.1300000000000017,0.12999999999999998,0.07,0.4100000000000002,13,2,1,6,38,4,2,7,5,0.5,32,7,LH,0.05605263157894737,0.0325,0.035,0.058571428571428566
6,6,11,0,2,0.5400000000000003,2,8,79,25,8,3,1.710000000000001,0.7200000000000004,0.47000000000000025,0.3100000000000001,7,3,2,4,20,8,2,5,3,0,20,7,LH,0.0855,0.09,0.23500000000000004,0.062
6,6,12,0,8,0.8800000000000006,2,17,112,19,48,37,2.0600000000000014,0.6300000000000003,0.4400000000000002,0.060000000000000005,12,4,3,1,39,9,6,1,2,0,18,7,LH,0.05282051282051282,0.06999999999999999,0.07333333333333333,0.060000000000000005
6,7,13,1,2,0.5000000000000002,4,13,83,73,36,4,2.0600000000000014,0.13999999999999999,0.13999999999999999,0.11999999999999998,10,1,1,1,29,1,1,1,3,0,17,7,LH,0.07103448275862069,0.13999999999999999,0.13999999999999999,0.11999999999999998
6,7,14,1,6,0.6200000000000003,4,11,56,111,58,18,1.8100000000000012,0.9000000000000006,0.08,0.3300000000000001,6,5,1,5,25,16,1,7,4,0,16,7,LH,0.0724,0.056249999999999994,0.08,0.047142857142857146
6,8,15,1,1,0.6900000000000004,2,6,27,36,74,78,2.819999999999999,0.08,0.20000000000000004,0.07,12,1,1,2,41,1,1,2,5,0,16,7,LH,0.06878048780487805,0.08,0.20000000000000004,0.035
6,8,16,1,7,0.8700000000000006,3,18,20,93,48,91,3.1799999999999953,0.060000000000000005,0.04,0.01,15,2,1,1,54,2,1,1,3,0,17,7,LH,0.058888888888888886,0.03,0.04,0.01
6,9,17,1,2,0.5300000000000002,2,3,17,73,23,84,1.8500000000000012,0.5600000000000003,0.11999999999999998,0.09999999999999999,6,6,2,4,23,9,2,4,3,0,18,7,LH,0.08043478260869566,0.06222222222222222,0.060000000000000005,0.025
6,9,18,1,4,0.8100000000000005,4,15,101,102,108,107,2.0900000000000016,0.34000000000000014,1.2300000000000009,0.02,9,4,11,1,31,9,21,1,2,1,24,7,LH,0.06741935483870969,0.03777777777777778,0.05857142857142857,0.02
6,10,19,1,6,0.3300000000000001,3,4,58,80,12,59,1.3100000000000007,0.5800000000000003,0.3300000000000001,0.09999999999999999,6,2,1,2,14,7,1,3,4,0,17,7,LH,0.09357142857142858,0.08285714285714287,0.3300000000000001,0.03333333333333333
6,10,20,1,9,0.6600000000000004,4,10,61,62,63,19,2.2800000000000016,0.3200000000000001,0.13999999999999999,0.26000000000000006,10,5,3,3,31,5,3,6,4,0.5,18,7,LH,0.07354838709677419,0.064,0.04666666666666666,0.043333333333333335
6,11,21,1,9,0.5600000000000003,3,11,22,19,34,85,1.8500000000000012,0.36000000000000015,0.4200000000000002,0.4200000000000002,7,5,4,5,36,6,7,5,4,0,20,7,LH,0.051388888888888894,0.06,0.06,0.08400000000000002
6,11,22,1,8,0.7900000000000005,2,18,116,4,59,10,1.520000000000001,1.7400000000000013,0.03,0.18000000000000002,5,14,1,3,28,27,1,3,2,0,18,7,LH,0.054285714285714284,0.06444444444444446,0.03,0.06
6,12,23,1,9,0.7000000000000004,3,9,73,35,78,70,2.3200000000000016,0.47000000000000025,0.05,0.07,8,4,1,1,34,8,1,1,4,0,15,7,LH,0.06823529411764706,0.05875,0.05,0.07
6,12,24,1,3,0.5200000000000002,4,11,42,114,8,88,1.3900000000000008,1.0700000000000007,0.21000000000000005,0.09999999999999999,10,6,2,1,26,11,2,1,5,0,16,7,LH,0.05346153846153846,0.09727272727272729,0.10500000000000001,0.09999999999999999
6,13,25,1,4,0.3900000000000002,4,6,108,18,98,97,1.8000000000000012,0.4100000000000002,0.09,0.46000000000000024,10,3,1,4,26,6,1,6,2,0.5,12,7,LH,0.06923076923076923,0.06833333333333333,0.09,0.07666666666666666
6,13,26,1,1,0.7100000000000004,9,17,36,12,74,7,1.8400000000000012,0.25000000000000006,0.46000000000000024,0.07,14,2,4,1,35,4,7,1,5,0,20,7,LH,0.05257142857142857,0.0625,0.06571428571428571,0.07
6,14,27,1,2,0.6100000000000003,3,9,77,76,83,105,1.9600000000000013,0.13999999999999999,0.9700000000000006,0.21000000000000005,12,2,10,4,32,3,15,6,3,0.5,11,7,LH,0.06125,0.04666666666666667,0.06466666666666666,0.034999999999999996
6,14,28,1,8,0.6600000000000004,3,11,117,118,112,42,2.2000000000000015,0.4100000000000002,0.13999999999999999,0.5700000000000003,11,3,2,7,30,5,3,9,2,0.5,11,7,LH,0.07333333333333333,0.082,0.04666666666666667,0.06333333333333334
6,15,29,1,4,0.9600000000000006,5,16,44,106,41,54,2.490000000000002,0.5400000000000003,0.07,0.17,8,5,2,2,34,8,2,2,2,0,16,7,LH,0.07323529411764707,0.0675,0.035,0.08499999999999999
6,15,30,1,1,0.4000000000000002,5,9,31,32,111,73,2.2100000000000017,0.09,0.49000000000000027,0.10999999999999999,14,2,6,3,34,3,7,3,5,0,15,7,LH,0.065,0.030000000000000002,0.07,0.03666666666666667
6,16,31,1,10,0.36000000000000015,3,8,20,34,27,18,1.680000000000001,0.6400000000000003,0.3300000000000001,0.8100000000000005,8,6,4,10,18,11,5,14,6,0,22,7,LH,0.09333333333333335,0.05818181818181818,0.06599999999999999,0.057857142857142864
6,16,32,1,5,0.4200000000000002,2,8,1,10,53,118,1.9300000000000013,0.5700000000000003,0.09,0.17,8,6,1,2,25,10,2,3,6,0,18,7,LH,0.0772,0.056999999999999995,0.045,0.05666666666666666
6,17,33,1,2,0.2900000000000001,2,7,80,82,84,97,1.2500000000000007,0.23000000000000007,0.5100000000000002,0.6400000000000003,5,2,3,3,23,3,11,9,3,0.5,11,7,LH,0.05434782608695652,0.07666666666666667,0.046363636363636364,0.07111111111111111
6,17,34,1,7,0.5900000000000003,2,9,87,86,114,120,1.7700000000000011,0.46000000000000024,0.6900000000000004,0.08,7,3,4,2,29,11,4,3,3,0,10,7,LH,0.06103448275862069,0.04181818181818182,0.17250000000000004,0.02666666666666667
6,18,35,1,4,0.10999999999999999,2,2,1,40,90,12,4.5799999999999494,0.02,0.01,0.02,18,2,1,1,56,2,1,1,2,0,20,7,LH,0.0817857142857143,0.01,0.01,0.02
6,18,36,1,1,0.5900000000000003,2,12,34,77,69,65,1.3700000000000008,1.1500000000000008,0.3900000000000002,0.11999999999999998,4,3,5,2,18,20,8,3,5,0,16,7,LH,0.07611111111111113,0.0575,0.04875,0.04
6,19,37,1,3,0.6900000000000004,2,14,67,62,47,71,2.2100000000000017,0.6300000000000003,0.05,0.09,9,6,1,2,35,7,1,2,5,0.5,17,7,LH,0.06314285714285715,0.09,0.05,0.045000000000000005
6,19,38,1,10,0.22000000000000006,3,4,13,16,27,15,1.630000000000001,0.2700000000000001,0.4300000000000002,0.34000000000000014,5,2,4,5,25,3,8,5,6,0.5,23,7,LH,0.0652,0.09,0.05375,0.068
6,20,39,1,5,0.7500000000000004,2,13,12,69,82,79,2.2700000000000014,0.5300000000000002,0.20000000000000004,0.16,13,6,3,3,33,6,3,3,6,0,16,7,LH,0.06878787878787879,0.08833333333333335,0.06666666666666667,0.05333333333333333
6,20,40,1,10,0.6000000000000003,2,12,22,17,20,98,2.6400000000000006,0.13999999999999999,5.34999999999993,0.01,12,2,18,1,38,2,63,1,6,0.5,20,7,LH,0.06947368421052633,0.07,0.08492063492063492,0.01
6,21,41,1,6,0.6700000000000004,2,15,83,77,78,58,1.9900000000000013,0.20000000000000004,0.08,0.09,7,2,2,1,39,4,2,1,4,0.5,13,7,LH,0.05102564102564103,0.05,0.04,0.09
6,21,42,1,9,0.5200000000000002,3,10,112,44,43,1,2.3400000000000016,0.22000000000000006,0.21000000000000005,0.21000000000000005,9,3,2,3,24,4,2,3,4,0,18,7,LH,0.0975,0.05499999999999999,0.10500000000000001,0.06999999999999999
6,22,43,1,9,0.5200000000000002,2,11,77,70,78,76,2.5600000000000005,0.2700000000000001,0.12999999999999998,0.03,11,5,2,1,28,7,3,1,4,0.5,13,7,LH,0.09142857142857144,0.038571428571428576,0.043333333333333335,0.03
6,22,44,1,7,0.4200000000000002,4,9,90,94,95,52,1.9900000000000013,0.09999999999999999,0.35000000000000014,0.20000000000000004,9,1,4,2,35,1,8,3,3,0.5,13,7,LH,0.05685714285714286,0.09999999999999999,0.04375,0.06666666666666667
7,1,1,0,7,1.0600000000000007,2,23,91,98,100,96,2.4000000000000017,1.8000000000000014,0.11999999999999998,0.2900000000000001,5,7,2,6,56,39,3,11,3,0,10,7,LH,0.04285714285714286,0.046153846153846156,0.039999999999999994,0.026363636363636363
7,1,2,0,10,0.9500000000000006,3,28,18,17,15,42,2.800000000000002,0.4400000000000002,1.8400000000000014,0.09,5,4,13,3,80,15,43,4,6,0.5,41,7,LH,0.035,0.029333333333333333,0.04279069767441861,0.0225
7,2,3,0,6,1.0500000000000007,2,23,51,60,100,102,3.0100000000000025,0.6900000000000004,0.35000000000000014,0.19000000000000003,12,7,3,3,67,13,8,7,4,0,12,7,LH,0.04492537313432836,0.05307692307692308,0.04375,0.027142857142857146
7,2,4,0,8,0.7300000000000004,2,18,119,112,96,94,2.640000000000002,1.1100000000000008,0.17,0.3200000000000001,6,9,3,5,60,33,5,9,2,0,10,7,LH,0.044000000000000004,0.03363636363636364,0.033999999999999996,0.035555555555555556
7,3,5,0,9,1.1200000000000008,2,27,70,61,88,62,2.4600000000000017,1.1600000000000008,0.20000000000000004,0.19000000000000003,6,3,2,3,59,32,5,7,4,0.5,27,7,LH,0.04169491525423729,0.03625,0.04,0.027142857142857142
7,3,6,0,5,0.8300000000000005,2,29,10,5,115,110,2.2300000000000013,0.3900000000000002,1.6300000000000012,0.5900000000000003,4,3,5,7,61,9,45,18,6,0,16,7,LH,0.03655737704918033,0.043333333333333335,0.036222222222222225,0.03277777777777778
7,4,7,0,5,0.7100000000000004,2,15,11,8,4,7,2.4200000000000017,0.7900000000000005,0.2900000000000001,0.4000000000000002,4,8,5,3,57,25,11,8,6,1,72,7,LH,0.04245614035087719,0.0316,0.026363636363636363,0.05
7,4,8,0,7,0.2800000000000001,2,13,13,96,104,106,5.039999999999943,0.01,0.01,0.04,10,1,1,2,130,1,1,2,3,0,13,7,LH,0.03876923076923077,0.01,0.01,0.02
7,5,9,0,9,1.0900000000000007,2,24,63,10,12,66,2.920000000000002,0.18000000000000002,2.1399999999999983,0.01,11,2,12,1,68,4,52,1,4,0,20,7,LH,0.04294117647058823,0.045,0.04115384615384615,0.01
7,5,10,0,7,1.1500000000000008,2,30,87,86,14,92,3.1700000000000017,1.1800000000000008,0.3200000000000001,0.2800000000000001,9,2,4,7,82,32,8,9,3,0.5,24,7,LH,0.03865853658536585,0.036875,0.04,0.03111111111111111
7,6,11,0,7,0.9500000000000006,2,32,90,43,72,45,2.540000000000002,1.7600000000000013,0.060000000000000005,0.19000000000000003,4,5,1,3,76,44,1,5,3,0,17,7,LH,0.03342105263157895,0.04,0.060000000000000005,0.038
7,6,12,0,1,0.6900000000000004,2,21,26,29,25,33,2.730000000000001,0.2800000000000001,0.5000000000000002,0.5300000000000002,12,2,7,6,73,11,15,10,5,1,60,7,LH,0.0373972602739726,0.025454545454545455,0.03333333333333333,0.053
7,7,13,1,10,0.16,2,7,14,19,114,109,2.2399999999999998,0.4200000000000002,0.6000000000000003,0.09999999999999999,4,4,5,2,58,13,15,3,6,0,16,7,LH,0.038620689655172416,0.03230769230769231,0.04,0.03333333333333333
7,7,14,1,6,0.8600000000000005,2,13,56,45,42,48,2.820000000000002,0.6300000000000003,0.19000000000000003,0.19000000000000003,5,3,3,5,57,20,5,7,4,0.5,19,7,LH,0.049473684210526316,0.0315,0.038,0.027142857142857146
7,8,15,1,4,0.5300000000000002,2,15,97,106,52,51,2.61,0.3100000000000001,0.9500000000000006,0.2700000000000001,4,4,7,5,67,11,32,8,2,0,12,7,LH,0.038955223880597016,0.028181818181818183,0.0296875,0.03375
7,8,16,1,2,1.1600000000000008,2,34,76,75,17,109,2.4800000000000018,1.0900000000000007,0.8100000000000005,0.07,5,3,6,1,63,29,29,1,3,0,14,7,LH,0.03936507936507937,0.037586206896551726,0.02793103448275862,0.07
7,9,17,1,10,0.8900000000000006,4,27,17,16,20,64,2.5500000000000016,3.799999999999963,0.38000000000000017,0.01,6,16,9,1,64,79,15,1,6,0.5,22,7,LH,0.03984375,0.04810126582278481,0.025333333333333333,0.01
7,9,18,1,1,0.9800000000000006,2,25,33,26,89,90,2.5900000000000016,0.8700000000000006,0.8000000000000005,0.09,4,4,2,2,71,22,17,3,5,0,16,7,LH,0.03647887323943662,0.03954545454545454,0.047058823529411764,0.030000000000000002
7,10,19,1,8,0.3300000000000001,2,9,115,25,30,110,2.0900000000000016,0.9200000000000006,0.37000000000000016,0.05,5,2,2,2,51,24,9,2,2,0,14,7,LH,0.04098039215686274,0.03833333333333333,0.04111111111111111,0.025
7,10,20,1,3,0.5900000000000003,2,11,43,48,40,14,2.809999999999997,0.36000000000000015,0.48000000000000026,0.10999999999999999,4,2,5,2,69,13,10,2,5,0.5,21,7,LH,0.04072463768115942,0.027692307692307693,0.048,0.055
7,11,21,1,6,1.0600000000000007,2,27,55,51,32,54,2.980000000000002,0.6700000000000004,0.7200000000000004,0.24000000000000007,6,3,8,6,87,16,15,9,4,0.5,17,7,LH,0.03425287356321839,0.041875,0.048,0.02666666666666667
7,11,22,1,9,1.1300000000000008,2,32,63,79,6,82,2.950000000000002,1.400000000000001,0.19000000000000003,0.2800000000000001,5,4,4,2,78,31,6,3,4,0,16,7,LH,0.03782051282051282,0.04516129032258065,0.03166666666666667,0.09333333333333335
7,12,23,1,4,1.1000000000000008,4,30,103,101,53,97,2.4700000000000015,1.2500000000000009,0.4400000000000002,0.25000000000000006,7,4,2,4,66,33,7,9,2,0.5,10,7,LH,0.03742424242424242,0.03787878787878788,0.06285714285714286,0.02777777777777778
7,12,24,1,2,0.8000000000000005,4,18,84,78,65,66,2.830000000000001,0.3900000000000002,0.5600000000000003,0.05,11,5,3,1,62,13,16,1,3,0,14,7,LH,0.04564516129032258,0.030000000000000002,0.035,0.05
7,13,25,1,4,0.6300000000000003,2,11,106,100,101,58,2.9099999999999957,0.6200000000000003,0.04,0.2900000000000001,7,5,1,3,69,14,1,5,2,0.5,10,7,LH,0.04217391304347826,0.04428571428571429,0.04,0.05800000000000001
7,13,26,1,8,0.35000000000000014,6,9,11,109,96,45,5.949999999999926,0.01,0.04,0.02,20,1,2,2,154,1,2,2,2,0,16,7,LH,0.038636363636363635,0.01,0.02,0.01
7,14,27,1,3,0.7200000000000004,3,26,92,46,41,44,3.3899999999999872,0.05,0.17,0.08,11,1,2,3,93,2,3,3,5,0.5,18,7,LH,0.03645161290322581,0.025,0.05666666666666667,0.02666666666666667
7,14,28,1,8,0.8100000000000005,18,27,115,117,118,109,2.9199999999999995,0.4000000000000002,1.1400000000000008,0.03,20,3,8,1,75,17,42,1,2,1,24,7,LH,0.038933333333333334,0.023529411764705882,0.027142857142857142,0.03
7,15,29,1,2,0.7800000000000005,2,25,81,82,73,75,2.0600000000000014,0.5900000000000003,0.7600000000000005,0.3200000000000001,5,4,5,5,57,13,18,5,3,1,36,7,LH,0.03614035087719298,0.045384615384615384,0.042222222222222223,0.064
7,15,30,1,8,0.10999999999999999,2,5,1,112,113,96,7.069999999999896,0.02,0.01,0.02,20,2,1,2,176,2,1,2,2,0,13,7,LH,0.040170454545454544,0.01,0.01,0.01
7,16,31,1,3,0.4300000000000002,2,18,45,38,9,47,1.8600000000000012,0.5600000000000003,0.4100000000000002,0.05,4,3,6,1,58,22,10,1,5,0.5,21,7,LH,0.03206896551724138,0.025454545454545455,0.041,0.05
7,16,32,1,1,0.6600000000000004,4,17,33,25,35,32,2.410000000000002,0.6900000000000004,0.12999999999999998,0.10999999999999999,15,4,2,2,67,15,5,4,5,1,60,7,LH,0.03597014925373134,0.046000000000000006,0.026000000000000002,0.0275
7,17,33,1,7,0.47000000000000025,2,15,85,89,2,115,2.1400000000000015,0.2800000000000001,0.48000000000000026,0.5700000000000003,4,2,4,8,53,11,10,15,3,0,14,7,LH,0.04037735849056604,0.025454545454545455,0.047999999999999994,0.038000000000000006
7,17,34,1,9,0.2700000000000001,3,5,61,68,72,69,1.9700000000000013,0.37000000000000016,0.12999999999999998,0.36000000000000015,5,5,2,8,54,8,4,12,4,1,48,7,LH,0.03648148148148148,0.04625,0.0325,0.03
7,18,35,1,10,0.6600000000000004,2,15,22,21,20,18,2.799999999999999,0.35000000000000014,0.15,0.6400000000000003,9,2,2,11,67,12,3,17,6,1,72,7,LH,0.041791044776119404,0.029166666666666667,0.05,0.03764705882352941
7,18,36,1,1,0.8200000000000005,3,22,35,30,109,28,2.1000000000000014,0.9800000000000006,0.2900000000000001,0.07,5,2,2,2,62,31,6,3,5,0.5,17,7,LH,0.03387096774193549,0.031612903225806455,0.04833333333333333,0.023333333333333334
7,19,37,1,1,0.6000000000000003,4,13,28,32,4,119,2.5100000000000016,0.34000000000000014,0.09999999999999999,0.25000000000000006,6,2,2,4,61,9,2,6,5,0,18,7,LH,0.04114754098360656,0.03777777777777778,0.05,0.041666666666666664
7,19,38,1,6,0.8700000000000006,2,26,49,55,56,57,2.330000000000002,0.7600000000000005,0.6200000000000003,0.19000000000000003,8,6,9,2,62,17,15,3,4,1,48,7,LH,0.037580645161290324,0.04470588235294118,0.04133333333333334,0.06333333333333332
7,20,39,1,7,0.7300000000000004,2,21,114,92,88,113,3.189999999999992,0.46000000000000024,0.13999999999999999,0.09999999999999999,12,5,2,2,81,12,4,3,3,0,10,7,LH,0.03938271604938272,0.03833333333333333,0.035,0.03333333333333333
7,20,40,1,6,0.8800000000000006,3,27,55,3,57,98,3.2199999999999944,0.11999999999999998,1.7500000000000013,0.8700000000000006,13,2,10,15,80,3,46,21,4,0,16,7,LH,0.04025,0.04,0.03804347826086957,0.04142857142857143
7,21,41,1,10,0.7400000000000004,16,22,23,18,17,103,2.879999999999999,0.3100000000000001,0.09,0.5400000000000003,20,3,2,4,84,6,3,14,6,0.5,20,7,LH,0.03428571428571429,0.051666666666666666,0.03,0.038571428571428576
7,21,42,1,9,0.6400000000000003,2,16,63,11,69,2,2.1600000000000015,0.7800000000000005,0.08,0.22000000000000006,6,4,2,2,51,22,3,7,4,0,20,7,LH,0.042352941176470586,0.035454545454545454,0.02666666666666667,0.03142857142857143
7,22,43,1,7,1.440000000000001,16,42,96,85,50,86,3.4700000000000015,0.3900000000000002,0.09999999999999999,0.3300000000000001,18,2,2,3,92,11,2,10,3,0.5,13,7,LH,0.03771739130434783,0.035454545454545454,0.05,0.033
7,22,44,1,3,0.6700000000000004,3,17,37,46,1,10,1.730000000000001,0.5900000000000003,0.9100000000000006,0.25000000000000006,6,2,2,4,41,22,27,12,5,0,22,7,LH,0.042195121951219515,0.026818181818181817,0.03370370370370371,0.020833333333333332
8,1,1,0,4,0.6500000000000004,2,6,106,93,13,24,4.969999999999953,4.719999999999944,1.400000000000001,0.8100000000000005,11,13,4,5,28,30,6,6,2,0,17,7,LH,0.17750000000000005,0.15733333333333338,0.23333333333333345,0.13500000000000004
8,1,2,0,5,0.7300000000000004,9,10,5,11,47,7,7.7799999999998946,0.5800000000000003,0.21000000000000005,0.13999999999999999,20,2,2,1,55,3,2,1,6,0.5,41,7,LH,0.14145454545454547,0.19333333333333336,0.10500000000000002,0.13999999999999999
8,2,3,0,9,0.38000000000000017,2,7,64,102,2,93,6.619999999999911,1.0300000000000007,0.7500000000000004,0.7100000000000004,11,3,2,3,38,6,2,3,4,0,15,7,LH,0.17421052631578954,0.1716666666666667,0.37500000000000017,0.23666666666666672
8,2,4,0,6,0.26000000000000006,2,3,23,52,57,51,5.3599999999999355,0.36000000000000015,0.5400000000000003,5.489999999999927,10,1,2,13,31,1,3,26,4,0.5,30,7,LH,0.17290322580645168,0.36000000000000015,0.18000000000000002,0.21115384615384625
8,3,5,0,1,0.6100000000000003,8,10,17,35,116,32,8.969999999999867,0.18000000000000002,1.2400000000000009,0.2900000000000001,19,2,4,2,48,2,7,4,5,0,18,7,LH,0.18687500000000007,0.09,0.17714285714285719,0.0725
8,3,6,0,7,1.1200000000000008,11,14,88,87,11,2,7.509999999999909,0.4000000000000002,0.5100000000000002,0.6700000000000004,20,3,2,2,40,4,3,2,3,0,18,7,LH,0.18775000000000006,0.1,0.17000000000000004,0.33500000000000013
8,4,7,0,3,0.18000000000000002,2,2,1,111,118,44,10.379999999999827,0.15,0.4400000000000002,0.03,18,1,3,1,45,1,3,1,5,0,15,7,LH,0.23066666666666674,0.15,0.1466666666666667,0.03
8,4,8,0,10,0.45000000000000023,2,3,18,16,13,92,5.309999999999941,0.8400000000000005,12.689999999999774,0.01,12,4,17,1,31,5,66,1,6,0.5,39,7,LH,0.17129032258064522,0.16800000000000004,0.19227272727272732,0.01
8,5,9,0,10,0.48000000000000026,2,5,65,103,79,102,15.439999999999726,0.13999999999999999,0.09,1.8900000000000015,20,2,1,5,77,2,1,8,6,0,11,7,LH,0.2005194805194806,0.06999999999999999,0.09,0.2362500000000001
8,5,10,0,7,0.4300000000000002,2,3,90,92,1,34,7.509999999999894,0.2900000000000001,0.8500000000000005,1.0000000000000007,16,1,3,2,35,1,5,3,3,0,17,7,LH,0.21457142857142864,0.2900000000000001,0.17000000000000004,0.3333333333333335
8,6,11,0,5,0.2700000000000001,2,3,29,10,7,94,8.029999999999879,0.11999999999999998,0.6000000000000003,0.38000000000000017,11,1,2,1,44,1,2,1,6,0,20,7,LH,0.18250000000000005,0.11999999999999998,0.3000000000000001,0.38000000000000017
8,6,12,0,2,0.23000000000000007,2,4,79,21,41,117,5.289999999999937,1.6900000000000013,0.5900000000000003,1.420000000000001,11,3,2,5,26,8,3,7,3,0,16,7,LH,0.20346153846153853,0.21125000000000005,0.19666666666666674,0.20285714285714293
8,7,13,1,9,0.2700000000000001,2,4,46,83,64,38,6.6699999999999084,0.9700000000000006,0.11999999999999998,0.5800000000000003,10,2,1,3,32,4,1,4,4,0,17,7,LH,0.20843750000000008,0.24250000000000008,0.11999999999999998,0.14500000000000002
8,7,14,1,7,0.48000000000000026,2,4,35,96,117,36,5.789999999999932,0.47000000000000025,0.6700000000000004,1.280000000000001,8,1,2,4,28,1,3,9,3,0,15,7,LH,0.20678571428571435,0.47000000000000025,0.22333333333333344,0.14222222222222225
8,8,15,1,5,0.6700000000000004,7,7,4,120,76,74,8.079999999999886,0.18000000000000002,1.290000000000001,0.11999999999999998,19,1,4,1,35,1,5,1,6,0,14,7,LH,0.23085714285714296,0.18000000000000002,0.2580000000000001,0.11999999999999998
8,8,16,1,7,0.7100000000000004,2,7,95,69,32,61,8.359999999999882,0.8000000000000005,0.5600000000000003,0.9000000000000006,13,4,2,4,36,6,2,6,3,0,16,7,LH,0.2322222222222223,0.13333333333333336,0.28000000000000014,0.15000000000000002
8,9,17,1,8,0.4000000000000002,2,3,67,65,82,4,6.489999999999915,0.5500000000000003,2.709999999999986,0.09999999999999999,12,1,5,1,38,1,14,1,2,0,17,7,LH,0.17078947368421057,0.5500000000000003,0.19357142857142862,0.09999999999999999
8,9,18,1,10,1.2200000000000009,17,24,21,24,13,14,6.239999999999938,2.0799999999999996,0.7600000000000005,4.459999999999949,20,6,3,12,57,11,3,23,6,1,72,7,LH,0.10947368421052633,0.18909090909090914,0.2533333333333334,0.19391304347826094
8,10,19,1,7,0.9400000000000006,4,12,116,7,8,5,6.079999999999935,0.3900000000000002,0.5700000000000003,3.0199999999999796,11,2,2,7,35,3,3,14,3,0.5,20,7,LH,0.17371428571428577,0.13000000000000003,0.19000000000000006,0.21571428571428578
8,10,20,1,6,0.37000000000000016,2,4,60,51,82,56,3.929999999999968,3.0599999999999787,1.310000000000001,0.09999999999999999,9,6,6,1,18,12,7,1,4,0.5,15,7,LH,0.2183333333333334,0.2550000000000001,0.1871428571428572,0.09999999999999999
8,11,21,1,5,0.46000000000000024,2,3,98,8,100,5,7.589999999999892,0.45000000000000023,0.6400000000000003,0.2700000000000001,9,2,2,2,26,3,2,2,6,0,16,7,LH,0.29192307692307706,0.15000000000000002,0.3200000000000001,0.135
8,11,22,1,8,0.46000000000000024,2,7,42,119,39,43,9.019999999999863,0.13999999999999999,1.6100000000000012,0.03,15,1,5,1,44,1,7,1,2,0.5,17,7,LH,0.20500000000000007,0.13999999999999999,0.2300000000000001,0.03
8,12,23,1,1,0.49000000000000027,2,8,101,107,31,9,7.319999999999899,1.7200000000000013,0.23000000000000007,0.6100000000000003,13,3,2,2,44,7,2,2,5,0,15,7,LH,0.1663636363636364,0.2457142857142858,0.11499999999999999,0.3050000000000001
8,12,24,1,7,0.34000000000000014,2,7,37,43,114,85,8.569999999999869,0.25000000000000006,0.6500000000000004,0.11999999999999998,17,1,2,2,51,1,4,2,3,0,15,7,LH,0.16803921568627456,0.25000000000000006,0.16250000000000003,0.05999999999999999
8,13,25,1,9,0.13999999999999999,2,3,72,10,63,66,5.339999999999933,0.47000000000000025,0.3900000000000002,0.38000000000000017,9,1,2,2,35,1,5,5,4,0.5,18,7,LH,0.1525714285714286,0.47000000000000025,0.07800000000000001,0.076
8,13,26,1,2,0.24000000000000007,2,4,106,99,47,107,6.899999999999903,0.37000000000000016,0.34000000000000014,0.18000000000000002,14,2,1,1,22,2,1,1,3,0.5,11,7,LH,0.31363636363636377,0.18500000000000005,0.34000000000000014,0.18000000000000002
8,14,27,1,2,0.18000000000000002,2,3,69,81,37,67,3.3999999999999755,2.2799999999999954,3.039999999999979,0.08,8,4,7,1,17,6,16,1,3,0,16,7,LH,0.20000000000000007,0.3800000000000002,0.19000000000000006,0.08
8,14,28,1,1,1.1800000000000008,14,18,94,3,30,34,7.789999999999904,0.6800000000000004,0.17,0.4400000000000002,20,2,1,2,42,6,1,2,5,0,19,7,LH,0.18547619047619054,0.11333333333333334,0.17,0.22000000000000006
8,15,29,1,6,0.45000000000000023,2,6,108,39,52,98,8.459999999999875,1.1500000000000008,0.3200000000000001,0.13999999999999999,13,5,2,1,55,6,2,1,4,0,13,7,LH,0.15381818181818185,0.1916666666666667,0.16000000000000003,0.13999999999999999
8,15,30,1,9,0.26000000000000006,3,4,67,63,69,24,7.1399999999998975,1.430000000000001,0.7300000000000004,0.3900000000000002,16,4,3,1,32,11,9,2,4,0.5,18,7,LH,0.22312500000000007,0.13000000000000003,0.08111111111111112,0.19500000000000003
8,16,31,1,6,0.5900000000000003,3,7,1,97,54,74,10.799999999999827,0.26000000000000006,0.09999999999999999,0.5300000000000002,20,1,1,3,63,1,1,3,4,0,15,7,LH,0.17142857142857149,0.26000000000000006,0.09999999999999999,0.17666666666666672
8,16,32,1,3,0.3300000000000001,2,4,38,43,15,66,6.079999999999922,5.959999999999917,0.5300000000000002,0.7000000000000004,12,15,3,3,31,35,3,3,5,0,20,7,LH,0.19612903225806458,0.17028571428571435,0.1766666666666667,0.23333333333333342
8,17,33,1,3,0.34000000000000014,2,2,6,43,39,72,17.249999999999844,0.01,0.01,0.01,20,1,1,1,72,1,1,1,5,0,20,7,LH,0.23958333333333343,0.01,0.01,0.01
8,17,34,1,4,0.4000000000000002,3,5,80,31,100,54,4.149999999999964,3.139999999999977,0.5400000000000003,0.8100000000000005,11,5,2,2,20,11,4,8,2,0,14,7,LH,0.20750000000000007,0.28545454545454557,0.135,0.10125
8,18,35,1,9,0.17,2,3,66,46,62,77,3.679999999999969,3.279999999999974,0.38000000000000017,0.20000000000000004,8,9,2,1,21,18,2,1,4,0,16,7,LH,0.17523809523809528,0.18222222222222229,0.19000000000000006,0.20000000000000004
8,18,36,1,6,0.2700000000000001,2,3,53,2,26,51,8.539999999999868,0.2700000000000001,0.12999999999999998,0.10999999999999999,14,1,1,1,37,1,1,1,4,0,19,7,LH,0.2308108108108109,0.2700000000000001,0.12999999999999998,0.10999999999999999
8,19,37,1,8,0.36000000000000015,2,5,71,69,119,66,6.309999999999918,0.7300000000000004,0.16,0.25000000000000006,10,3,1,1,31,5,1,1,2,0.5,14,7,LH,0.20354838709677428,0.14600000000000002,0.16,0.25000000000000006
8,19,38,1,6,0.5500000000000003,2,7,54,107,101,80,6.719999999999914,1.0200000000000007,0.8600000000000005,0.9600000000000006,13,3,3,2,35,7,3,5,4,0,11,7,LH,0.19200000000000006,0.14571428571428574,0.28666666666666674,0.19200000000000006
8,20,39,1,9,0.11999999999999998,2,3,3,41,42,116,30.080000000001885,0.01,0.02,0.18000000000000002,20,1,1,2,118,1,1,3,4,0,18,7,LH,0.2549152542372882,0.01,0.02,0.06
8,20,40,1,6,2.3099999999999947,13,25,100,50,56,49,7.289999999999933,0.7900000000000005,0.6000000000000003,1.450000000000001,20,5,3,5,44,7,5,7,4,0.5,14,7,LH,0.16568181818181824,0.11285714285714288,0.12000000000000002,0.2071428571428572
9,1,1,0,7,0.2700000000000001,2,4,109,86,96,85,3.9499999999999655,0.07,0.07,0.8400000000000005,8,1,1,3,29,1,1,4,3,0.5,20,7,LH,0.13620689655172416,0.07,0.07,0.21000000000000008
9,1,2,0,2,0.45000000000000023,2,8,103,84,17,18,3.219999999999985,0.46000000000000024,0.6800000000000004,0.26000000000000006,7,2,3,4,30,6,6,4,3,0,17,7,LH,0.10733333333333335,0.07666666666666667,0.11333333333333334,0.06500000000000002
9,2,3,0,7,0.3200000000000001,2,4,17,86,48,113,3.279999999999981,0.12999999999999998,0.35000000000000014,0.12999999999999998,9,1,2,1,26,1,3,1,3,0,16,7,LH,0.12615384615384617,0.12999999999999998,0.11666666666666667,0.12999999999999998
9,2,4,0,6,0.4100000000000002,2,4,60,77,53,56,3.4299999999999797,0.4200000000000002,0.07,0.37000000000000016,7,2,1,3,26,4,1,3,4,0.5,27,7,LH,0.13192307692307695,0.10500000000000001,0.07,0.12333333333333334
9,3,5,0,8,0.3900000000000002,2,4,115,119,74,84,3.2899999999999823,0.9000000000000006,0.9700000000000006,0.3200000000000001,10,3,7,4,15,5,8,4,2,0,10,7,LH,0.2193333333333334,0.18000000000000005,0.12125000000000002,0.08000000000000002
9,3,6,0,3,0.45000000000000023,2,3,42,41,23,57,3.1899999999999857,0.46000000000000024,0.23000000000000007,0.48000000000000026,7,3,1,2,17,4,1,3,5,0,20,7,LH,0.18764705882352947,0.115,0.23000000000000007,0.16000000000000003
9,4,7,0,2,0.6500000000000004,7,8,113,75,79,13,3.009999999999994,0.3000000000000001,0.2700000000000001,0.7400000000000004,13,2,2,3,27,2,2,6,3,0,14,7,LH,0.1114814814814815,0.15000000000000005,0.135,0.12333333333333335
9,4,8,0,4,0.34000000000000014,2,5,102,106,96,46,2.0700000000000016,1.390000000000001,0.5800000000000003,0.17,6,3,3,1,12,7,3,1,2,0,12,7,LH,0.17250000000000004,0.19857142857142862,0.19333333333333338,0.17
9,5,9,0,8,0.4300000000000002,2,4,2,114,57,59,7.519999999999894,0.01,0.01,0.03,19,1,1,2,49,1,1,2,2,0,16,7,LH,0.15346938775510208,0.01,0.01,0.015
9,5,10,0,4,0.3900000000000002,2,6,39,90,42,13,4.149999999999964,0.17,0.6200000000000003,0.2900000000000001,12,2,3,2,32,2,4,2,2,0,19,7,LH,0.12968750000000004,0.08499999999999999,0.15500000000000005,0.145
9,6,11,0,10,0.7700000000000005,13,15,58,112,88,23,3.419999999999988,0.3000000000000001,0.9300000000000006,1.1900000000000008,19,2,2,4,25,3,9,4,6,0,15,7,LH,0.13680000000000003,0.10000000000000002,0.10333333333333333,0.29750000000000015
9,6,12,0,2,0.9000000000000006,2,13,75,38,73,42,5.969999999999937,0.35000000000000014,0.02,0.02,17,2,1,1,42,2,1,1,3,0,16,7,LH,0.14214285714285718,0.17500000000000007,0.02,0.02
9,7,13,1,7,0.5000000000000002,2,4,45,117,112,47,3.8799999999999724,0.11999999999999998,0.13999999999999999,0.8200000000000005,12,1,2,4,26,1,2,8,3,0,14,7,LH,0.14923076923076925,0.11999999999999998,0.06999999999999999,0.10250000000000002
9,7,14,1,6,1.260000000000001,2,12,15,28,16,32,5.109999999999963,0.6300000000000003,0.24000000000000007,0.2700000000000001,9,3,2,2,41,5,4,3,4,0,22,7,LH,0.12463414634146344,0.126,0.060000000000000005,0.09
9,8,15,1,9,0.7700000000000005,10,11,115,67,84,78,3.749999999999981,0.4400000000000002,0.3900000000000002,0.09,16,3,2,2,30,4,4,2,4,0,12,7,LH,0.12500000000000003,0.11000000000000001,0.0975,0.045
9,8,16,1,4,0.18000000000000002,1,2,99,54,104,88,2.200000000000001,1.1600000000000008,0.7500000000000004,0.5200000000000002,7,3,3,5,18,6,5,8,2,0,11,7,LH,0.12222222222222223,0.1933333333333334,0.15000000000000002,0.065
9,9,17,1,3,0.7300000000000004,4,11,83,79,68,23,3.609999999999983,0.8000000000000005,0.16,0.17,8,3,1,1,25,3,1,1,5,0,16,7,LH,0.14440000000000003,0.2666666666666668,0.16,0.17
9,9,18,1,5,0.3900000000000002,2,3,11,49,8,94,2.7999999999999927,0.5200000000000002,0.6000000000000003,2.3099999999999947,7,2,4,8,17,4,6,14,6,0,19,7,LH,0.16470588235294123,0.13,0.1,0.16500000000000004
9,10,19,1,9,0.35000000000000014,2,6,67,74,72,82,2.6199999999999957,0.3000000000000001,0.5300000000000002,0.35000000000000014,8,1,5,2,24,1,6,3,4,0,14,7,LH,0.10916666666666669,0.3000000000000001,0.08833333333333335,0.11666666666666668
9,10,20,1,3,0.2800000000000001,2,3,47,52,88,91,2.6699999999999933,1.410000000000001,0.15,0.04,6,3,2,1,20,12,2,1,5,0,15,7,LH,0.1335,0.11750000000000002,0.07500000000000001,0.04
9,11,21,1,6,0.2900000000000001,2,5,77,78,79,82,3.3999999999999777,0.34000000000000014,0.10999999999999999,0.3900000000000002,9,3,2,2,21,4,4,3,4,1,36,7,LH,0.16190476190476194,0.08499999999999999,0.0275,0.13000000000000003
9,11,22,1,8,0.2800000000000001,2,3,117,112,66,19,3.579999999999974,0.3000000000000001,0.47000000000000025,0.17,10,3,2,1,22,3,5,1,2,0,14,7,LH,0.16272727272727278,0.1,0.09400000000000001,0.17
9,12,23,1,2,1.0400000000000007,5,8,65,112,73,6,6.279999999999934,0.01,0.07,0.26000000000000006,16,1,2,3,43,1,2,3,3,0,15,7,LH,0.14604651162790702,0.01,0.035,0.08666666666666667
9,12,24,1,10,0.34000000000000014,2,3,51,19,13,18,2.4399999999999995,0.2700000000000001,0.34000000000000014,1.1300000000000008,6,1,2,3,20,1,3,10,6,0.5,22,7,LH,0.12200000000000001,0.2700000000000001,0.11333333333333334,0.113
9,13,25,1,9,0.4000000000000002,2,6,63,30,68,14,2.989999999999989,1.2100000000000009,0.05,0.13999999999999999,7,2,1,2,26,4,1,2,4,0,19,7,LH,0.11500000000000002,0.3025000000000001,0.05,0.06999999999999999
9,13,26,1,5,0.8800000000000006,13,14,48,6,2,5,2.5500000000000016,1.8200000000000014,0.12999999999999998,0.11999999999999998,16,4,2,2,20,15,2,2,6,0.5,23,7,LH,0.12750000000000003,0.12133333333333336,0.065,0.06
9,14,27,1,7,0.6100000000000003,8,8,88,38,43,89,5.339999999999944,0.24000000000000007,0.04,0.02,15,2,1,1,34,2,1,1,3,0,16,7,LH,0.1570588235294118,0.12000000000000001,0.04,0.02
9,14,28,1,5,0.9200000000000006,4,11,4,111,73,8,3.3999999999999915,0.7100000000000004,0.16,0.09999999999999999,8,3,1,1,19,5,1,1,6,0,17,7,LH,0.1789473684210527,0.14200000000000002,0.16,0.09999999999999999
9,15,29,1,6,0.13999999999999999,2,3,49,95,17,60,1.8300000000000012,1.6200000000000012,0.21000000000000005,0.04,6,4,1,1,19,9,1,2,4,0,17,7,LH,0.09631578947368423,0.18000000000000005,0.21000000000000005,0.02
9,15,30,1,5,0.35000000000000014,2,5,6,3,77,81,2.1000000000000014,3.049999999999979,0.6200000000000003,0.6200000000000003,7,11,3,3,12,22,3,5,6,0,18,7,LH,0.17500000000000004,0.13863636363636367,0.20666666666666675,0.12400000000000003
9,16,31,1,2,0.19000000000000003,2,3,73,74,80,14,2.1600000000000015,0.9800000000000006,0.4300000000000002,0.5700000000000003,7,2,3,3,18,2,3,4,3,0.5,15,7,LH,0.12000000000000001,0.49000000000000027,0.14333333333333334,0.14250000000000002
9,16,32,1,8,0.34000000000000014,2,3,115,120,5,3,2.699999999999994,0.9100000000000006,0.22000000000000006,0.07,6,3,2,2,22,3,2,2,2,0,16,7,LH,0.12272727272727274,0.30333333333333345,0.11000000000000001,0.035
9,17,33,1,7,0.5900000000000003,12,13,32,94,69,61,8.379999999999878,0.01,0.09999999999999999,0.21000000000000005,20,1,3,3,59,1,3,4,3,0,16,7,LH,0.14203389830508478,0.01,0.03333333333333333,0.0525
9,17,34,1,2,0.3900000000000002,2,6,76,44,41,83,2.1300000000000017,1.480000000000001,0.5200000000000002,0.4100000000000002,6,5,5,3,16,13,8,6,3,0,16,7,LH,0.13312500000000002,0.11384615384615386,0.06499999999999999,0.06833333333333334
9,18,35,1,10,0.36000000000000015,2,5,42,37,101,107,2.8399999999999914,0.5100000000000002,1.380000000000001,0.23000000000000007,10,3,6,2,21,5,10,2,6,0,14,7,LH,0.13523809523809527,0.10200000000000001,0.138,0.115
9,18,36,1,7,0.4100000000000002,2,4,109,87,91,120,3.5299999999999776,0.10999999999999999,0.6700000000000004,0.13999999999999999,7,1,4,1,27,1,6,1,3,0,10,7,LH,0.13074074074074077,0.10999999999999999,0.11166666666666668,0.13999999999999999
9,19,37,1,6,0.2700000000000001,2,6,56,50,53,55,1.9700000000000013,0.24000000000000007,0.12999999999999998,0.21000000000000005,7,2,1,2,18,3,1,2,4,1,48,7,LH,0.10944444444444446,0.08,0.12999999999999998,0.10499999999999998
9,19,38,1,7,0.26000000000000006,2,3,3,72,37,92,8.199999999999875,0.01,0.01,0.01,17,1,1,1,60,1,1,1,3,0,18,7,LH,0.1366666666666667,0.01,0.01,0.01
9,20,39,1,2,0.5200000000000002,2,6,40,60,98,46,2.679999999999998,1.6800000000000013,0.38000000000000017,0.24000000000000007,7,5,3,2,17,15,3,2,3,0,16,7,LH,0.15764705882352947,0.11200000000000002,0.12666666666666668,0.11999999999999998
9,20,40,1,9,0.9400000000000006,3,14,70,119,28,25,3.0999999999999988,1.0400000000000007,0.09,0.19000000000000003,9,5,1,1,32,7,1,1,4,0,16,7,LH,0.096875,0.1485714285714286,0.09,0.19000000000000003
9,21,41,1,9,0.8900000000000006,11,15,32,64,34,116,5.559999999999945,0.03,0.03,0.15,20,1,1,2,44,1,1,2,4,0,16,7,LH,0.1263636363636364,0.03,0.03,0.075
9,21,42,1,5,0.5600000000000003,4,5,4,2,102,59,2.6000000000000005,10.939999999999811,0.01,0.03,7,18,1,1,17,78,1,1,6,0,18,7,LH,0.15294117647058827,0.14025641025641028,0.01,0.03
10,1,1,0,2,0.13999999999999999,2,2,2,101,98,7,10.629999999999821,0.5800000000000003,0.01,0.01,14,2,1,1,50,2,1,1,3,0,16,7,LH,0.21260000000000007,0.29000000000000015,0.01,0.01
10,1,2,0,10,0.24000000000000007,2,4,15,37,120,56,6.629999999999908,0.13999999999999999,0.09999999999999999,0.18000000000000002,14,2,2,1,29,2,2,1,6,0,17,7,LH,0.22862068965517252,0.06999999999999999,0.05,0.18000000000000002
10,2,3,0,8,0.34000000000000014,2,3,41,114,115,39,4.529999999999955,0.26000000000000006,0.7100000000000004,0.49000000000000027,11,3,3,3,20,3,7,3,2,0,14,7,LH,0.22650000000000006,0.08666666666666667,0.10142857142857144,0.16333333333333339
10,2,4,0,10,0.3100000000000001,4,4,19,82,20,104,14.289999999999747,0.02,0.01,0.02,20,1,1,1,64,1,1,1,6,0,17,7,LH,0.22328125000000007,0.02,0.01,0.02
10,3,5,0,7,0.2700000000000001,2,3,38,1,104,44,3.779999999999969,0.9000000000000006,0.9100000000000006,0.5200000000000002,9,4,2,3,17,7,6,3,3,0,18,7,LH,0.22235294117647067,0.1285714285714286,0.15166666666666673,0.17333333333333337
10,3,6,0,1,0.8400000000000005,10,12,31,49,26,21,4.139999999999974,0.4100000000000002,0.8000000000000005,0.19000000000000003,14,2,3,2,30,2,4,2,5,0,20,7,LH,0.13800000000000004,0.20500000000000002,0.20000000000000004,0.095
10,4,7,0,7,0.2700000000000001,2,4,36,86,21,59,3.9599999999999653,0.11999999999999998,0.4100000000000002,0.3200000000000001,8,1,2,2,30,1,2,3,3,0,18,7,LH,0.13200000000000003,0.11999999999999998,0.20500000000000004,0.10666666666666666
10,4,8,0,2,0.4400000000000002,2,3,79,107,5,73,4.539999999999957,0.37000000000000016,0.2700000000000001,0.060000000000000005,10,2,1,1,17,3,1,1,3,0,14,7,LH,0.26705882352941185,0.12333333333333335,0.2700000000000001,0.060000000000000005
10,5,9,0,2,0.19000000000000003,2,3,80,17,26,23,4.369999999999956,0.8500000000000005,0.09999999999999999,0.11999999999999998,13,2,1,1,19,3,1,1,3,0,20,7,LH,0.2300000000000001,0.28333333333333344,0.09999999999999999,0.11999999999999998
10,5,10,0,9,0.23000000000000007,2,3,65,99,102,46,2.4599999999999964,1.340000000000001,0.2900000000000001,0.6900000000000004,6,5,2,2,12,8,2,3,4,0,13,7,LH,0.20500000000000007,0.16750000000000004,0.14500000000000002,0.2300000000000001
10,6,11,0,9,0.2700000000000001,2,3,32,75,84,71,2.1400000000000015,1.9000000000000015,0.37000000000000016,0.12999999999999998,4,5,3,2,12,10,3,3,4,0,15,7,LH,0.1783333333333334,0.19000000000000006,0.12333333333333336,0.043333333333333335
10,6,12,0,6,0.5000000000000002,4,8,58,49,44,55,2.4300000000000015,2.1199999999999988,1.5500000000000012,0.11999999999999998,10,7,4,1,18,12,8,1,4,0.5,29,7,LH,0.13500000000000004,0.1766666666666667,0.19375000000000006,0.11999999999999998
10,7,13,1,1,0.2900000000000001,3,3,8,29,28,9,4.469999999999955,0.7000000000000004,5.629999999999924,0.05,11,5,13,1,29,7,26,1,5,0,22,7,LH,0.1541379310344828,0.10000000000000002,0.21653846153846162,0.05
10,7,14,1,7,0.18000000000000002,2,3,66,21,105,97,3.279999999999978,0.4400000000000002,0.47000000000000025,0.36000000000000015,7,1,2,2,16,1,2,2,3,0,14,7,LH,0.20500000000000007,0.4400000000000002,0.23500000000000004,0.18000000000000005
10,8,15,1,5,0.25000000000000006,2,4,67,6,26,32,3.119999999999983,0.49000000000000027,0.6500000000000004,0.9600000000000006,6,2,2,3,14,2,3,3,6,0,20,7,LH,0.22285714285714292,0.24500000000000008,0.21666666666666676,0.3200000000000001
10,8,16,1,3,1.0300000000000007,13,15,75,39,20,83,5.379999999999953,0.07,0.5900000000000003,0.16,20,1,4,1,43,1,4,1,5,0,17,7,LH,0.12511627906976747,0.07,0.14750000000000002,0.16
10,9,17,1,3,0.3200000000000001,3,4,15,45,74,22,4.129999999999963,0.6500000000000004,0.17,0.3000000000000001,13,2,1,4,20,3,1,5,5,0,20,7,LH,0.20650000000000007,0.2166666666666667,0.17,0.06
10,9,18,1,1,0.5100000000000002,2,4,66,116,72,91,4.819999999999952,0.11999999999999998,0.3900000000000002,0.13999999999999999,13,1,2,1,22,1,2,1,5,0,13,7,LH,0.21909090909090917,0.11999999999999998,0.19500000000000006,0.13999999999999999
10,10,19,1,3,0.8300000000000005,10,12,12,44,11,10,3.3499999999999908,3.93999999999996,2.149999999999998,0.4300000000000002,15,7,7,3,26,23,10,3,5,0.5,23,7,LH,0.1288461538461539,0.171304347826087,0.21500000000000008,0.14333333333333337
10,10,20,1,7,0.2900000000000001,2,3,85,20,15,14,2.8999999999999884,0.6600000000000004,0.12999999999999998,1.260000000000001,8,2,2,4,18,3,2,6,3,0.5,21,7,LH,0.16111111111111115,0.22000000000000008,0.06499999999999999,0.21000000000000008
10,11,21,1,6,0.6300000000000003,9,11,56,57,88,39,1.670000000000001,1.290000000000001,1.5600000000000012,0.21000000000000005,11,2,4,1,15,4,5,1,4,0,16,7,LH,0.11133333333333337,0.3225000000000001,0.3120000000000001,0.21000000000000005
10,11,22,1,1,0.3000000000000001,2,3,29,32,19,24,3.399999999999978,0.22000000000000006,0.18000000000000002,1.1400000000000008,6,1,1,6,25,1,2,6,5,0,22,7,LH,0.136,0.22000000000000006,0.09,0.19000000000000006
10,12,23,1,5,0.21000000000000005,2,3,4,1,3,5,2.3999999999999972,0.9700000000000006,0.19000000000000003,1.1100000000000008,7,4,1,8,18,8,1,9,6,1,72,7,LH,0.13333333333333336,0.12125000000000001,0.19000000000000003,0.12333333333333335
10,12,24,1,9,0.26000000000000006,2,4,61,48,22,85,2.4899999999999967,0.5000000000000002,1.1000000000000008,0.6000000000000003,6,2,2,2,12,2,4,2,4,0,18,7,LH,0.20750000000000007,0.25000000000000006,0.2750000000000001,0.30000000000000016
10,13,25,1,6,3.9999999999999587,8,24,52,42,44,47,5.75999999999996,0.48000000000000026,0.4100000000000002,0.9500000000000006,10,2,2,4,26,4,4,7,4,0.5,19,7,LH,0.22153846153846163,0.12000000000000001,0.10250000000000001,0.13571428571428573
10,13,26,1,4,0.07,2,4,71,104,82,106,3.399999999999973,0.6200000000000003,0.04,0.15,12,6,1,2,20,6,1,2,2,0,11,7,LH,0.17000000000000007,0.10333333333333335,0.04,0.075
10,14,27,1,5,3.2599999999999745,7,16,6,3,103,61,4.579999999999975,7.869999999999877,0.01,0.01,10,14,1,1,22,35,1,1,6,0,18,7,LH,0.20818181818181827,0.22485714285714295,0.01,0.01
10,14,28,1,8,0.3200000000000001,5,7,114,89,39,42,2.8799999999999897,0.5600000000000003,1.0400000000000007,0.6600000000000004,11,2,5,3,21,2,7,3,2,0,15,7,LH,0.13714285714285718,0.28000000000000014,0.1485714285714286,0.22000000000000008
10,15,29,1,10,0.23000000000000007,2,3,26,16,70,120,3.9199999999999653,1.9300000000000015,0.16,0.3200000000000001,9,4,2,3,17,4,3,3,6,0,17,7,LH,0.23058823529411773,0.4825000000000003,0.05333333333333333,0.10666666666666666
10,15,30,1,5,0.5000000000000002,2,3,48,104,3,47,3.289999999999985,0.5000000000000002,1.8000000000000014,0.26000000000000006,10,2,5,2,15,2,6,4,6,0,18,7,LH,0.2193333333333334,0.25000000000000006,0.30000000000000016,0.065
10,16,31,1,4,0.10999999999999999,2,4,107,1,82,50,2.579999999999991,5.0599999999999365,0.03,0.02,7,8,1,1,18,22,1,1,2,0,15,7,LH,0.14333333333333337,0.2300000000000001,0.03,0.02
10,16,32,1,8,0.34000000000000014,5,6,70,110,45,16,4.819999999999949,0.04,0.6600000000000004,1.0700000000000007,15,1,3,3,30,1,3,4,2,0,17,7,LH,0.1606666666666667,0.04,0.2200000000000001,0.2675000000000001
10,17,33,1,4,1.0400000000000007,10,12,15,107,17,22,3.9899999999999816,0.3000000000000001,0.2700000000000001,0.21000000000000005,17,2,1,1,30,2,1,1,2,0.5,20,7,LH,0.13300000000000003,0.15000000000000002,0.2700000000000001,0.21000000000000005
10,17,34,1,3,0.5300000000000002,2,3,42,11,75,45,3.8399999999999737,1.0400000000000007,0.49000000000000027,0.08,7,3,3,1,16,4,3,1,5,0,19,7,LH,0.2400000000000001,0.2600000000000001,0.16333333333333339,0.08
10,18,35,1,6,0.18000000000000002,2,3,49,55,50,23,1.9400000000000013,1.9400000000000015,0.5700000000000003,0.4200000000000002,7,5,2,4,13,11,6,5,4,0.5,18,7,LH,0.14923076923076928,0.17636363636363642,0.09500000000000001,0.084
10,18,36,1,2,0.22000000000000006,2,3,5,35,78,32,3.829999999999967,0.35000000000000014,0.060000000000000005,0.26000000000000006,8,1,1,2,22,1,2,2,3,0,19,7,LH,0.17409090909090913,0.35000000000000014,0.030000000000000002,0.13000000000000003
10,19,37,1,8,0.48000000000000026,8,9,115,6,7,114,2.929999999999992,0.4000000000000002,0.7100000000000004,0.15,11,3,2,1,22,3,4,1,2,0,16,7,LH,0.1331818181818182,0.13333333333333336,0.17750000000000002,0.15
10,19,38,1,9,0.7400000000000004,2,5,28,71,63,89,4.189999999999971,1.2400000000000009,0.09,0.15,8,5,1,1,20,5,1,1,4,0,16,7,LH,0.20950000000000005,0.24800000000000008,0.09,0.15
10,20,39,1,6,0.17,2,5,38,119,51,120,2.8599999999999866,0.9200000000000006,1.1100000000000008,0.24000000000000007,6,2,5,2,18,3,5,2,4,0,13,7,LH,0.15888888888888894,0.3066666666666668,0.2220000000000001,0.12000000000000002
10,20,40,1,4,0.17,2,3,103,105,2,89,8.069999999999876,0.01,10.689999999999817,0.16,12,1,18,1,40,1,54,1,2,0,13,7,LH,0.20175000000000007,0.01,0.19796296296296303,0.16
10,21,41,1,9,0.8500000000000005,14,15,94,71,48,47,4.389999999999969,0.19000000000000003,0.8400000000000005,0.34000000000000014,17,1,3,2,40,1,4,3,4,0,17,7,LH,0.10975000000000003,0.19000000000000003,0.21000000000000005,0.11333333333333336
10,21,42,1,8,0.5400000000000003,3,4,117,49,5,113,2.9399999999999933,0.35000000000000014,0.9500000000000006,0.5500000000000003,7,2,3,3,10,2,5,5,2,0,14,7,LH,0.29400000000000015,0.17500000000000004,0.19000000000000006,0.10999999999999999
11,1,1,0,5,0.4400000000000002,2,6,4,108,1,3,15.269999999999728,1.6300000000000012,1.260000000000001,3.6699999999999657,15,4,2,8,137,17,18,24,6,0.5,38,6,LH,0.11145985401459856,0.09588235294117647,0.07,0.1529166666666667
11,1,2,0,2,0.3200000000000001,2,3,78,42,41,84,12.659999999999782,3.45999999999997,0.8400000000000005,0.3100000000000001,14,6,2,2,128,36,9,3,3,0,16,6,LH,0.09890625000000001,0.09611111111111112,0.09333333333333335,0.10333333333333333
11,2,3,0,6,0.5200000000000002,2,9,54,50,51,2,12.319999999999792,1.0300000000000007,1.9900000000000015,17.58999999999995,16,6,6,16,108,10,20,167,4,0.5,30,6,LH,0.11407407407407409,0.10300000000000002,0.0995,0.10532934131736528
11,2,4,0,9,1.330000000000001,17,23,71,67,65,64,14.769999999999758,0.34000000000000014,1.340000000000001,0.49000000000000027,20,2,3,2,136,3,16,5,4,1,48,6,LH,0.10860294117647061,0.11333333333333336,0.08375,0.098
11,3,5,0,9,0.49000000000000027,2,7,66,68,62,78,14.969999999999736,1.1400000000000008,1.6800000000000013,2.849999999999983,10,3,7,8,137,13,12,26,4,0.5,27,6,LH,0.10927007299270075,0.08769230769230771,0.14000000000000004,0.10961538461538463
11,3,6,0,1,0.3300000000000001,2,3,28,27,34,15,12.379999999999788,1.5100000000000011,1.340000000000001,11.239999999999805,18,4,5,15,88,15,13,92,5,0.5,36,6,LH,0.1406818181818182,0.10066666666666668,0.1030769230769231,0.12217391304347829
11,4,7,0,4,0.26000000000000006,2,3,105,63,23,91,18.640000000000075,5.279999999999932,0.8700000000000006,0.6100000000000003,17,10,6,2,149,56,11,4,2,0,15,6,LH,0.12510067114093962,0.09428571428571429,0.0790909090909091,0.1525
11,4,8,0,8,0.5900000000000003,2,6,109,116,112,74,14.339999999999751,1.420000000000001,1.9400000000000015,6.439999999999907,12,3,6,11,121,15,14,49,2,0.5,15,6,LH,0.11851239669421489,0.09466666666666668,0.1385714285714286,0.13142857142857145
11,5,9,0,10,1.500000000000001,2,17,19,16,39,22,19.54000000000002,2.479999999999991,0.7400000000000004,0.7800000000000005,20,10,3,2,179,22,10,7,6,0.5,41,6,LH,0.10916201117318437,0.11272727272727275,0.07400000000000001,0.11142857142857143
11,5,10,0,1,0.3300000000000001,2,5,33,34,25,61,12.809999999999778,6.269999999999911,0.6800000000000004,2.1399999999999983,13,11,5,4,104,60,10,17,5,0.5,34,6,LH,0.12317307692307694,0.10450000000000001,0.068,0.1258823529411765
11,6,11,1,10,0.47000000000000025,2,7,14,114,16,62,35.520000000001595,0.03,0.02,0.05,20,1,1,1,264,1,1,1,6,0,18,6,LH,0.13454545454545458,0.03,0.02,0.05
11,6,12,1,3,0.4100000000000002,2,7,46,42,44,92,14.439999999999745,3.00999999999998,1.7600000000000013,4.069999999999958,16,5,8,11,132,28,17,30,5,0.5,18,6,LH,0.1093939393939394,0.10750000000000003,0.1035294117647059,0.13566666666666669
11,7,13,1,3,0.5100000000000002,2,4,13,39,15,55,20.230000000000285,0.13999999999999999,0.5700000000000003,0.7700000000000005,17,1,2,2,171,1,5,7,5,0,21,6,LH,0.11830409356725148,0.13999999999999999,0.114,0.11000000000000001
11,7,14,1,9,0.6900000000000004,8,8,32,120,34,66,36.380000000001466,0.03,0.09999999999999999,0.04,20,2,1,1,307,3,1,1,4,0,16,6,LH,0.11850162866449514,0.01,0.09999999999999999,0.04
11,8,15,1,5,0.45000000000000023,2,7,2,1,12,83,14.29999999999975,18.070000000000025,0.02,0.3900000000000002,14,16,1,2,133,152,1,2,6,0.5,21,6,LH,0.10751879699248122,0.11888157894736845,0.02,0.19500000000000003
11,8,16,1,1,1.300000000000001,2,16,27,54,29,26,17.779999999999777,1.5600000000000012,1.0300000000000007,0.7100000000000004,16,4,4,3,146,9,10,7,5,0.5,19,6,LH,0.12178082191780824,0.17333333333333337,0.10300000000000002,0.10142857142857145
11,9,17,1,9,0.5800000000000003,2,7,64,62,71,69,14.259999999999753,4.43999999999995,0.8600000000000005,7.199999999999891,12,11,5,13,131,41,7,74,4,1,48,6,LH,0.10885496183206109,0.10829268292682928,0.12285714285714289,0.0972972972972973
11,9,18,1,3,0.4400000000000002,2,5,49,41,47,13,19.94000000000025,0.21000000000000005,2.099999999999999,1.5400000000000011,19,2,5,3,161,2,16,17,5,0,20,6,LH,0.12385093167701866,0.105,0.13125000000000003,0.09058823529411765
11,10,19,1,9,0.6400000000000003,2,9,64,63,41,72,13.149999999999778,1.9900000000000015,1.2500000000000009,1.450000000000001,19,7,2,7,106,21,6,12,4,0.5,17,6,LH,0.12405660377358493,0.09476190476190477,0.2083333333333334,0.12083333333333336
11,10,20,1,1,0.45000000000000023,6,7,2,30,27,35,21.780000000000534,0.10999999999999999,0.2700000000000001,0.48000000000000026,19,2,2,2,161,2,5,3,5,0.5,21,6,LH,0.1352795031055901,0.05500000000000001,0.054,0.16
11,11,21,1,8,0.3100000000000001,2,4,117,46,55,58,12.639999999999782,2.399999999999993,0.47000000000000025,0.47000000000000025,13,4,2,2,115,22,2,4,2,0,15,6,LH,0.10991304347826089,0.10909090909090911,0.2350000000000001,0.11750000000000002
11,11,22,1,10,0.6500000000000004,9,10,22,18,14,17,12.679999999999788,6.129999999999914,3.619999999999967,1.6400000000000012,20,11,9,9,106,50,38,19,6,1,72,6,LH,0.11962264150943398,0.12260000000000001,0.09526315789473686,0.0863157894736842
11,12,23,1,4,1.450000000000001,18,28,97,102,106,66,11.229999999999837,4.619999999999946,7.479999999999885,0.5700000000000003,20,9,13,2,114,41,62,3,2,0.5,10,6,LH,0.09850877192982457,0.11268292682926831,0.1206451612903226,0.19000000000000006
11,12,24,1,1,0.5500000000000003,2,8,55,35,49,53,17.959999999999923,1.0600000000000007,0.37000000000000016,0.9400000000000006,16,5,4,3,149,9,6,18,5,0.5,17,6,LH,0.12053691275167787,0.11777777777777779,0.06166666666666667,0.05222222222222222
11,13,25,1,1,1.8300000000000014,17,27,27,36,59,87,14.249999999999782,6.599999999999904,1.8100000000000014,1.0800000000000007,20,12,3,4,140,51,17,12,5,0,17,6,LH,0.1017857142857143,0.12941176470588237,0.10647058823529414,0.09
11,13,26,1,9,1.0200000000000007,16,19,65,1,98,103,16.349999999999717,19.05000000000018,0.48000000000000026,0.6100000000000003,20,15,3,4,129,178,4,6,4,0,14,6,LH,0.12674418604651166,0.10702247191011237,0.12000000000000004,0.10166666666666668
11,14,27,1,7,1.7600000000000013,2,18,90,58,93,28,18.939999999999888,0.6000000000000003,0.9700000000000006,1.320000000000001,15,2,4,3,163,4,9,14,3,0,15,6,LH,0.11619631901840492,0.15000000000000002,0.1077777777777778,0.09428571428571429
11,14,28,1,10,0.4200000000000002,2,8,19,13,24,22,7.079999999999902,17.38999999999992,0.02,0.04,5,9,1,1,76,154,1,1,6,1,72,6,LH,0.0931578947368421,0.11292207792207794,0.02,0.04
11,15,29,1,7,0.9800000000000006,14,18,96,34,25,91,14.919999999999748,4.199999999999955,1.420000000000001,2.0500000000000003,20,9,5,7,131,31,10,16,3,0,16,6,LH,0.11389312977099239,0.13548387096774195,0.14200000000000004,0.12812500000000004
11,15,30,1,2,0.7700000000000005,2,11,76,75,81,110,12.449999999999797,5.329999999999931,1.5600000000000012,0.35000000000000014,11,8,5,1,96,42,8,1,3,0.5,11,6,LH,0.1296875,0.12690476190476194,0.19500000000000006,0.35000000000000014
11,16,31,1,4,1.0300000000000007,2,8,89,95,108,87,12.309999999999805,0.5600000000000003,5.069999999999936,1.460000000000001,14,2,7,4,98,2,43,12,2,0.5,11,6,LH,0.1256122448979592,0.28000000000000014,0.11790697674418607,0.12166666666666669
11,16,32,1,3,0.6800000000000004,2,9,45,44,46,118,15.349999999999731,3.6299999999999666,0.8000000000000005,1.2400000000000009,20,5,5,6,123,32,8,11,5,0.5,17,6,LH,0.1247967479674797,0.11343750000000001,0.1,0.11272727272727273
11,17,33,1,10,0.6600000000000004,2,6,51,58,112,90,19.97000000000022,2.07,3.9999999999999587,1.0200000000000007,17,5,4,3,159,16,32,7,6,0,13,6,LH,0.1255974842767296,0.12937500000000002,0.12500000000000003,0.14571428571428574
11,17,34,1,3,0.5600000000000003,2,7,47,102,48,105,14.069999999999757,2.109999999999999,5.239999999999933,1.290000000000001,17,4,9,5,114,18,42,11,5,0,14,6,LH,0.12342105263157897,0.11722222222222224,0.12476190476190478,0.11727272727272728
11,18,35,1,8,1.0800000000000007,3,14,59,44,115,117,16.78999999999971,1.9700000000000015,0.49000000000000027,0.5500000000000003,18,5,3,4,138,22,4,7,2,0,13,6,LH,0.12166666666666669,0.08954545454545455,0.12250000000000003,0.07857142857142857
11,18,36,1,4,0.6300000000000003,2,9,89,95,100,104,15.569999999999727,1.1000000000000008,0.2800000000000001,0.36000000000000015,17,4,1,2,144,10,1,4,2,0,10,6,LH,0.10812500000000001,0.11000000000000001,0.2800000000000001,0.09000000000000002
12,1,1,0,3,0.5900000000000003,2,9,40,16,109,14,2.7799999999999976,0.6000000000000003,0.4300000000000002,0.25000000000000006,4,2,2,1,29,4,5,2,5,0,19,7,LH,0.09586206896551726,0.15000000000000008,0.086,0.12500000000000003
12,1,2,0,7,0.35000000000000014,2,5,108,92,89,6,2.699999999999994,0.16,0.6000000000000003,1.0000000000000007,6,2,3,3,22,3,9,9,3,0,14,7,LH,0.12272727272727275,0.05333333333333334,0.06666666666666667,0.11111111111111113
12,2,3,0,4,0.38000000000000017,2,5,2,46,44,98,4.909999999999948,0.03,0.18000000000000002,0.02,12,1,3,1,43,1,3,1,2,0,18,7,LH,0.11418604651162793,0.03,0.05999999999999999,0.02
12,2,4,0,9,0.24000000000000007,2,3,63,72,112,15,2.4799999999999964,0.3100000000000001,0.49000000000000027,1.0700000000000007,6,2,2,3,18,3,3,11,4,0,16,7,LH,0.1377777777777778,0.10333333333333333,0.16333333333333333,0.09727272727272727
12,3,5,0,7,0.13999999999999999,2,3,86,46,112,23,2.0800000000000014,0.9700000000000006,0.20000000000000004,0.38000000000000017,5,2,2,2,13,9,3,6,3,0,16,7,LH,0.16000000000000006,0.10777777777777779,0.06666666666666667,0.06333333333333332
12,3,6,0,6,0.21000000000000005,2,3,4,55,54,53,3.3199999999999776,0.38000000000000017,0.24000000000000007,0.03,9,3,3,1,23,6,4,1,4,0.5,30,7,LH,0.14434782608695657,0.06333333333333334,0.06,0.03
12,4,7,0,9,0.2900000000000001,2,3,61,62,4,10,2.7599999999999913,0.15,0.21000000000000005,0.37000000000000016,7,1,2,2,26,1,2,4,4,0,20,7,LH,0.10615384615384617,0.15,0.10500000000000002,0.0925
12,4,8,0,7,0.6600000000000004,12,13,96,114,58,28,4.5099999999999625,0.5700000000000003,1.0700000000000007,0.4400000000000002,18,3,7,3,38,4,10,3,3,0,14,7,LH,0.11868421052631581,0.14250000000000007,0.10700000000000001,0.14666666666666672
12,5,9,0,10,0.35000000000000014,3,5,68,41,38,16,3.729999999999972,0.2700000000000001,0.2900000000000001,0.03,11,1,2,1,35,1,5,1,6,0,20,7,LH,0.1065714285714286,0.2700000000000001,0.058,0.03
12,5,10,0,5,0.6100000000000003,2,7,3,105,10,106,8.439999999999877,0.04,0.04,0.01,19,2,1,1,66,2,1,1,6,0,16,7,LH,0.1278787878787879,0.02,0.04,0.01
12,6,11,0,6,0.2700000000000001,2,3,4,52,51,111,2.8699999999999886,0.19000000000000003,0.08,0.15,4,2,1,1,26,4,1,1,4,0,16,7,LH,0.11038461538461539,0.0475,0.08,0.15
12,6,12,0,9,0.20000000000000004,2,3,70,97,98,65,3.1499999999999813,0.46000000000000024,0.23000000000000007,0.10999999999999999,7,3,2,2,28,6,5,2,4,0,12,7,LH,0.11250000000000002,0.07666666666666667,0.046,0.05500000000000001
12,7,13,1,8,0.3100000000000001,2,5,113,51,93,57,1.8500000000000012,1.1300000000000008,0.2700000000000001,0.11999999999999998,5,5,2,1,17,5,3,2,2,0,13,7,LH,0.10882352941176472,0.22600000000000006,0.09,0.05999999999999999
12,7,14,1,2,0.8200000000000005,14,19,83,4,106,98,3.4599999999999884,0.22000000000000006,2.579999999999989,0.7800000000000005,20,2,7,4,43,2,20,5,3,0,13,7,LH,0.08046511627906977,0.10999999999999999,0.12900000000000003,0.15600000000000006
12,8,15,1,9,0.2700000000000001,3,6,62,69,81,67,2.1400000000000015,0.3300000000000001,1.0000000000000007,0.18000000000000002,9,2,6,2,24,2,9,3,4,0.5,15,7,LH,0.08916666666666667,0.16500000000000004,0.11111111111111113,0.060000000000000005
12,8,16,1,5,0.49000000000000027,3,6,108,101,54,12,2.979999999999991,0.37000000000000016,0.5200000000000002,0.09999999999999999,9,3,2,1,25,3,9,1,6,0,14,7,LH,0.11920000000000001,0.12333333333333332,0.057777777777777775,0.09999999999999999
12,9,17,1,10,0.3300000000000001,2,3,22,70,20,69,1.7600000000000011,0.8000000000000005,0.22000000000000006,3.239999999999975,5,3,1,7,13,5,1,28,6,0,20,7,LH,0.1353846153846154,0.16000000000000003,0.22000000000000006,0.11571428571428573
