Subject,Round,Phase,afterbreak,Schema,Schema_RT,Schema_OB,Schema_AS,Cho_1,Cho_2,Cho_3,Cho_4,RT_1,RT_2,RT_3,RT_4,OB_1,OB_2,OB_3,OB_4,AS_1,AS_2,AS_3,AS_4,schema_payoff,AC,performance,breakR,type,dwellmean_1,dwellmean_2,dwellmean_3,dwellmean_4
1,1,1,0,3,0.34000000000000014,2,5,32,97,28,94,3.0999999999999854,0.5500000000000003,0.12999999999999998,0.4100000000000002,8,1,1,3,13,1,1,4,5,0,15,7,H,0.23846153846153856,0.5500000000000003,0.12999999999999998,0.10250000000000002
1,1,2,0,8,0.2700000000000001,2,3,21,73,117,114,3.5799999999999734,0.8600000000000005,0.09999999999999999,0.04,6,3,2,1,9,3,2,1,2,0,13,7,H,0.397777777777778,0.2866666666666668,0.05,0.04
1,2,3,0,5,0.3000000000000001,2,3,18,45,104,92,2.3600000000000003,0.4000000000000002,0.5800000000000003,0.4000000000000002,7,2,1,1,10,3,1,1,5,0,16,7,H,0.23600000000000007,0.13333333333333336,0.5800000000000003,0.4000000000000002
1,2,4,0,1,0.22000000000000006,2,3,25,78,113,2,2.849999999999988,0.6800000000000004,0.24000000000000007,0.5900000000000003,5,3,2,4,10,3,2,5,3,0,16,7,H,0.28500000000000014,0.22666666666666674,0.12000000000000002,0.11800000000000004
1,3,5,0,1,0.46000000000000024,4,6,84,82,77,120,3.859999999999972,0.07,0.08,1.2500000000000009,12,1,1,4,18,1,1,5,3,0.5,11,7,H,0.21444444444444452,0.07,0.08,0.2500000000000001
1,3,6,0,9,0.7300000000000004,13,14,61,69,5,108,3.049999999999995,0.4100000000000002,0.6200000000000003,0.3300000000000001,18,2,3,2,23,3,3,2,4,0,16,7,H,0.13260869565217395,0.1366666666666667,0.20666666666666675,0.16500000000000004
1,4,7,0,4,0.24000000000000007,2,3,100,103,31,74,1.620000000000001,2.52999999999999,0.15,0.05,5,6,1,1,7,9,1,1,2,0,12,7,H,0.2314285714285715,0.2811111111111112,0.15,0.05
1,4,8,0,5,0.17,2,3,120,112,17,109,2.939999999999985,1.400000000000001,0.5300000000000002,1.280000000000001,9,4,3,4,11,5,3,5,5,0.5,12,7,H,0.2672727272727274,0.2800000000000001,0.17666666666666675,0.2560000000000001
1,5,9,0,6,0.35000000000000014,2,4,8,5,3,9,3.169999999999984,0.16,24.320000000001002,5.289999999999932,8,1,18,13,13,1,53,20,6,1,72,7,H,0.24384615384615393,0.16,0.4588679245283021,0.2645000000000001
1,5,10,0,9,0.2900000000000001,2,3,119,63,61,118,5.249999999999939,0.37000000000000016,0.02,0.6300000000000003,9,3,1,3,14,3,1,3,4,0,12,7,H,0.3750000000000002,0.12333333333333338,0.02,0.21000000000000008
1,6,11,0,10,0.11999999999999998,1,2,86,44,71,3,2.2099999999999995,1.8900000000000015,2.159999999999998,0.2900000000000001,4,5,2,2,6,9,2,2,3,0,18,7,H,0.36833333333333357,0.21000000000000008,1.0800000000000007,0.14500000000000005
1,6,12,0,8,0.37000000000000016,2,3,80,111,35,28,5.589999999999933,0.3000000000000001,0.02,0.060000000000000005,11,2,1,2,17,2,1,2,2,0,15,7,H,0.32882352941176485,0.15000000000000002,0.02,0.03
1,7,13,1,1,0.36000000000000015,2,3,25,74,99,104,3.139999999999985,0.5700000000000003,0.18000000000000002,0.12999999999999998,6,3,1,1,9,3,1,1,3,0,12,7,H,0.3488888888888891,0.19000000000000006,0.18000000000000002,0.12999999999999998
1,7,14,1,2,0.2700000000000001,2,3,21,120,111,54,3.319999999999979,0.2800000000000001,0.38000000000000017,0.08,7,1,3,1,12,1,4,2,4,0,14,7,H,0.2766666666666668,0.2800000000000001,0.09500000000000001,0.04
1,8,15,1,11,0.26000000000000006,2,3,98,22,71,23,2.419999999999998,1.280000000000001,0.3200000000000001,0.2700000000000001,6,3,2,2,13,3,2,3,4,0,18,7,H,0.18615384615384623,0.42666666666666686,0.16000000000000003,0.09000000000000001
1,8,16,1,13,0.22000000000000006,2,4,114,110,37,53,2.4499999999999966,0.5500000000000003,1.330000000000001,0.9600000000000006,7,2,5,4,14,5,5,4,2,0,13,7,H,0.17500000000000007,0.10999999999999999,0.26600000000000007,0.2400000000000001
1,9,17,1,2,0.36000000000000015,2,3,24,52,37,55,2.629999999999996,0.2700000000000001,0.8300000000000005,0.8700000000000006,7,1,3,3,9,2,4,3,4,0,19,7,H,0.2922222222222224,0.13499999999999998,0.20750000000000005,0.29000000000000015
1,9,18,1,7,0.9400000000000006,10,11,74,8,26,6,2.870000000000002,0.4400000000000002,1.1900000000000008,1.6200000000000012,13,2,4,4,14,2,5,4,6,0,20,7,H,0.20500000000000007,0.2200000000000001,0.2380000000000001,0.40500000000000025
1,10,19,1,1,1.0400000000000007,5,6,42,119,48,74,3.959999999999982,0.46000000000000024,0.17,0.16,12,2,1,1,17,3,1,1,3,0,15,7,H,0.23294117647058832,0.15333333333333335,0.17,0.16
1,10,20,1,3,0.24000000000000007,2,5,108,26,35,107,3.3699999999999775,0.16,1.6100000000000012,0.11999999999999998,8,1,4,2,13,1,4,2,5,0,14,7,H,0.2592307692307694,0.16,0.4025000000000002,0.06
1,11,21,1,15,0.2800000000000001,2,3,39,17,118,113,2.7399999999999918,0.25000000000000006,0.46000000000000024,0.6900000000000004,7,1,2,3,12,1,2,3,6,0,15,7,H,0.22833333333333342,0.25000000000000006,0.23000000000000007,0.2300000000000001
1,11,22,1,14,0.15,2,2,1,27,99,103,5.199999999999937,0.01,0.13999999999999999,0.05,11,1,2,1,15,1,2,1,3,0,15,7,H,0.34666666666666685,0.01,0.06999999999999999,0.05
1,12,23,1,8,0.2900000000000001,3,4,13,87,62,86,8.239999999999876,0.08,0.3900000000000002,0.01,16,2,2,1,22,2,2,1,2,0,16,7,H,0.37454545454545474,0.04,0.1950000000000001,0.01
1,12,24,1,1,0.3000000000000001,2,5,79,11,8,82,2.330000000000001,0.7200000000000004,0.6600000000000004,0.3200000000000001,7,2,3,1,11,2,4,1,3,0,18,7,H,0.21181818181818188,0.36000000000000015,0.16500000000000004,0.3200000000000001
1,13,25,1,15,0.2700000000000001,2,3,80,18,13,16,2.1300000000000017,0.9100000000000006,0.8000000000000005,2.619999999999988,5,2,2,9,7,3,2,9,6,0.5,21,7,H,0.30428571428571444,0.30333333333333345,0.4000000000000002,0.29111111111111126
1,13,26,1,14,0.20000000000000004,2,3,95,32,66,12,2.0900000000000016,1.1700000000000008,0.5200000000000002,0.47000000000000025,6,4,3,2,8,4,4,2,3,0,18,7,H,0.2612500000000001,0.2925000000000001,0.13,0.23500000000000004
1,14,27,1,15,0.37000000000000016,2,3,13,86,92,29,3.239999999999983,0.36000000000000015,0.20000000000000004,0.18000000000000002,7,2,1,1,18,3,1,1,6,0,17,7,H,0.18000000000000005,0.12000000000000002,0.20000000000000004,0.18000000000000002
1,14,28,1,2,0.5800000000000003,6,7,8,10,43,4,2.9599999999999937,1.320000000000001,0.3300000000000001,0.3000000000000001,10,5,2,2,14,7,2,2,4,0.5,23,7,H,0.21142857142857152,0.18857142857142864,0.165,0.15000000000000005
1,15,29,1,1,0.46000000000000024,2,3,78,31,83,33,4.709999999999954,1.1400000000000008,0.02,0.8800000000000006,7,4,1,4,9,4,1,4,3,0,16,7,H,0.5233333333333337,0.28500000000000014,0.02,0.22000000000000008
1,15,30,1,11,2.3099999999999947,6,9,67,65,47,44,3.3199999999999954,0.6400000000000003,0.22000000000000006,1.0000000000000007,8,2,2,3,12,3,2,7,4,0,18,7,H,0.2766666666666668,0.21333333333333343,0.10999999999999999,0.1428571428571429
1,16,31,1,14,1.0700000000000007,3,5,93,41,67,43,4.179999999999978,0.45000000000000023,0.5600000000000003,0.26000000000000006,9,1,2,1,12,1,2,1,3,0,17,7,H,0.3483333333333335,0.45000000000000023,0.28000000000000014,0.26000000000000006
1,16,32,1,1,0.6200000000000003,9,12,30,22,77,20,3.419999999999985,0.17,0.20000000000000004,0.15,16,1,1,1,21,1,2,1,3,0,20,7,H,0.16285714285714292,0.17,0.09999999999999999,0.15
1,17,33,1,7,0.2800000000000001,2,3,40,3,48,45,3.3999999999999777,2.3099999999999947,0.6900000000000004,0.46000000000000024,9,5,2,2,16,7,2,2,6,0.5,21,7,H,0.21250000000000008,0.3300000000000001,0.3450000000000002,0.23000000000000007
1,17,34,1,2,0.19000000000000003,2,3,75,80,20,19,2.8299999999999876,0.35000000000000014,0.34000000000000014,0.21000000000000005,8,2,2,1,16,2,3,1,4,0,18,7,H,0.17687500000000006,0.17500000000000002,0.11333333333333331,0.21000000000000005
1,18,35,1,3,0.5400000000000003,2,9,31,17,35,21,3.849999999999974,0.10999999999999999,0.07,0.9400000000000006,12,1,1,6,21,1,1,7,5,0,22,7,H,0.1833333333333334,0.10999999999999999,0.07,0.1342857142857143
1,18,36,1,13,0.19000000000000003,2,3,93,40,39,92,2.5199999999999942,0.4300000000000002,0.26000000000000006,0.15,9,2,1,1,12,2,2,1,2,0,16,7,H,0.21000000000000008,0.21500000000000002,0.13,0.15
1,19,37,1,1,1.0200000000000007,4,6,44,64,61,78,3.209999999999998,0.9300000000000006,0.9900000000000007,0.13999999999999999,7,2,2,2,12,3,2,2,3,0,16,7,H,0.2675000000000001,0.31000000000000016,0.4950000000000003,0.06999999999999999
1,19,38,1,7,0.7200000000000004,3,5,113,109,115,11,3.639999999999982,0.19000000000000003,0.3000000000000001,0.3900000000000002,9,1,1,2,14,1,1,2,6,0.5,12,7,H,0.2600000000000001,0.19000000000000003,0.3000000000000001,0.19500000000000006
1,20,39,1,8,0.20000000000000004,2,4,91,70,105,85,3.0099999999999842,0.20000000000000004,0.5000000000000002,0.2700000000000001,6,1,4,2,11,1,5,2,2,0,12,7,H,0.27363636363636373,0.20000000000000004,0.09999999999999999,0.13500000000000004
1,20,40,1,2,0.21000000000000005,2,3,43,78,42,84,3.4699999999999744,0.5300000000000002,0.45000000000000023,1.380000000000001,8,2,3,5,14,3,4,5,4,0,16,7,H,0.24785714285714294,0.17666666666666672,0.11250000000000002,0.2760000000000001
1,21,41,1,3,0.36000000000000015,2,3,29,118,91,58,4.049999999999965,1.270000000000001,0.19000000000000003,1.0600000000000007,11,5,4,4,15,6,4,5,5,0,14,7,H,0.27000000000000013,0.21166666666666675,0.0475,0.21200000000000008
1,21,42,1,8,0.7400000000000004,2,5,107,105,37,42,2.929999999999998,0.8300000000000005,1.0200000000000007,0.16,6,2,2,1,11,2,2,1,2,0,14,7,H,0.26636363636363647,0.4150000000000002,0.5100000000000002,0.16
2,1,1,0,9,0.3000000000000001,2,3,99,96,104,1,5.789999999999927,0.38000000000000017,0.34000000000000014,1.0900000000000007,13,1,2,2,25,1,2,2,4,0,13,7,H,0.23160000000000008,0.38000000000000017,0.17000000000000004,0.5450000000000003
2,1,2,0,2,0.38000000000000017,2,5,35,51,78,118,5.5299999999999345,0.20000000000000004,1.2000000000000008,0.3200000000000001,11,2,3,1,23,2,6,1,4,0,14,7,H,0.24043478260869575,0.09999999999999999,0.20000000000000007,0.3200000000000001
2,2,3,0,9,0.37000000000000016,2,5,71,2,83,79,4.78999999999995,3.239999999999975,0.48000000000000026,1.8700000000000014,10,6,2,5,17,11,3,11,4,0,16,7,H,0.2817647058823531,0.29454545454545467,0.16000000000000003,0.17000000000000004
2,2,4,0,7,0.4200000000000002,3,5,50,112,22,117,5.29999999999994,1.0900000000000007,0.6900000000000004,1.2000000000000008,10,3,3,4,28,3,3,4,6,0,14,7,H,0.18928571428571433,0.3633333333333335,0.2300000000000001,0.3000000000000001
2,3,5,0,8,0.3300000000000001,2,3,23,63,68,110,3.0399999999999863,0.9900000000000007,1.9700000000000015,0.13999999999999999,5,2,4,1,12,2,4,1,2,0,16,7,H,0.25333333333333347,0.49500000000000033,0.49250000000000027,0.13999999999999999
2,3,6,0,3,0.26000000000000006,2,3,36,26,101,105,4.059999999999963,0.2900000000000001,1.480000000000001,0.3300000000000001,7,1,4,2,15,1,6,2,5,0,14,7,H,0.2706666666666668,0.2900000000000001,0.24666666666666676,0.16500000000000004
2,4,7,0,1,0.22000000000000006,2,3,80,73,84,112,3.7599999999999687,2.099999999999999,0.16,0.6100000000000003,10,5,2,2,16,7,2,2,3,0.5,11,7,H,0.2350000000000001,0.30000000000000016,0.07999999999999999,0.3050000000000001
2,4,8,0,9,0.2700000000000001,2,3,26,29,31,21,4.909999999999946,0.5200000000000002,1.0200000000000007,0.5000000000000002,10,2,4,3,17,3,7,3,4,0.5,21,7,H,0.2888235294117648,0.17333333333333334,0.14571428571428577,0.16666666666666669
2,5,9,0,3,0.24000000000000007,2,3,103,33,70,27,5.019999999999943,1.1500000000000008,2.5999999999999885,0.05,9,4,6,2,23,4,6,2,5,0,16,7,H,0.21826086956521745,0.2875000000000001,0.43333333333333357,0.025
2,5,10,0,6,0.6100000000000003,3,5,12,110,52,46,2.8499999999999965,4.759999999999943,0.5100000000000002,0.4000000000000002,7,10,4,2,15,19,4,3,6,0,17,7,H,0.19000000000000006,0.25052631578947376,0.1275,0.1333333333333334
2,6,11,0,5,0.5100000000000002,2,4,1,37,5,49,4.299999999999963,1.1800000000000008,1.6900000000000013,1.2300000000000009,8,4,5,6,17,5,7,10,5,0,21,7,H,0.25294117647058834,0.23600000000000004,0.24142857142857155,0.12300000000000001
2,6,12,0,9,0.6600000000000004,2,7,63,17,120,33,3.409999999999986,1.1500000000000008,1.460000000000001,0.3000000000000001,8,2,3,2,19,4,4,2,4,0,17,7,H,0.17947368421052637,0.28750000000000014,0.36500000000000016,0.15000000000000002
2,7,13,1,15,0.24000000000000007,2,3,13,102,20,100,8.739999999999863,0.03,0.04,0.08,13,1,1,1,34,1,1,1,6,0,16,7,H,0.25705882352941184,0.03,0.04,0.08
2,7,14,1,14,0.26000000000000006,2,3,119,41,86,5,5.419999999999934,0.36000000000000015,2.439999999999992,0.5600000000000003,10,1,6,3,16,1,8,3,3,0,16,7,H,0.33875000000000016,0.36000000000000015,0.30500000000000016,0.18666666666666673
2,8,15,1,14,0.34000000000000014,2,4,96,91,86,41,2.7599999999999927,1.8200000000000014,0.3200000000000001,0.8200000000000005,5,5,1,4,10,9,1,4,3,0.5,14,7,H,0.27600000000000013,0.20222222222222228,0.3200000000000001,0.20500000000000004
2,8,16,1,1,0.5000000000000002,5,6,74,76,25,19,4.699999999999955,1.0000000000000007,0.23000000000000007,0.36000000000000015,14,3,1,2,18,3,1,2,3,0,17,7,H,0.2611111111111112,0.3333333333333335,0.23000000000000007,0.18000000000000002
2,9,17,1,3,0.17,2,5,31,50,88,36,4.019999999999962,0.36000000000000015,0.2900000000000001,0.4000000000000002,7,1,1,2,19,1,1,7,5,0,17,7,H,0.21157894736842114,0.36000000000000015,0.2900000000000001,0.05714285714285714
2,9,18,1,11,0.34000000000000014,2,3,63,110,61,78,2.549999999999997,1.270000000000001,0.9200000000000006,0.25000000000000006,5,5,3,1,11,8,4,2,4,0,13,7,H,0.2318181818181819,0.15875000000000006,0.23000000000000007,0.125
2,10,19,1,15,2.5499999999999896,11,19,51,16,13,58,5.129999999999979,0.6800000000000004,5.729999999999922,1.430000000000001,15,3,11,6,33,4,21,8,6,0,20,7,H,0.15545454545454548,0.17000000000000004,0.27285714285714296,0.17875000000000008
2,10,20,1,12,1.1400000000000008,4,6,37,7,90,96,4.759999999999968,2.569999999999989,0.7900000000000005,1.5800000000000012,9,4,1,4,24,6,1,5,5,0,17,7,H,0.1983333333333334,0.42833333333333357,0.7900000000000005,0.3160000000000001
2,11,21,1,3,0.7400000000000004,4,6,36,27,49,88,4.189999999999971,1.470000000000001,2.5199999999999902,0.08,11,4,7,1,21,4,8,1,5,0,17,7,H,0.19952380952380958,0.36750000000000016,0.31500000000000017,0.08
2,11,22,1,1,0.46000000000000024,6,6,64,97,98,82,11.03999999999982,0.01,0.7200000000000004,0.01,20,1,2,1,35,1,2,1,3,0,11,7,H,0.31542857142857156,0.01,0.3600000000000002,0.01
2,12,23,1,13,0.4100000000000002,7,8,25,84,33,54,6.929999999999906,0.16,0.4200000000000002,0.6000000000000003,15,2,4,2,32,2,5,2,2,0,17,7,H,0.21656250000000007,0.08,0.08399999999999999,0.3000000000000001
2,12,24,1,8,0.35000000000000014,2,5,48,88,42,102,2.3900000000000006,1.310000000000001,0.8800000000000006,0.37000000000000016,6,5,5,2,10,5,7,2,2,0,15,7,H,0.2390000000000001,0.26200000000000007,0.12571428571428575,0.18500000000000003
2,13,25,1,7,0.12999999999999998,2,3,7,119,1,54,1.9800000000000013,2.109999999999999,0.17,1.260000000000001,5,5,1,2,8,13,1,7,6,0,18,7,H,0.2475000000000001,0.16230769230769235,0.17,0.18000000000000005
2,13,26,1,3,0.3200000000000001,3,4,18,30,21,105,4.589999999999954,0.6200000000000003,0.15,2.6399999999999877,11,3,1,8,21,3,1,13,5,0,19,7,H,0.21857142857142864,0.2066666666666667,0.15,0.20307692307692315
2,14,27,1,13,0.6000000000000003,4,6,11,5,1,56,4.299999999999965,2.0500000000000003,1.330000000000001,0.060000000000000005,11,6,4,1,19,10,6,1,2,0.5,22,7,H,0.22631578947368428,0.20500000000000007,0.22166666666666673,0.060000000000000005
2,14,28,1,11,0.47000000000000025,4,5,63,103,107,83,2.7899999999999947,1.6800000000000013,0.9200000000000006,0.3300000000000001,7,7,5,2,9,9,6,2,4,0,11,7,H,0.31000000000000016,0.1866666666666667,0.15333333333333335,0.16500000000000004
2,15,29,1,11,0.2900000000000001,2,4,63,20,15,69,2.1300000000000017,0.6100000000000003,0.6600000000000004,2.209999999999997,5,3,2,9,8,3,3,10,4,0,20,7,H,0.26625000000000015,0.20333333333333342,0.22000000000000006,0.22100000000000009
2,15,30,1,2,6.31999999999991,9,28,10,46,56,2,8.179999999999911,2.399999999999993,0.09,0.20000000000000004,12,7,2,2,34,8,2,2,4,0,21,7,H,0.24058823529411777,0.3000000000000001,0.045,0.09999999999999999
2,16,31,1,15,0.21000000000000005,2,5,21,15,17,69,3.66999999999997,0.37000000000000016,1.270000000000001,0.15,10,2,4,1,15,3,8,1,6,0.5,22,7,H,0.24466666666666678,0.12333333333333332,0.15875000000000006,0.15
2,16,32,1,2,0.35000000000000014,2,3,79,7,74,59,3.2299999999999827,0.5900000000000003,1.1600000000000008,0.3300000000000001,6,2,3,2,11,2,4,2,4,0,16,7,H,0.29363636363636375,0.2950000000000001,0.2900000000000001,0.165
2,17,33,1,3,0.20000000000000004,3,4,36,25,3,65,2.3399999999999985,0.8300000000000005,0.5300000000000002,1.370000000000001,7,3,1,3,14,5,1,3,5,0,20,7,H,0.1671428571428572,0.16600000000000004,0.5300000000000002,0.4566666666666669
2,17,34,1,13,1.1000000000000008,4,6,119,59,41,48,3.9899999999999833,1.1600000000000008,0.23000000000000007,0.13999999999999999,8,3,1,1,17,4,1,1,2,0,16,7,H,0.23470588235294126,0.29000000000000015,0.23000000000000007,0.13999999999999999
2,18,35,1,15,0.16,3,4,23,58,43,24,3.769999999999967,0.8400000000000005,0.20000000000000004,3.139999999999977,9,2,1,4,17,2,1,6,6,0,21,7,H,0.22176470588235303,0.42000000000000015,0.20000000000000004,0.5233333333333331
2,18,36,1,7,2.4999999999999907,6,14,11,36,112,118,6.889999999999942,0.3900000000000002,0.19000000000000003,0.19000000000000003,14,1,2,1,33,1,2,1,6,0,15,7,H,0.20878787878787886,0.3900000000000002,0.095,0.19000000000000003
2,19,37,1,14,0.49000000000000027,2,3,23,93,116,24,2.310000000000002,3.1999999999999758,0.38000000000000017,0.03,4,6,2,1,9,10,2,1,3,0,17,7,H,0.25666666666666677,0.3200000000000001,0.19000000000000006,0.03
2,19,38,1,3,2.479999999999991,8,20,28,11,75,10,3.2499999999999916,23.47000000000087,1.1400000000000008,0.02,9,19,3,1,21,63,3,1,5,0,20,7,H,0.15476190476190482,0.37253968253968267,0.38000000000000017,0.02
2,20,39,1,12,0.6000000000000003,2,3,59,90,49,93,3.969999999999972,0.7100000000000004,1.0200000000000007,0.16,7,2,4,1,10,2,4,1,5,0,14,7,H,0.3970000000000002,0.35500000000000015,0.2550000000000001,0.16
2,20,40,1,1,5.289999999999932,10,18,83,100,77,3,7.149999999999933,2.2799999999999954,0.09,0.4100000000000002,13,5,1,2,27,9,1,3,3,0,14,7,H,0.26481481481481495,0.2533333333333334,0.09,0.1366666666666667
2,21,41,1,2,0.6300000000000003,4,5,57,56,105,18,3.739999999999978,0.9500000000000006,0.24000000000000007,0.09999999999999999,10,4,2,1,16,5,2,1,4,0,16,7,H,0.23375000000000007,0.19000000000000003,0.12000000000000002,0.09999999999999999
2,21,42,1,13,0.3200000000000001,4,5,110,112,33,31,3.4599999999999773,1.5700000000000012,0.8700000000000006,0.08,12,5,4,1,17,6,4,1,2,0,14,7,H,0.20352941176470596,0.26166666666666677,0.21750000000000005,0.08
3,1,1,0,2,0.3000000000000001,2,3,55,24,58,23,4.5099999999999545,1.8700000000000014,0.12999999999999998,0.4100000000000002,7,2,2,2,15,6,2,2,4,0,20,7,H,0.3006666666666668,0.3116666666666668,0.06499999999999999,0.20500000000000004
3,1,2,0,1,0.36000000000000015,2,3,74,26,77,11,2.849999999999991,4.0299999999999585,0.23000000000000007,1.7600000000000013,6,7,2,5,11,19,3,8,3,0,17,7,H,0.2590909090909092,0.2121052631578948,0.07666666666666666,0.22000000000000008
3,2,3,0,2,0.26000000000000006,2,4,55,60,54,8,6.199999999999918,0.09,1.9800000000000015,2.949999999999981,18,1,3,8,30,1,4,12,4,0.5,18,7,H,0.20666666666666672,0.09,0.49500000000000033,0.24583333333333343
3,2,4,0,8,0.47000000000000025,2,4,17,119,112,114,3.8299999999999725,0.8800000000000006,0.7900000000000005,0.19000000000000003,6,3,2,1,12,5,5,1,2,0.5,12,7,H,0.3191666666666668,0.17600000000000005,0.15800000000000003,0.19000000000000003
3,3,5,0,4,0.4000000000000002,2,5,107,100,77,80,3.4899999999999785,1.0100000000000007,0.8600000000000005,0.20000000000000004,10,4,2,1,16,6,7,1,2,0,10,7,H,0.21812500000000007,0.1683333333333334,0.12285714285714286,0.20000000000000004
3,3,6,0,8,0.45000000000000023,6,7,120,36,118,18,4.39999999999996,1.7600000000000013,0.13999999999999999,1.8700000000000014,15,3,1,6,23,6,1,8,2,0,15,7,H,0.19130434782608702,0.29333333333333345,0.13999999999999999,0.23375000000000007
3,4,7,0,5,0.2900000000000001,2,3,45,37,46,108,3.2599999999999807,1.470000000000001,0.8500000000000005,0.3900000000000002,6,5,2,2,9,9,2,3,5,0.5,17,7,H,0.3622222222222224,0.16333333333333336,0.4250000000000002,0.13
3,4,8,0,3,0.48000000000000026,2,5,16,119,21,24,5.259999999999943,0.9500000000000006,0.4000000000000002,0.6600000000000004,9,2,2,2,22,2,3,4,5,0.5,20,7,H,0.2390909090909092,0.4750000000000002,0.13333333333333336,0.16500000000000006
3,5,9,0,1,0.16,2,3,78,81,83,84,3.6599999999999695,0.4400000000000002,1.9100000000000015,5.989999999999917,8,2,6,8,21,3,8,12,3,1,36,7,H,0.17428571428571435,0.1466666666666667,0.2387500000000001,0.499166666666667
3,5,10,0,2,1.0400000000000007,2,3,39,13,37,14,5.479999999999951,2.679999999999987,0.22000000000000006,0.2700000000000001,7,9,2,2,10,12,2,2,4,0,22,7,H,0.5480000000000003,0.2233333333333334,0.11,0.135
3,6,11,0,8,0.5800000000000003,3,7,116,64,71,113,8.539999999999875,0.3300000000000001,0.3100000000000001,0.05,10,1,1,2,34,1,1,2,2,0,12,7,H,0.2511764705882354,0.3300000000000001,0.3100000000000001,0.025
3,6,12,0,5,1.290000000000001,13,16,38,18,13,47,4.80999999999997,1.6800000000000013,0.22000000000000006,1.400000000000001,18,4,1,5,28,9,1,5,5,0,22,7,H,0.17178571428571435,0.1866666666666667,0.22000000000000006,0.28000000000000014
3,7,13,1,7,0.5400000000000003,2,5,1,49,98,58,4.50999999999996,0.5000000000000002,0.36000000000000015,0.5700000000000003,6,2,1,3,19,2,1,3,6,0,16,7,H,0.23736842105263167,0.2500000000000001,0.36000000000000015,0.19000000000000003
3,7,14,1,1,0.45000000000000023,2,5,76,80,63,22,5.509999999999937,0.9400000000000006,0.45000000000000023,0.22000000000000006,11,3,2,1,19,8,3,1,3,0,16,7,H,0.29000000000000015,0.11750000000000002,0.15000000000000005,0.22000000000000006
3,8,15,1,1,1.1300000000000008,13,14,78,56,51,76,5.519999999999952,0.23000000000000007,0.5300000000000002,0.5800000000000003,20,1,2,2,34,1,2,4,3,0,14,7,H,0.16235294117647064,0.23000000000000007,0.26500000000000007,0.14500000000000002
3,8,16,1,14,0.18000000000000002,2,2,1,70,6,105,18.29000000000003,0.01,0.01,0.02,20,1,1,1,62,1,1,1,3,0,18,7,H,0.29500000000000015,0.01,0.01,0.02
3,9,17,1,14,0.24000000000000007,2,3,51,50,86,90,3.3599999999999777,0.6600000000000004,0.9500000000000006,1.0100000000000007,9,2,3,5,10,2,5,7,3,0,14,7,H,0.3360000000000002,0.3300000000000001,0.19000000000000006,0.1442857142857143
3,9,18,1,1,0.4200000000000002,6,7,81,79,78,98,2.0800000000000014,1.280000000000001,0.8300000000000005,5.549999999999926,9,2,3,9,12,5,5,13,3,0.5,11,7,H,0.1733333333333334,0.2560000000000001,0.16600000000000004,0.4269230769230772
3,10,19,1,13,0.38000000000000017,2,3,86,9,39,113,4.929999999999947,0.3900000000000002,1.310000000000001,0.10999999999999999,7,2,3,1,15,2,9,1,2,0,16,7,H,0.32866666666666683,0.19500000000000003,0.14555555555555558,0.10999999999999999
3,10,20,1,3,0.9600000000000006,2,5,67,22,80,23,5.9699999999999385,0.4400000000000002,0.8200000000000005,0.3900000000000002,8,2,2,2,18,2,3,2,5,0,19,7,H,0.33166666666666683,0.22000000000000003,0.27333333333333343,0.19500000000000006
3,11,21,1,8,0.10999999999999999,2,3,106,3,2,11,4.139999999999959,0.7600000000000005,1.8700000000000014,0.9500000000000006,8,2,6,3,12,4,7,3,2,0.5,20,7,H,0.3450000000000002,0.19000000000000009,0.2671428571428573,0.3166666666666668
3,11,22,1,15,0.2900000000000001,2,4,114,115,18,13,5.109999999999942,0.47000000000000025,0.15,0.6100000000000003,8,2,1,4,19,3,1,5,6,0,16,7,H,0.26894736842105277,0.15666666666666673,0.15,0.12200000000000001
3,12,23,1,2,3.419999999999971,12,25,7,25,112,33,5.819999999999964,0.6900000000000004,1.9000000000000015,0.3100000000000001,14,2,2,2,34,2,11,2,4,0,18,7,H,0.17117647058823535,0.34500000000000014,0.17272727272727276,0.15500000000000005
3,12,24,1,14,0.5500000000000003,3,5,95,71,90,44,3.6699999999999777,0.5900000000000003,1.8200000000000014,0.5200000000000002,7,4,2,2,21,5,4,3,3,0,15,7,H,0.1747619047619048,0.11800000000000001,0.45500000000000024,0.17333333333333337
3,13,25,1,3,0.4200000000000002,2,4,32,102,52,107,4.309999999999961,0.4200000000000002,3.749999999999964,0.060000000000000005,11,1,4,1,21,1,6,1,5,0,13,7,H,0.2052380952380953,0.4200000000000002,0.6250000000000003,0.060000000000000005
3,13,26,1,15,0.4200000000000002,2,4,44,41,113,69,3.109999999999987,2.579999999999989,0.2700000000000001,0.47000000000000025,7,3,1,2,13,14,1,2,6,0,16,7,H,0.23923076923076933,0.18428571428571433,0.2700000000000001,0.23500000000000007
3,14,27,1,7,1.0400000000000007,2,4,115,93,8,3,5.939999999999941,0.6400000000000003,0.17,1.1500000000000008,11,3,2,7,17,4,2,7,6,0,17,7,H,0.34941176470588253,0.16000000000000003,0.08499999999999999,0.16428571428571434
3,14,28,1,2,0.5800000000000003,6,9,82,99,84,97,6.269999999999923,1.9200000000000015,0.5600000000000003,2.0000000000000013,14,4,3,6,27,8,4,9,4,0,10,7,H,0.2322222222222223,0.24000000000000013,0.14,0.2222222222222223
3,15,29,1,1,0.37000000000000016,2,4,12,45,10,72,2.1000000000000014,2.679999999999987,0.9100000000000006,0.7400000000000004,4,6,2,2,10,11,2,2,3,0,21,7,H,0.21000000000000008,0.2436363636363637,0.4550000000000003,0.37000000000000016
3,15,30,1,2,0.8900000000000006,4,7,25,91,32,55,7.079999999999913,0.5300000000000002,0.09,0.16,12,2,1,1,36,4,1,1,4,0,17,7,H,0.1966666666666667,0.1325,0.09,0.16
3,16,31,1,11,0.13999999999999999,2,3,72,63,69,100,2.6599999999999904,1.0900000000000007,0.8800000000000006,1.7400000000000013,5,2,2,4,15,2,2,5,4,0.5,14,7,H,0.1773333333333334,0.5450000000000003,0.4400000000000002,0.34800000000000014
3,16,32,1,2,1.1500000000000008,3,5,111,110,52,7,6.129999999999939,0.8800000000000006,0.38000000000000017,0.03,10,2,1,1,20,5,1,1,4,0,14,7,H,0.3065000000000001,0.17600000000000005,0.38000000000000017,0.03
3,17,33,1,2,0.09,2,2,2,4,54,32,22.940000000000772,0.05,0.20000000000000004,0.02,20,1,2,1,88,1,2,1,4,0,21,7,H,0.2606818181818183,0.05,0.1,0.02
3,17,34,1,11,0.2900000000000001,3,4,13,39,47,110,20.140000000000303,0.03,1.330000000000001,0.01,20,1,2,1,75,1,3,1,4,0,18,7,H,0.26853333333333346,0.03,0.4433333333333336,0.01
3,18,35,1,13,0.10999999999999999,2,3,115,112,117,72,2.489999999999993,0.2700000000000001,2.4199999999999924,0.5800000000000003,6,1,5,5,12,1,7,5,2,0.5,10,7,H,0.20750000000000007,0.2700000000000001,0.34571428571428586,0.11600000000000003
3,18,36,1,3,0.22000000000000006,2,3,25,34,2,85,4.3299999999999566,2.669999999999987,1.480000000000001,0.8800000000000006,11,5,6,3,15,6,7,3,5,0,19,7,H,0.2886666666666668,0.44500000000000023,0.21142857142857152,0.2933333333333335
3,19,37,1,12,0.6800000000000004,3,5,117,119,44,48,2.889999999999997,0.9300000000000006,1.490000000000001,1.320000000000001,5,4,3,4,11,5,4,5,5,0,14,7,H,0.2627272727272728,0.18600000000000005,0.37250000000000016,0.26400000000000007
3,19,38,1,14,0.13999999999999999,2,3,33,88,5,91,2.3799999999999963,0.26000000000000006,1.370000000000001,0.09,5,1,5,1,10,1,7,1,3,0,17,7,H,0.2380000000000001,0.26000000000000006,0.19571428571428579,0.09
3,20,39,1,3,0.5400000000000003,3,4,51,90,10,55,2.7499999999999973,2.2699999999999956,0.22000000000000006,0.45000000000000023,8,4,1,2,12,12,1,3,5,0,17,7,H,0.22916666666666674,0.1891666666666667,0.22000000000000006,0.15000000000000002
3,20,40,1,11,0.11999999999999998,2,3,45,70,63,120,3.6299999999999693,1.0300000000000007,1.2000000000000008,1.280000000000001,8,4,3,3,13,8,4,4,4,0,15,7,H,0.27923076923076934,0.12875000000000003,0.30000000000000016,0.3200000000000001
3,21,41,1,11,0.15,3,4,65,64,28,63,2.2199999999999998,0.7700000000000005,3.7799999999999634,0.01,6,2,6,1,17,3,10,1,4,0.5,17,7,H,0.13058823529411767,0.2566666666666667,0.37800000000000017,0.01
3,21,42,1,12,0.38000000000000017,2,4,38,41,18,44,4.669999999999953,2.4499999999999917,10.179999999999827,0.36000000000000015,7,7,16,2,20,9,36,2,5,0.5,21,7,H,0.2335000000000001,0.2722222222222223,0.2827777777777779,0.18000000000000002
4,1,1,0,9,0.46000000000000024,2,6,68,2,1,79,8.449999999999875,1.8400000000000014,1.0300000000000007,0.23000000000000007,14,5,5,1,21,8,5,1,4,0,19,7,H,0.4023809523809525,0.23000000000000007,0.20600000000000007,0.23000000000000007
4,1,2,0,5,0.45000000000000023,2,5,48,86,46,117,4.219999999999964,3.9199999999999604,0.3000000000000001,1.480000000000001,7,9,2,6,11,13,3,8,5,0,15,7,H,0.38363636363636383,0.3015384615384617,0.09999999999999999,0.18500000000000005
4,2,3,0,4,0.2800000000000001,2,3,108,102,10,100,5.65999999999993,1.8100000000000014,1.6500000000000012,0.10999999999999999,10,6,5,1,12,7,5,1,2,0.5,12,7,H,0.4716666666666669,0.2585714285714287,0.3300000000000001,0.10999999999999999
4,2,4,0,8,0.9100000000000006,15,17,118,111,82,18,9.989999999999851,0.10999999999999999,4.87999999999994,0.48000000000000026,20,1,8,3,46,1,11,3,2,0,13,7,H,0.21717391304347836,0.10999999999999999,0.4436363636363639,0.16000000000000003
4,3,5,0,8,0.25000000000000006,2,3,78,109,9,2,12.589999999999781,0.24000000000000007,0.24000000000000007,0.13999999999999999,18,3,1,1,41,3,1,1,2,0,17,7,H,0.3070731707317075,0.08,0.24000000000000007,0.13999999999999999
4,3,6,0,7,0.6700000000000004,11,12,13,18,19,93,6.02999999999993,1.1200000000000008,5.489999999999927,0.5400000000000003,18,5,10,2,24,6,16,2,6,0.5,21,7,H,0.25125000000000014,0.1866666666666667,0.3431250000000002,0.27000000000000013
4,4,7,0,2,0.2900000000000001,2,3,107,52,23,15,6.699999999999908,1.390000000000001,0.7200000000000004,0.19000000000000003,12,4,2,1,28,4,2,1,4,0,18,7,H,0.23928571428571438,0.34750000000000014,0.36000000000000015,0.19000000000000003
4,4,8,0,9,1.390000000000001,12,15,110,1,9,117,5.83999999999995,2.239999999999996,7.6399999999998816,1.0400000000000007,20,5,13,4,26,5,18,4,4,0,16,7,H,0.22461538461538472,0.44800000000000023,0.4244444444444447,0.2600000000000001
4,5,9,0,6,0.7400000000000004,6,7,85,88,2,101,9.109999999999866,0.3200000000000001,0.2700000000000001,0.5400000000000003,17,1,4,1,25,1,4,1,6,0,14,7,H,0.36440000000000017,0.3200000000000001,0.0675,0.5400000000000003
4,5,10,0,9,0.4400000000000002,2,3,118,68,75,63,5.179999999999944,0.6100000000000003,2.5099999999999905,0.5600000000000003,10,1,5,4,15,1,7,6,4,0,13,7,H,0.3453333333333335,0.6100000000000003,0.3585714285714287,0.09333333333333334
4,6,11,0,2,0.3000000000000001,2,3,55,58,52,54,6.299999999999916,0.5400000000000003,1.0000000000000007,1.6300000000000012,10,2,3,5,16,2,3,5,4,1,48,7,H,0.3937500000000002,0.2700000000000001,0.3333333333333335,0.3260000000000002
4,6,12,0,10,1.2200000000000009,3,4,96,21,95,14,3.1600000000000024,0.8800000000000006,1.360000000000001,0.4400000000000002,4,1,3,1,6,2,3,1,3,0,18,7,H,0.526666666666667,0.4400000000000002,0.4533333333333336,0.4400000000000002
4,7,13,1,1,0.48000000000000026,2,4,79,40,18,84,7.459999999999896,4.869999999999941,0.8700000000000006,2.3299999999999943,16,11,3,9,28,15,4,12,3,0,17,7,H,0.2664285714285715,0.3246666666666668,0.21750000000000008,0.19416666666666674
4,7,14,1,14,0.7500000000000004,3,5,119,117,85,90,7.839999999999893,1.0400000000000007,0.3100000000000001,1.490000000000001,14,3,2,5,23,6,3,5,3,0,10,7,H,0.3408695652173915,0.1733333333333334,0.10333333333333332,0.2980000000000001
4,8,15,1,2,0.3900000000000002,4,5,18,37,24,16,10.679999999999826,1.340000000000001,3.2499999999999747,0.05,18,4,6,1,25,4,11,1,4,0.5,23,7,H,0.42720000000000025,0.33500000000000013,0.2954545454545456,0.05
4,8,16,1,13,0.6800000000000004,3,4,110,10,2,9,4.349999999999966,2.0000000000000013,1.9700000000000015,0.20000000000000004,7,5,4,1,10,6,5,1,2,0.5,20,7,H,0.4350000000000002,0.3333333333333335,0.3940000000000002,0.20000000000000004
4,9,17,1,2,0.5700000000000003,2,6,86,95,6,54,7.449999999999898,0.5000000000000002,0.6500000000000004,0.21000000000000005,17,1,4,1,27,1,5,1,4,0,16,7,H,0.275925925925926,0.5000000000000002,0.13000000000000003,0.21000000000000005
4,9,18,1,1,0.46000000000000024,2,3,112,115,82,111,8.119999999999882,1.9300000000000015,0.16,1.1600000000000008,15,2,1,6,22,2,1,8,3,0.5,9,7,H,0.36909090909090925,0.9650000000000007,0.16,0.14500000000000005
4,10,19,1,15,0.3900000000000002,2,4,15,105,100,19,9.279999999999855,0.16,0.8700000000000006,0.07,16,2,3,1,30,2,3,1,6,0,16,7,H,0.30933333333333346,0.08,0.29000000000000015,0.07
4,10,20,1,7,1.1200000000000008,12,13,55,8,116,5,7.659999999999906,0.23000000000000007,0.3100000000000001,0.13999999999999999,20,2,2,1,32,2,2,1,6,0,18,7,H,0.2393750000000001,0.115,0.15500000000000003,0.13999999999999999
4,11,21,1,3,0.9300000000000006,3,3,5,101,92,7,32.20000000000209,0.01,0.05,0.08,20,1,1,1,73,1,1,1,5,0,17,7,H,0.441095890410959,0.01,0.05,0.08
4,11,22,1,2,0.7900000000000005,12,12,116,18,119,24,7.779999999999896,8.509999999999863,2.3099999999999947,4.109999999999957,20,14,6,7,32,23,6,10,4,0,16,7,H,0.2431250000000001,0.37000000000000016,0.38500000000000023,0.4110000000000002
4,12,23,1,13,0.8200000000000005,10,11,111,15,118,114,5.369999999999948,2.959999999999981,0.21000000000000005,1.7100000000000013,19,5,1,6,25,8,1,7,2,0.5,12,7,H,0.21480000000000007,0.37000000000000016,0.21000000000000005,0.24428571428571438
4,12,24,1,12,1.490000000000001,7,11,42,40,107,104,5.97999999999995,0.26000000000000006,2.5899999999999888,1.2300000000000009,18,1,7,2,31,1,10,2,5,0,14,7,H,0.1929032258064517,0.26000000000000006,0.2590000000000001,0.6150000000000004
4,13,25,1,3,1.290000000000001,14,17,32,104,31,33,7.139999999999921,2.0400000000000005,0.9400000000000006,1.1000000000000008,20,5,3,4,39,6,3,4,5,0.5,17,7,H,0.18307692307692314,0.34000000000000014,0.31333333333333346,0.27500000000000013
4,13,26,1,13,0.6900000000000004,2,4,17,20,119,57,5.239999999999948,0.6900000000000004,1.6700000000000013,0.7100000000000004,7,2,3,3,14,2,3,3,2,0,18,7,H,0.3742857142857145,0.3450000000000002,0.556666666666667,0.23666666666666675
4,14,27,1,13,0.2900000000000001,2,3,114,111,22,21,6.259999999999917,3.5499999999999683,0.8700000000000006,1.6400000000000012,12,10,3,9,22,12,3,9,2,0,16,7,H,0.28454545454545466,0.2958333333333335,0.29000000000000015,0.18222222222222226
4,14,28,1,8,0.25000000000000006,2,3,53,103,102,54,5.459999999999933,0.9400000000000006,2.0899999999999994,0.2900000000000001,12,3,8,1,22,4,9,1,2,0,12,7,H,0.24818181818181825,0.2350000000000001,0.2322222222222223,0.2900000000000001
4,15,29,1,14,0.8500000000000005,9,11,1,118,42,93,10.529999999999838,2.3099999999999947,1.410000000000001,0.02,20,8,4,1,37,8,6,1,3,0,16,7,H,0.28459459459459474,0.2887500000000001,0.23500000000000007,0.02
4,15,30,1,2,0.5100000000000002,4,8,58,53,51,18,5.169999999999945,2.289999999999995,1.1300000000000008,1.1400000000000008,12,5,4,3,22,5,5,4,4,0.5,18,7,H,0.2350000000000001,0.45800000000000024,0.22600000000000006,0.2850000000000001
4,16,31,1,11,0.5200000000000002,8,10,61,66,38,46,6.569999999999916,0.26000000000000006,2.489999999999991,5.219999999999933,19,1,5,8,27,1,6,10,4,0,18,7,H,0.24333333333333343,0.26000000000000006,0.4150000000000002,0.5220000000000004
4,16,32,1,1,0.34000000000000014,5,5,75,77,79,98,9.209999999999855,0.47000000000000025,2.1199999999999988,4.43999999999995,19,3,6,10,33,3,6,14,3,0.5,11,7,H,0.2790909090909092,0.1566666666666667,0.35333333333333355,0.3171428571428573
4,17,33,1,1,0.35000000000000014,2,3,76,75,112,79,7.3599999999998955,0.21000000000000005,1.0300000000000007,2.3299999999999943,16,1,3,7,26,1,4,8,3,0.5,11,7,H,0.28307692307692317,0.21000000000000005,0.2575000000000001,0.2912500000000001
4,17,34,1,12,0.48000000000000026,2,3,17,37,85,97,6.7799999999999105,0.6800000000000004,1.380000000000001,0.6100000000000003,13,3,3,2,28,5,3,2,5,0,16,7,H,0.24214285714285722,0.13600000000000004,0.46000000000000024,0.3050000000000001
4,18,35,1,7,0.37000000000000016,2,5,8,6,2,25,6.67999999999991,3.4399999999999706,0.7500000000000004,4.319999999999952,13,6,4,8,25,9,4,12,6,0.5,23,7,H,0.2672000000000001,0.38222222222222246,0.18750000000000006,0.3600000000000002
4,18,36,1,14,0.3200000000000001,1,2,89,93,48,59,8.129999999999878,1.410000000000001,0.9900000000000007,0.34000000000000014,17,4,5,2,24,4,5,2,3,0,15,7,H,0.33875000000000016,0.35250000000000015,0.19800000000000006,0.17000000000000004
4,19,37,1,3,0.3000000000000001,2,3,3,98,28,34,22.88000000000073,0.01,0.02,0.01,20,1,1,1,69,1,1,1,5,0,18,7,H,0.33159420289855074,0.01,0.02,0.01
4,19,38,1,15,0.17,3,4,16,111,58,52,3.879999999999965,3.0199999999999796,0.5500000000000003,0.7700000000000005,13,4,2,2,21,4,3,2,6,0,16,7,H,0.18476190476190482,0.7550000000000004,0.1833333333333334,0.3850000000000001
4,20,39,1,13,0.5300000000000002,2,7,109,60,119,114,10.419999999999835,2.3099999999999947,0.7600000000000005,1.450000000000001,17,6,2,3,32,7,2,3,2,0.5,10,7,H,0.32562500000000016,0.3300000000000001,0.3800000000000002,0.4833333333333336
4,20,40,1,3,0.5300000000000002,2,3,13,102,94,19,4.299999999999963,1.320000000000001,1.430000000000001,0.5400000000000003,10,2,4,2,21,2,6,2,5,0,17,7,H,0.2047619047619048,0.6600000000000004,0.23833333333333348,0.27000000000000013
5,1,1,0,9,0.4400000000000002,2,3,68,5,112,86,4.929999999999949,0.6200000000000003,0.26000000000000006,0.20000000000000004,11,3,1,1,25,4,1,1,4,0,15,7,H,0.19720000000000004,0.15500000000000003,0.26000000000000006,0.20000000000000004
5,1,2,0,2,0.9000000000000006,2,9,104,57,56,19,4.2899999999999725,0.34000000000000014,0.26000000000000006,0.4200000000000002,10,3,2,1,26,3,2,2,4,0,16,7,H,0.16500000000000004,0.11333333333333336,0.13,0.21000000000000005
5,2,3,0,3,0.6600000000000004,6,8,118,50,3,111,4.219999999999969,0.45000000000000023,1.1900000000000008,0.12999999999999998,10,2,4,1,23,2,5,1,5,0,14,7,H,0.18347826086956529,0.22500000000000012,0.23800000000000007,0.12999999999999998
5,2,4,0,9,0.4200000000000002,2,4,67,17,69,108,4.619999999999955,3.289999999999974,0.09999999999999999,0.3300000000000001,10,8,1,2,21,14,1,2,4,0,16,7,H,0.22000000000000008,0.2350000000000001,0.09999999999999999,0.165
5,3,5,0,3,0.6200000000000003,2,4,30,11,55,5,3.7299999999999782,0.5800000000000003,0.5600000000000003,0.4100000000000002,8,2,1,2,15,3,1,4,5,0,21,7,H,0.24866666666666676,0.19333333333333338,0.5600000000000003,0.1025
5,3,6,0,8,0.6300000000000003,8,8,43,47,94,113,7.999999999999888,0.18000000000000002,0.03,0.19000000000000003,20,2,1,2,38,3,1,2,2,0,15,7,H,0.21052631578947376,0.06,0.03,0.095
5,4,7,0,3,0.6300000000000003,3,7,50,60,49,115,3.63999999999998,0.7100000000000004,0.5400000000000003,0.7100000000000004,8,2,2,4,23,3,4,5,5,0.5,14,7,H,0.15826086956521743,0.23666666666666672,0.135,0.14200000000000002
5,4,8,0,9,1.1500000000000008,5,5,92,96,105,97,7.969999999999899,0.8900000000000006,1.490000000000001,2.619999999999988,17,3,4,4,28,4,6,5,4,0,10,7,H,0.28464285714285725,0.2225000000000001,0.24833333333333343,0.5240000000000002
5,5,9,0,9,0.4100000000000002,2,3,103,38,100,46,5.679999999999932,0.35000000000000014,0.18000000000000002,0.35000000000000014,9,1,1,2,26,1,1,2,4,0,14,7,H,0.21846153846153854,0.35000000000000014,0.18000000000000002,0.17500000000000002
5,5,10,0,8,0.4200000000000002,2,3,117,110,54,51,3.009999999999989,1.7900000000000014,0.5500000000000003,0.49000000000000027,8,4,2,2,18,14,2,2,2,0,12,7,H,0.16722222222222227,0.1278571428571429,0.27500000000000013,0.24500000000000008
5,6,11,0,9,0.3000000000000001,2,3,68,62,1,10,5.19999999999994,1.1100000000000008,0.5900000000000003,0.36000000000000015,18,5,3,5,25,5,3,5,4,0,20,7,H,0.20800000000000007,0.2220000000000001,0.1966666666666667,0.072
5,6,12,0,7,0.5200000000000002,2,5,13,23,38,21,4.1099999999999675,0.6000000000000003,0.5900000000000003,2.249999999999996,7,2,3,6,22,2,3,13,6,0.5,23,7,H,0.18681818181818188,0.3000000000000001,0.19666666666666674,0.17307692307692313
5,7,13,1,13,0.5300000000000002,4,6,1,55,45,53,4.539999999999959,0.6500000000000004,0.3200000000000001,0.09,9,3,2,1,29,5,3,1,2,0,19,7,H,0.15655172413793106,0.13,0.10666666666666667,0.09
5,7,14,1,1,0.45000000000000023,2,4,68,72,107,75,4.739999999999953,0.37000000000000016,0.19000000000000003,0.11999999999999998,10,2,2,1,20,2,3,1,3,0,13,7,H,0.23700000000000007,0.18500000000000003,0.06333333333333332,0.11999999999999998
5,8,15,1,7,0.4000000000000002,2,3,2,45,101,98,8.959999999999862,0.060000000000000005,0.01,0.09999999999999999,13,1,1,1,32,1,1,1,6,0,15,7,H,0.28000000000000014,0.060000000000000005,0.01,0.09999999999999999
5,8,16,1,3,0.7200000000000004,2,7,61,30,68,117,4.529999999999963,0.18000000000000002,1.1100000000000008,0.5100000000000002,9,1,3,1,22,2,5,1,5,0,15,7,H,0.20590909090909099,0.09,0.22200000000000006,0.5100000000000002
5,9,17,1,7,0.7000000000000004,2,4,50,107,99,97,7.169999999999907,0.02,0.3300000000000001,0.05,9,1,2,2,25,1,2,2,6,0.5,10,7,H,0.2868000000000001,0.02,0.16500000000000004,0.025
5,9,18,1,3,1.1900000000000008,4,8,69,25,80,17,4.829999999999967,0.24000000000000007,0.15,0.4200000000000002,8,2,1,1,18,2,1,1,5,0,18,7,H,0.2683333333333334,0.12000000000000004,0.15,0.4200000000000002
5,10,19,1,12,0.8100000000000005,4,6,77,70,71,46,4.059999999999976,0.8400000000000005,0.24000000000000007,0.4300000000000002,9,2,1,2,18,7,1,4,5,0,16,7,H,0.22555555555555562,0.12000000000000002,0.24000000000000007,0.10749999999999998
5,10,20,1,3,0.7700000000000005,3,8,111,34,58,54,4.9599999999999556,0.11999999999999998,1.2300000000000009,0.20000000000000004,8,1,7,1,27,1,7,1,5,0,15,7,H,0.18370370370370376,0.11999999999999998,0.17571428571428577,0.20000000000000004
5,11,21,1,1,0.3300000000000001,2,5,16,78,18,24,10.37999999999983,0.01,0.01,0.01,18,1,1,1,65,1,1,1,3,0.5,21,7,H,0.15969230769230774,0.01,0.01,0.01
5,11,22,1,11,0.3200000000000001,2,3,68,66,28,118,3.839999999999969,0.21000000000000005,2.0400000000000005,1.300000000000001,9,2,6,6,15,2,11,8,4,0,15,7,H,0.2560000000000001,0.105,0.1854545454545455,0.16250000000000003
5,12,23,1,3,0.7300000000000004,2,5,32,118,18,27,3.7199999999999807,3.4399999999999706,0.36000000000000015,0.18000000000000002,9,11,3,2,15,18,4,2,5,0,18,7,H,0.2480000000000001,0.19111111111111118,0.09000000000000001,0.09
5,12,24,1,2,0.4100000000000002,2,5,5,51,54,7,3.3099999999999823,1.8300000000000014,0.26000000000000006,0.18000000000000002,6,6,2,1,18,11,2,1,4,0,20,7,H,0.18388888888888896,0.1663636363636364,0.13,0.18000000000000002
5,13,25,1,2,0.21000000000000005,2,2,2,89,3,54,18.740000000000098,0.04,0.4200000000000002,0.01,20,1,2,1,70,1,2,1,4,0,19,7,H,0.26771428571428585,0.04,0.2100000000000001,0.01
5,13,26,1,11,0.22000000000000006,2,3,65,22,71,16,2.4599999999999964,0.8800000000000006,0.22000000000000006,0.9800000000000006,7,1,1,6,15,1,1,8,4,0,20,7,H,0.16400000000000003,0.8800000000000006,0.22000000000000006,0.12250000000000003
5,14,27,1,7,0.5800000000000003,2,6,11,52,4,6,3.8999999999999737,1.320000000000001,1.9200000000000015,0.7900000000000005,11,5,3,3,23,5,7,3,6,0.5,22,7,H,0.1695652173913044,0.26400000000000007,0.2742857142857144,0.2633333333333334
5,14,28,1,15,0.6900000000000004,5,9,35,34,13,90,5.4899999999999425,0.7500000000000004,1.7800000000000014,0.3000000000000001,16,4,6,1,31,4,9,1,6,0,19,7,H,0.17709677419354844,0.18750000000000003,0.19777777777777783,0.3000000000000001
5,15,29,1,1,0.6200000000000003,3,7,79,16,18,22,3.8499999999999757,0.24000000000000007,0.16,0.12999999999999998,8,1,1,1,23,1,1,1,3,0.5,21,7,H,0.16739130434782612,0.24000000000000007,0.16,0.12999999999999998
5,15,30,1,11,0.2800000000000001,2,4,92,95,105,61,6.789999999999906,0.8200000000000005,0.7800000000000005,0.01,16,3,3,1,36,3,4,1,4,0,12,7,H,0.18861111111111117,0.27333333333333343,0.19500000000000006,0.01
5,16,31,1,8,0.3300000000000001,2,3,13,93,26,106,22.0600000000006,0.01,0.01,0.01,20,1,1,1,92,1,1,1,2,0,16,7,H,0.23978260869565227,0.01,0.01,0.01
5,16,32,1,7,0.34000000000000014,2,4,8,54,115,7,1.4500000000000008,5.549999999999926,0.4100000000000002,0.02,4,8,3,1,6,19,3,1,6,0,18,7,H,0.24166666666666678,0.29210526315789487,0.13666666666666666,0.02
5,17,33,1,11,0.7100000000000004,2,8,67,11,12,2,1.570000000000001,1.9500000000000015,0.5600000000000003,3.649999999999966,4,3,2,5,10,4,3,10,4,0.5,22,7,H,0.15700000000000006,0.48750000000000027,0.18666666666666673,0.36500000000000016
5,17,34,1,15,0.45000000000000023,2,4,20,14,78,52,3.139999999999987,3.889999999999961,0.20000000000000004,1.0900000000000007,8,12,3,4,19,16,3,4,6,0,19,7,H,0.1652631578947369,0.2431250000000001,0.06666666666666667,0.2725000000000001
5,18,35,1,2,0.5800000000000003,2,6,80,52,116,119,4.499999999999961,0.19000000000000003,0.8500000000000005,0.26000000000000006,11,1,5,1,22,1,6,1,4,0,11,7,H,0.2045454545454546,0.19000000000000003,0.1416666666666667,0.26000000000000006
5,18,36,1,15,0.7800000000000005,3,8,13,26,94,102,3.949999999999977,12.349999999999781,0.01,1.8500000000000014,10,17,1,7,18,44,1,7,6,0,16,7,H,0.21944444444444453,0.28068181818181825,0.01,0.2642857142857144
5,19,37,1,7,0.5100000000000002,2,4,73,8,5,106,4.769999999999953,1.5100000000000011,1.370000000000001,0.02,14,3,5,1,20,8,8,1,6,0,17,7,H,0.23850000000000007,0.18875000000000006,0.17125000000000007,0.02
5,19,38,1,12,1.0900000000000007,2,8,37,16,15,59,3.759999999999988,0.9400000000000006,0.8000000000000005,0.25000000000000006,6,3,3,1,20,3,6,1,5,0,21,7,H,0.18800000000000006,0.31333333333333346,0.1333333333333334,0.25000000000000006
5,20,39,1,11,1.0600000000000007,2,7,119,75,71,109,5.669999999999947,0.4300000000000002,0.03,0.07,11,1,1,2,33,1,1,2,4,0,11,7,H,0.17181818181818187,0.4300000000000002,0.03,0.035
5,20,40,1,14,0.4400000000000002,3,4,89,90,53,45,2.609999999999998,0.8600000000000005,0.6900000000000004,0.36000000000000015,7,3,2,2,14,3,4,3,3,0,15,7,H,0.18642857142857147,0.28666666666666674,0.17250000000000004,0.12000000000000002
5,21,41,1,14,0.2700000000000001,2,3,93,65,26,86,2.1500000000000017,1.9700000000000015,0.7700000000000005,0.060000000000000005,5,5,3,1,11,8,3,1,3,0,15,7,H,0.19545454545454552,0.24625000000000008,0.25666666666666677,0.060000000000000005
5,21,42,1,2,0.49000000000000027,2,4,60,58,57,53,1.710000000000001,0.9800000000000006,0.8900000000000006,0.7200000000000004,4,2,4,2,6,3,4,6,4,1,48,7,H,0.28500000000000014,0.3266666666666668,0.22250000000000003,0.12000000000000002
6,1,1,0,7,0.47000000000000025,2,4,17,21,13,80,2.919999999999992,0.2800000000000001,7.22999999999989,0.6400000000000003,8,1,15,1,13,1,21,1,6,0.5,21,7,H,0.2246153846153847,0.2800000000000001,0.3442857142857145,0.6400000000000003
6,1,2,0,4,0.7300000000000004,2,7,107,3,104,72,3.0599999999999947,1.8900000000000015,0.05,0.46000000000000024,5,2,1,2,11,9,1,2,2,0,14,7,H,0.2781818181818183,0.21000000000000008,0.05,0.2300000000000001
6,2,3,0,10,0.37000000000000016,2,3,22,101,70,107,2.6099999999999963,0.7800000000000005,0.3100000000000001,0.22000000000000006,4,2,1,1,7,5,1,1,3,0,14,7,H,0.37285714285714305,0.15600000000000003,0.3100000000000001,0.22000000000000006
6,2,4,0,5,0.18000000000000002,2,2,4,40,9,83,2.869999999999987,0.7500000000000004,3.0699999999999785,0.3200000000000001,8,3,2,2,11,3,2,2,5,0,20,7,H,0.26090909090909103,0.2500000000000001,1.5349999999999893,0.16000000000000006
6,3,5,0,2,0.5600000000000003,3,6,58,60,55,32,2.9399999999999933,0.37000000000000016,0.08,2.06,10,2,1,5,18,3,1,8,4,0.5,17,7,H,0.16333333333333336,0.12333333333333332,0.08,0.25750000000000006
6,3,6,0,8,0.3900000000000002,3,4,117,41,39,38,2.1400000000000015,1.6900000000000013,0.3200000000000001,0.12999999999999998,7,3,2,1,10,4,2,1,2,0.5,17,7,H,0.21400000000000008,0.4225000000000002,0.16000000000000003,0.12999999999999998
6,4,7,0,4,0.4200000000000002,2,4,107,100,30,53,2.390000000000002,0.7700000000000005,0.9100000000000006,0.47000000000000025,8,2,2,2,11,5,3,2,2,0,13,7,H,0.21727272727272734,0.154,0.30333333333333345,0.23500000000000007
6,4,8,0,9,0.5100000000000002,2,4,70,47,68,63,2.959999999999992,0.9300000000000006,0.03,0.45000000000000023,7,3,1,2,14,3,1,2,4,0.5,17,7,H,0.2114285714285715,0.3100000000000001,0.03,0.2250000000000001
6,5,9,0,6,0.34000000000000014,3,4,67,11,99,70,2.9599999999999884,0.15,4.89999999999994,1.6800000000000013,9,1,6,3,13,1,6,4,6,0,16,7,H,0.22769230769230778,0.15,0.8166666666666672,0.4200000000000002
6,5,10,0,1,0.3000000000000001,2,3,79,80,34,36,1.8900000000000012,1.370000000000001,1.0600000000000007,0.10999999999999999,5,6,3,1,7,9,3,1,3,0,16,7,H,0.27000000000000013,0.15222222222222226,0.3533333333333335,0.10999999999999999
6,6,11,0,1,1.1600000000000008,2,7,78,8,7,115,3.0600000000000023,3.569999999999968,0.04,2.959999999999981,5,7,1,4,11,12,1,5,3,0,17,7,H,0.2781818181818183,0.29750000000000015,0.04,0.5920000000000003
6,6,12,0,7,0.16,2,3,13,50,107,31,17.779999999999955,0.03,0.02,0.01,20,1,1,1,54,1,1,1,6,0,17,7,H,0.3292592592592594,0.03,0.02,0.01
6,7,13,1,14,0.36000000000000015,2,4,12,87,93,45,2.1400000000000015,0.5900000000000003,0.2900000000000001,0.3100000000000001,5,2,2,1,11,2,2,1,3,0,17,7,H,0.1945454545454546,0.2950000000000001,0.14500000000000002,0.3100000000000001
6,7,14,1,3,0.22000000000000006,1,2,77,62,118,79,1.680000000000001,1.360000000000001,0.22000000000000006,0.16,3,2,2,1,5,3,2,1,5,0,12,7,H,0.3360000000000002,0.4533333333333336,0.11000000000000003,0.16
6,8,15,1,12,0.4200000000000002,3,4,49,1,80,9,2.8899999999999917,0.22000000000000006,0.3000000000000001,0.08,6,1,2,1,12,1,3,1,5,0,19,7,H,0.24083333333333343,0.22000000000000006,0.09999999999999999,0.08
6,8,16,1,13,0.48000000000000026,2,3,66,110,18,112,4.179999999999965,0.9500000000000006,0.4400000000000002,0.03,10,2,2,1,15,3,2,1,2,0,14,7,H,0.2786666666666668,0.3166666666666669,0.22000000000000008,0.03
6,9,17,1,12,0.6800000000000004,9,11,68,48,16,81,4.389999999999965,0.5200000000000002,0.12999999999999998,0.03,16,2,2,1,24,2,2,1,5,0,18,7,H,0.18291666666666673,0.2600000000000001,0.065,0.03
6,9,18,1,3,0.4000000000000002,2,4,34,113,11,32,1.740000000000001,0.6000000000000003,0.5800000000000003,0.3100000000000001,4,1,3,2,8,1,3,2,5,0,18,7,H,0.21750000000000008,0.6000000000000003,0.1933333333333334,0.155
6,10,19,1,8,0.3900000000000002,2,4,104,31,61,15,2.9899999999999887,0.6700000000000004,0.11999999999999998,0.09,8,1,1,1,11,1,2,1,2,0,17,7,H,0.2718181818181819,0.6700000000000004,0.06,0.09
6,10,20,1,7,0.4400000000000002,2,3,112,119,117,46,2.8799999999999923,0.8100000000000005,0.25000000000000006,0.46000000000000024,6,3,2,2,9,3,2,2,6,0.5,11,7,H,0.3200000000000001,0.27000000000000013,0.12500000000000003,0.23000000000000007
6,11,21,1,13,0.3300000000000001,2,3,53,84,117,81,1.570000000000001,0.8700000000000006,0.5900000000000003,0.18000000000000002,5,2,3,1,9,3,4,1,2,0,12,7,H,0.17444444444444449,0.2900000000000001,0.1475,0.18000000000000002
6,11,22,1,8,0.20000000000000004,1,2,72,99,69,66,2.639999999999992,1.8500000000000014,0.46000000000000024,0.060000000000000005,4,7,3,1,8,7,3,1,2,0.5,14,7,H,0.3300000000000001,0.2642857142857144,0.15333333333333338,0.060000000000000005
6,12,23,1,11,0.16,2,2,2,95,120,40,10.619999999999822,0.09,0.01,0.02,17,2,1,1,34,2,1,1,4,0,16,7,H,0.3123529411764707,0.045,0.01,0.02
6,12,24,1,3,0.6000000000000003,4,7,33,28,78,51,2.7299999999999986,0.8800000000000006,0.3100000000000001,0.22000000000000006,7,3,2,1,18,6,2,1,5,0,17,7,H,0.1516666666666667,0.1466666666666667,0.155,0.22000000000000006
6,13,25,1,13,0.6200000000000003,2,5,21,78,63,112,4.769999999999956,0.02,0.18000000000000002,0.03,8,1,2,1,12,1,2,1,2,0,15,7,H,0.3974999999999997,0.02,0.09000000000000001,0.03
6,13,26,1,2,0.5000000000000002,3,4,49,38,6,99,3.2999999999999847,0.20000000000000004,0.15,0.2900000000000001,8,1,1,1,13,1,1,1,4,0,17,7,H,0.25384615384615394,0.20000000000000004,0.15,0.2900000000000001
6,14,27,1,15,0.16,2,3,17,34,13,20,0.9400000000000005,1.500000000000001,2.109999999999999,0.6900000000000004,3,1,4,5,4,1,5,6,6,0.5,23,7,H,0.23500000000000013,1.500000000000001,0.4220000000000002,0.115
6,14,28,1,8,0.4000000000000002,2,3,96,3,97,45,2.5999999999999974,0.7900000000000005,0.12999999999999998,0.47000000000000025,6,1,1,1,11,1,1,2,2,0,16,7,H,0.23636363636363644,0.7900000000000005,0.12999999999999998,0.23500000000000007
6,15,29,1,8,1.310000000000001,2,6,53,43,46,57,2.3400000000000016,1.7400000000000013,0.21000000000000005,0.23000000000000007,3,4,1,3,7,6,1,3,2,0,18,7,H,0.33428571428571446,0.2900000000000001,0.21000000000000005,0.07666666666666666
6,15,30,1,11,0.48000000000000026,4,6,118,64,88,96,1.700000000000001,0.8000000000000005,0.6600000000000004,1.1800000000000008,6,2,2,3,9,2,2,3,4,0,12,7,H,0.18888888888888897,0.4000000000000002,0.3300000000000001,0.39333333333333353
6,16,31,1,3,1.8000000000000014,14,19,75,56,52,32,3.3800000000000026,0.08,0.08,2.9799999999999804,18,1,1,5,26,1,1,6,5,0,16,7,H,0.13000000000000003,0.08,0.08,0.496666666666667
6,16,32,1,15,0.2900000000000001,2,3,13,14,120,46,3.189999999999982,6.709999999999901,0.01,0.01,7,13,1,1,10,18,1,1,6,0,19,7,H,0.3190000000000001,0.372777777777778,0.01,0.01
6,17,33,1,11,0.2900000000000001,3,4,76,79,42,63,2.1000000000000014,0.8500000000000005,0.8700000000000006,0.04,6,3,4,1,9,4,6,1,4,0,15,7,H,0.23333333333333342,0.21250000000000005,0.14500000000000002,0.04
6,17,34,1,3,0.49000000000000027,3,4,30,9,92,55,2.2300000000000018,0.47000000000000025,1.0600000000000007,0.3300000000000001,6,2,2,4,8,2,2,6,5,0,18,7,H,0.2787500000000001,0.23500000000000004,0.5300000000000002,0.055
6,18,35,1,3,0.6300000000000003,2,4,35,104,107,32,2.560000000000002,0.35000000000000014,0.21000000000000005,0.17,4,1,1,1,6,1,1,1,5,0,14,7,H,0.4266666666666669,0.35000000000000014,0.21000000000000005,0.17
6,18,36,1,13,0.2800000000000001,2,3,47,49,43,41,2.869999999999989,0.17,0.25000000000000006,0.2900000000000001,7,2,1,2,10,2,1,3,2,0.5,19,7,H,0.2870000000000001,0.08499999999999999,0.25000000000000006,0.09666666666666665
6,19,37,1,11,0.34000000000000014,2,4,64,93,89,108,1.2200000000000006,1.9200000000000015,0.4300000000000002,0.13999999999999999,4,4,1,2,8,4,1,2,4,0,12,7,H,0.15250000000000002,0.4800000000000002,0.4300000000000002,0.06999999999999999
6,19,38,1,2,0.9500000000000006,5,6,117,50,78,58,7.019999999999916,3.239999999999975,0.36000000000000015,1.430000000000001,13,5,2,2,20,7,2,2,4,0,13,7,H,0.3510000000000002,0.4628571428571431,0.18000000000000005,0.7150000000000005
6,20,39,1,1,0.47000000000000025,3,4,82,5,26,76,2.1900000000000017,0.6500000000000004,0.6600000000000004,0.10999999999999999,5,2,3,1,9,2,3,1,3,0,17,7,H,0.24333333333333343,0.3250000000000001,0.22000000000000006,0.10999999999999999
6,20,40,1,11,1.0600000000000007,3,7,99,24,71,98,4.659999999999968,0.17,0.2700000000000001,0.25000000000000006,10,1,1,2,21,1,1,2,4,0,14,7,H,0.22190476190476197,0.17,0.2700000000000001,0.125
6,21,41,1,1,0.3900000000000002,1,2,84,115,110,8,1.9500000000000013,1.0500000000000007,1.5600000000000012,0.05,4,2,4,1,6,3,5,1,3,0,13,7,H,0.3250000000000002,0.3500000000000002,0.3120000000000001,0.05
6,21,42,1,8,0.3300000000000001,2,3,14,101,102,97,2.2600000000000016,0.3000000000000001,0.19000000000000003,0.21000000000000005,5,1,2,1,8,2,2,1,2,0.5,12,7,H,0.28250000000000014,0.15,0.095,0.21000000000000005
7,1,1,0,1,0.45000000000000023,2,3,29,115,118,25,5.8499999999999295,0.7500000000000004,0.6600000000000004,0.24000000000000007,11,1,2,1,24,1,3,1,3,0,14,7,H,0.2437500000000001,0.7500000000000004,0.22000000000000008,0.24000000000000007
7,1,2,0,7,0.8600000000000005,2,5,95,107,105,104,13.219999999999782,0.8700000000000006,0.9300000000000006,1.260000000000001,15,3,4,3,46,3,5,3,6,0.5,9,7,H,0.2873913043478262,0.29000000000000015,0.18600000000000008,0.4200000000000002
7,2,3,0,4,0.5200000000000002,2,3,106,20,101,25,4.789999999999954,1.2400000000000009,0.15,0.3900000000000002,9,2,1,1,16,7,1,1,2,0,15,7,H,0.2993750000000001,0.17714285714285719,0.15,0.3900000000000002
7,2,4,0,1,0.4100000000000002,2,5,75,119,79,81,3.1099999999999866,5.609999999999925,1.1900000000000008,1.0300000000000007,6,10,4,5,13,18,4,5,3,0.5,11,7,H,0.23923076923076933,0.3116666666666668,0.29750000000000015,0.2060000000000001
7,3,5,0,1,0.21000000000000005,3,3,13,17,24,100,11.889999999999796,0.05,0.01,0.2800000000000001,18,1,1,1,33,1,1,1,3,0.5,20,7,H,0.36030303030303046,0.05,0.01,0.2800000000000001
7,3,6,0,5,0.7000000000000004,2,5,38,94,41,92,2.1800000000000015,3.5799999999999677,0.3300000000000001,1.360000000000001,4,7,2,3,9,12,3,6,5,0,16,7,H,0.2422222222222223,0.29833333333333345,0.10999999999999999,0.22666666666666674
7,4,7,0,2,0.4100000000000002,2,3,107,98,47,59,5.169999999999943,1.2400000000000009,0.8400000000000005,0.08,11,3,3,2,19,5,5,2,4,0,13,7,H,0.27210526315789485,0.24800000000000008,0.16800000000000004,0.04
7,4,8,0,8,0.49000000000000027,8,8,117,32,109,91,5.86999999999993,7.4999999999998845,0.01,1.1400000000000008,16,10,1,4,34,26,1,4,2,0,12,7,H,0.17264705882352946,0.2884615384615386,0.01,0.28500000000000014
7,5,9,0,3,1.0200000000000007,2,5,101,26,82,33,5.329999999999953,1.7700000000000014,2.1199999999999988,0.5700000000000003,8,2,7,3,17,4,8,4,5,0,15,7,H,0.313529411764706,0.4425000000000003,0.2650000000000001,0.14250000000000002
7,5,10,0,8,0.38000000000000017,5,5,45,22,49,115,10.169999999999837,22.530000000000722,0.24000000000000007,0.4200000000000002,16,19,1,3,44,70,1,3,2,0,17,7,H,0.23113636363636372,0.321857142857143,0.24000000000000007,0.14
7,6,11,0,1,0.5400000000000003,2,5,109,74,80,75,4.459999999999961,0.2700000000000001,2.3799999999999932,0.5400000000000003,8,1,4,2,24,1,7,2,3,0.5,11,7,H,0.18583333333333338,0.2700000000000001,0.34000000000000014,0.27000000000000013
7,6,12,0,4,0.6000000000000003,5,8,98,34,30,32,6.499999999999919,0.6600000000000004,0.6700000000000004,0.4100000000000002,12,2,2,2,28,3,2,3,2,0.5,17,7,H,0.23214285714285723,0.22000000000000006,0.33500000000000013,0.13666666666666666
7,7,13,1,1,0.4200000000000002,2,3,16,20,118,114,4.509999999999957,0.5600000000000003,1.0900000000000007,0.2900000000000001,6,2,2,2,12,3,5,2,3,0,16,7,H,0.3758333333333335,0.18666666666666673,0.21800000000000005,0.14500000000000002
7,7,14,1,2,0.48000000000000026,2,4,45,99,56,49,5.229999999999944,0.19000000000000003,1.290000000000001,0.11999999999999998,10,1,4,2,17,1,4,2,4,0,15,7,H,0.30764705882352955,0.19000000000000003,0.3225000000000002,0.06
7,8,15,1,13,1.2200000000000009,3,8,111,113,56,33,3.7299999999999915,2.4699999999999913,0.8500000000000005,0.2700000000000001,8,4,3,1,26,8,5,1,2,0,13,7,H,0.1434615384615385,0.30875000000000014,0.17000000000000004,0.2700000000000001
7,8,16,1,1,0.45000000000000023,2,4,78,41,80,100,3.269999999999984,2.669999999999987,0.2900000000000001,0.3000000000000001,4,2,2,1,15,2,4,1,3,0,13,7,H,0.21800000000000008,1.334999999999999,0.0725,0.3000000000000001
7,9,17,1,7,0.5600000000000003,3,5,6,12,59,49,4.319999999999964,1.330000000000001,0.36000000000000015,0.24000000000000007,10,5,1,2,17,5,1,3,6,0,20,7,H,0.2541176470588236,0.2660000000000001,0.36000000000000015,0.07999999999999999
7,9,18,1,1,0.49000000000000027,2,4,79,41,74,77,1.8400000000000012,2.9699999999999807,0.22000000000000006,0.26000000000000006,5,4,1,2,8,6,1,2,3,0.5,14,7,H,0.2300000000000001,0.4950000000000003,0.22000000000000006,0.13
7,10,19,1,15,0.4100000000000002,2,7,24,18,37,22,3.0299999999999883,3.989999999999959,3.1299999999999772,0.01,7,8,6,1,17,8,9,1,6,0.5,23,7,H,0.17823529411764713,0.49874999999999925,0.34777777777777796,0.01
7,10,20,1,3,0.9300000000000006,5,7,75,8,25,7,3.6899999999999857,1.6200000000000012,0.5500000000000003,1.9700000000000015,8,4,4,4,13,6,5,8,5,0,20,7,H,0.28384615384615397,0.27000000000000013,0.11000000000000001,0.24625000000000008
7,11,21,1,14,0.7300000000000004,2,7,4,6,88,44,3.1699999999999924,2.5999999999999885,0.20000000000000004,1.8800000000000014,5,3,2,5,12,7,2,6,3,0,20,7,H,0.2641666666666668,0.3714285714285716,0.1,0.31333333333333346
7,11,22,1,11,1.5800000000000012,12,15,35,26,21,67,4.619999999999981,6.089999999999915,0.7500000000000004,0.6800000000000004,14,7,2,1,27,13,2,1,4,0,20,7,H,0.17111111111111116,0.4684615384615387,0.3750000000000002,0.6800000000000004
7,12,23,1,14,0.6400000000000003,2,5,93,11,8,6,4.9799999999999525,0.7400000000000004,0.5600000000000003,0.21000000000000005,8,3,3,1,16,5,5,1,3,0.5,21,7,H,0.31125000000000014,0.14800000000000002,0.112,0.21000000000000005
7,12,24,1,1,0.3900000000000002,2,3,71,83,41,63,2.589999999999997,2.1299999999999986,1.5300000000000011,1.330000000000001,4,3,5,3,7,11,6,3,3,0,16,7,H,0.3700000000000002,0.1936363636363637,0.2550000000000001,0.4433333333333336
7,13,25,1,15,1.310000000000001,7,9,76,19,16,17,4.079999999999986,1.5600000000000012,8.4399999999998645,2.4999999999999907,10,4,9,9,19,6,20,10,6,0.5,21,7,H,0.21473684210526323,0.2600000000000001,0.42199999999999976,0.2500000000000001
7,13,26,1,8,0.4100000000000002,2,3,8,104,4,98,4.7299999999999525,0.2900000000000001,0.35000000000000014,0.17,7,2,1,1,17,2,1,1,2,0,16,7,H,0.2782352941176472,0.14500000000000002,0.35000000000000014,0.17
7,14,27,1,12,0.45000000000000023,2,5,68,101,41,47,5.399999999999939,0.6200000000000003,0.10999999999999999,1.8200000000000014,9,2,1,4,24,5,1,5,5,0,16,7,H,0.2250000000000001,0.12400000000000001,0.10999999999999999,0.3640000000000002
7,14,28,1,14,1.270000000000001,14,16,94,60,7,1,5.27999999999996,1.8400000000000014,0.19000000000000003,0.2900000000000001,19,5,1,1,34,8,1,1,3,0,19,7,H,0.15529411764705886,0.2300000000000001,0.19000000000000003,0.2900000000000001
7,15,29,1,11,0.5500000000000003,2,3,42,1,67,66,3.929999999999972,1.1200000000000008,0.3000000000000001,0.18000000000000002,7,2,1,1,17,3,1,1,4,0,19,7,H,0.23117647058823537,0.3733333333333335,0.3000000000000001,0.18000000000000002
7,15,30,1,13,0.5000000000000002,2,3,54,25,114,31,2.030000000000001,3.92999999999996,0.37000000000000016,1.0900000000000007,5,4,2,4,8,7,2,5,2,0,16,7,H,0.25375000000000014,0.561428571428571,0.18500000000000003,0.21800000000000005
7,16,31,1,1,8.399999999999865,9,25,74,5,77,80,9.309999999999865,1.5500000000000012,0.6800000000000004,5.269999999999932,12,3,1,7,28,3,1,17,3,0.5,15,7,H,0.3325000000000002,0.5166666666666669,0.6800000000000004,0.31000000000000016
7,16,32,1,11,0.18000000000000002,2,2,13,71,61,65,22.720000000000724,0.01,0.01,0.01,20,1,1,1,73,1,1,1,4,0.5,18,7,H,0.3112328767123289,0.01,0.01,0.01
7,17,33,1,8,0.9300000000000006,2,6,108,6,3,107,2.690000000000002,1.7100000000000013,0.48000000000000026,0.8500000000000005,4,2,1,4,10,9,1,5,2,0,16,7,H,0.26900000000000013,0.19000000000000006,0.48000000000000026,0.17000000000000004
7,17,34,1,15,0.9600000000000006,12,14,25,24,57,118,8.139999999999892,0.18000000000000002,1.300000000000001,0.09,20,2,6,2,43,2,7,2,6,0,17,7,H,0.1893023255813954,0.09,0.18571428571428575,0.045000000000000005
7,18,35,1,12,0.6500000000000004,2,6,39,62,44,63,5.319999999999945,1.6100000000000012,0.08,1.0600000000000007,7,5,1,4,14,7,1,5,5,0,18,7,H,0.38000000000000017,0.23000000000000007,0.08,0.21200000000000008
7,18,36,1,8,0.8000000000000005,2,3,36,73,7,35,5.869999999999937,0.6100000000000003,0.37000000000000016,0.13999999999999999,8,2,1,2,22,2,2,2,2,0,19,7,H,0.2668181818181819,0.3050000000000001,0.18500000000000005,0.06999999999999999
7,19,37,1,8,1.300000000000001,3,5,10,103,12,76,7.62999999999991,0.17,2.389999999999993,0.09,11,1,6,1,25,1,6,1,2,0,17,7,H,0.30520000000000014,0.17,0.39833333333333354,0.09
7,19,38,1,14,0.7100000000000004,2,5,89,61,33,63,7.919999999999892,0.2700000000000001,0.13999999999999999,0.3100000000000001,15,1,2,2,25,1,2,2,3,0,16,7,H,0.31680000000000014,0.2700000000000001,0.06999999999999999,0.15500000000000003
7,20,39,1,3,0.34000000000000014,2,3,55,35,118,58,5.199999999999941,0.25000000000000006,0.6300000000000003,0.8200000000000005,9,1,1,2,20,1,1,3,5,0,15,7,H,0.2600000000000001,0.25000000000000006,0.6300000000000003,0.2733333333333335
7,20,40,1,12,0.5900000000000003,4,5,39,45,91,44,2.9699999999999935,1.490000000000001,1.1400000000000008,0.3300000000000001,7,3,4,2,14,4,5,2,5,0.5,18,7,H,0.21214285714285722,0.37250000000000016,0.22800000000000006,0.165
8,1,1,0,3,0.4400000000000002,2,5,32,13,30,21,8.319999999999876,3.0699999999999785,2.209999999999997,2.479999999999991,8,3,4,5,37,11,6,13,5,0,22,6,H,0.22486486486486496,0.2790909090909092,0.3683333333333335,0.1907692307692308
8,1,2,0,4,0.3100000000000001,2,4,94,107,97,62,15.479999999999722,0.4100000000000002,1.1100000000000008,0.6200000000000003,13,2,3,1,60,2,3,2,2,0,11,6,H,0.2580000000000001,0.20500000000000002,0.37000000000000016,0.3100000000000001
8,2,3,0,6,0.26000000000000006,2,4,104,108,97,87,12.939999999999774,1.7900000000000014,1.0000000000000007,0.47000000000000025,12,2,2,1,53,6,7,1,6,0.5,9,6,H,0.2441509433962265,0.29833333333333345,0.14285714285714288,0.47000000000000025
8,2,4,0,3,0.25000000000000006,2,5,25,35,14,30,9.82999999999984,0.9600000000000006,3.45999999999997,0.8100000000000005,11,3,5,2,42,5,10,5,5,0.5,21,6,H,0.23404761904761914,0.19200000000000006,0.3460000000000002,0.162
8,3,5,0,3,0.2800000000000001,2,3,63,30,32,104,10.089999999999835,1.2500000000000009,3.049999999999979,0.36000000000000015,10,3,6,1,36,5,12,2,5,0,16,6,H,0.2802777777777779,0.2500000000000001,0.25416666666666676,0.18000000000000005
8,3,6,0,8,0.20000000000000004,2,3,112,119,111,9,7.45999999999989,3.509999999999969,3.2199999999999753,1.350000000000001,13,9,7,3,36,19,17,4,2,0.5,12,6,H,0.2072222222222223,0.1847368421052632,0.1894117647058824,0.33750000000000013
8,4,7,0,7,0.26000000000000006,2,5,20,13,16,15,7.589999999999888,5.419999999999929,3.3999999999999715,10.54999999999982,13,10,6,14,43,21,17,40,6,1,72,6,H,0.1765116279069768,0.2580952380952382,0.20000000000000007,0.26375000000000015
8,4,8,0,6,0.37000000000000016,3,5,11,6,10,12,8.869999999999864,1.5200000000000011,1.8100000000000014,19.07000000000018,12,3,4,15,38,6,9,80,6,1,72,6,H,0.23342105263157903,0.2533333333333334,0.20111111111111116,0.2383750000000001
8,5,9,0,6,0.11999999999999998,2,2,1,9,33,80,11.849999999999794,0.8100000000000005,1.8800000000000014,1.1900000000000008,10,2,3,2,57,3,5,3,6,0,20,6,H,0.20789473684210533,0.27000000000000013,0.37600000000000017,0.39666666666666683
8,5,10,0,5,0.25000000000000006,2,3,38,43,41,47,2.679999999999992,5.539999999999926,3.8299999999999623,3.7199999999999647,5,15,13,9,7,19,24,13,5,1,60,6,H,0.3828571428571431,0.29157894736842116,0.15958333333333338,0.28615384615384626
8,6,11,1,8,0.20000000000000004,2,3,1,34,12,103,27.470000000001463,1.470000000000001,0.3000000000000001,0.7700000000000005,20,2,3,4,105,2,3,4,2,0,19,6,H,0.26161904761904775,0.7350000000000005,0.1,0.19250000000000006
8,6,12,1,11,0.3000000000000001,2,3,79,63,37,69,9.369999999999852,0.7700000000000005,1.6600000000000013,0.4300000000000002,9,2,4,2,30,3,8,3,4,0,16,6,H,0.31233333333333346,0.25666666666666677,0.20750000000000007,0.14333333333333337
8,7,13,1,7,0.17,2,3,3,2,46,48,3.1899999999999795,10.189999999999827,0.10999999999999999,0.9100000000000006,4,7,1,3,9,48,1,4,6,0,22,6,H,0.3544444444444446,0.21229166666666674,0.10999999999999999,0.22750000000000004
8,7,14,1,11,0.3000000000000001,2,4,66,63,99,74,8.699999999999866,1.8200000000000014,0.5300000000000002,1.440000000000001,14,4,2,3,39,10,3,5,4,0,13,6,H,0.22307692307692314,0.18200000000000005,0.17666666666666672,0.28800000000000014
8,8,15,1,15,0.26000000000000006,2,4,18,13,21,108,8.949999999999859,1.9000000000000015,0.7100000000000004,0.7200000000000004,6,5,3,2,36,10,7,3,6,0.5,20,6,H,0.2486111111111112,0.19000000000000006,0.10142857142857144,0.2400000000000001
8,8,16,1,13,0.8100000000000005,2,5,34,114,84,119,6.579999999999922,2.629999999999988,2.439999999999992,1.290000000000001,4,4,4,2,38,12,16,6,2,0,12,6,H,0.17315789473684215,0.21916666666666673,0.15250000000000005,0.21500000000000005
8,9,17,1,3,0.24000000000000007,2,5,34,9,6,33,3.2699999999999796,8.61999999999986,0.36000000000000015,0.07,6,6,1,1,19,38,1,1,5,0,22,6,H,0.1721052631578948,0.22684210526315796,0.36000000000000015,0.07
8,9,18,1,13,0.3200000000000001,2,3,118,112,117,39,11.949999999999797,0.5800000000000003,0.4200000000000002,2.010000000000001,14,3,1,4,51,4,1,8,2,0.5,11,6,H,0.23431372549019616,0.14500000000000005,0.4200000000000002,0.2512500000000001
8,10,19,1,15,0.24000000000000007,2,3,15,47,20,43,9.489999999999847,4.749999999999943,1.8200000000000014,0.8800000000000006,11,7,4,4,38,13,10,6,6,0,22,6,H,0.24973684210526326,0.36538461538461553,0.18200000000000005,0.1466666666666667
8,10,20,1,11,1.410000000000001,2,9,28,33,9,64,8.869999999999887,1.430000000000001,1.8000000000000014,1.6800000000000013,11,6,2,5,44,8,13,10,4,0,20,6,H,0.20159090909090915,0.17875000000000005,0.1384615384615385,0.16800000000000004
8,11,21,1,14,0.18000000000000002,2,3,94,1,10,2,8.169999999999874,2.669999999999987,0.47000000000000025,0.4300000000000002,8,4,1,1,37,11,1,1,3,0.5,21,6,H,0.2208108108108109,0.24272727272727282,0.47000000000000025,0.4300000000000002
8,11,22,1,15,0.18000000000000002,2,3,20,67,72,63,12.669999999999778,4.2199999999999545,0.13999999999999999,3.8299999999999623,10,8,1,8,61,18,1,13,6,0.5,18,6,H,0.20770491803278696,0.23444444444444454,0.13999999999999999,0.2946153846153847
8,12,23,1,15,0.09,2,3,14,23,35,24,4.579999999999949,0.8000000000000005,2.5899999999999888,1.7900000000000014,4,2,5,4,24,3,10,6,6,0.5,23,6,H,0.19083333333333338,0.2666666666666668,0.2590000000000001,0.29833333333333345
8,12,24,1,1,0.3300000000000001,3,4,74,84,7,105,8.169999999999877,1.2300000000000009,2.149999999999998,0.5800000000000003,5,3,5,2,48,8,7,3,3,0,14,6,H,0.17020833333333338,0.15375000000000003,0.3071428571428573,0.19333333333333338
8,13,25,1,14,0.2700000000000001,2,3,96,90,54,52,10.519999999999825,3.379999999999972,3.6799999999999655,1.420000000000001,13,8,6,4,44,15,12,10,3,0,14,6,H,0.2390909090909092,0.2253333333333334,0.3066666666666668,0.14200000000000002
8,13,26,1,1,0.26000000000000006,2,3,81,5,69,28,9.019999999999857,1.9600000000000015,1.6400000000000012,0.7300000000000004,7,2,2,2,46,10,9,2,3,0,18,6,H,0.1960869565217392,0.19600000000000006,0.18222222222222229,0.36500000000000016
8,14,27,1,8,0.9100000000000006,3,8,54,58,25,53,10.819999999999833,1.1300000000000008,0.7600000000000005,1.1000000000000008,11,2,3,2,43,4,6,3,2,0.5,17,6,H,0.25162790697674425,0.28250000000000014,0.12666666666666668,0.3666666666666668
8,14,28,1,14,0.17,1,2,119,92,64,93,13.609999999999758,0.36000000000000015,0.35000000000000014,0.5300000000000002,14,2,1,2,61,5,1,2,3,0,12,6,H,0.22311475409836073,0.072,0.35000000000000014,0.26500000000000007
8,15,29,1,12,0.15,2,4,41,40,44,45,5.3699999999999335,3.3899999999999717,1.6900000000000013,1.7400000000000013,7,9,4,5,31,19,10,10,5,1,60,6,H,0.17322580645161295,0.178421052631579,0.16900000000000004,0.17400000000000004
8,15,30,1,15,7.169999999999892,4,37,13,24,25,68,11.68999999999984,1.6500000000000012,1.8400000000000014,2.709999999999986,8,3,7,4,54,6,8,19,6,0,21,6,H,0.21648148148148155,0.2750000000000001,0.2300000000000001,0.14263157894736847
8,16,31,1,12,0.17,2,3,47,42,101,43,4.669999999999948,1.500000000000001,3.099999999999978,0.8200000000000005,7,3,4,2,21,4,12,4,5,0.5,17,6,H,0.22238095238095246,0.37500000000000017,0.2583333333333334,0.20500000000000004
8,16,32,1,2,0.15,2,3,59,49,8,60,6.249999999999915,1.1300000000000008,2.53999999999999,0.2700000000000001,11,3,5,1,26,5,17,1,4,0.5,18,6,H,0.24038461538461547,0.22600000000000006,0.14941176470588238,0.2700000000000001
8,17,33,1,8,0.24000000000000007,2,4,108,99,72,98,7.299999999999894,1.340000000000001,3.2699999999999743,0.26000000000000006,8,3,4,2,38,7,9,2,2,0.5,10,6,H,0.1921052631578948,0.19142857142857148,0.3633333333333335,0.13000000000000003
8,17,34,1,13,0.3000000000000001,3,4,4,110,8,120,8.449999999999871,0.8500000000000005,0.7800000000000005,0.21000000000000005,10,2,2,1,38,9,3,1,2,0,16,6,H,0.22236842105263166,0.09444444444444444,0.2600000000000001,0.21000000000000005
8,18,35,1,14,0.20000000000000004,2,3,96,15,18,88,8.929999999999858,2.3199999999999945,0.37000000000000016,0.46000000000000024,12,6,2,3,41,14,3,4,3,0,18,6,H,0.21780487804878057,0.16571428571428576,0.12333333333333336,0.11500000000000002
8,18,36,1,1,0.3900000000000002,3,4,10,83,76,1,4.83999999999995,1.6300000000000012,0.5300000000000002,0.5700000000000003,5,3,2,2,27,8,2,3,3,0,18,6,H,0.1792592592592593,0.20375000000000007,0.2650000000000001,0.19000000000000009
8,19,37,1,11,0.5500000000000003,4,6,62,44,47,77,6.729999999999913,2.429999999999992,4.269999999999953,1.0500000000000007,8,3,7,2,43,6,25,7,4,0,17,6,H,0.15651162790697679,0.4050000000000002,0.17080000000000006,0.15000000000000002
8,19,38,1,13,0.24000000000000007,2,3,115,93,96,114,7.249999999999895,2.7299999999999858,0.9500000000000006,1.6700000000000013,8,4,4,3,35,17,7,4,2,0,10,6,H,0.2071428571428572,0.16058823529411767,0.13571428571428573,0.4175000000000002
9,1,1,0,8,0.2900000000000001,2,3,120,114,115,33,9.209999999999855,0.38000000000000017,1.0100000000000007,7.4099999999998865,6,1,2,12,38,1,2,31,2,0.5,11,7,H,0.24236842105263168,0.38000000000000017,0.5050000000000002,0.23903225806451622
9,1,2,0,9,0.16,1,2,63,106,64,91,12.239999999999787,0.5400000000000003,0.34000000000000014,0.4200000000000002,8,1,2,2,41,1,4,3,4,0,13,7,H,0.29853658536585376,0.5400000000000003,0.08499999999999999,0.14000000000000007
9,2,3,0,2,0.25000000000000006,2,3,53,56,52,99,4.379999999999956,3.0599999999999787,0.7500000000000004,2.5099999999999905,7,5,3,3,27,8,4,3,4,0.5,14,7,H,0.16222222222222227,0.3825000000000002,0.18750000000000006,0.8366666666666672
9,2,4,0,5,0.18000000000000002,2,5,38,70,37,69,7.1499999999998956,5.089999999999936,3.0299999999999794,0.37000000000000016,8,9,5,2,24,23,6,2,5,0,18,7,H,0.29791666666666683,0.22130434782608702,0.5050000000000003,0.18500000000000005
9,3,5,0,4,0.20000000000000004,2,3,97,100,108,106,7.299999999999893,2.0400000000000005,1.9400000000000015,1.0800000000000007,5,2,4,4,30,3,7,6,2,1,24,7,H,0.24333333333333343,0.6800000000000004,0.27714285714285725,0.18000000000000005
9,3,6,0,8,0.3200000000000001,2,4,70,111,114,6,6.229999999999919,1.0800000000000007,3.6699999999999657,1.430000000000001,5,2,4,2,18,3,11,3,2,0,14,7,H,0.34611111111111126,0.3600000000000002,0.3336363636363638,0.47666666666666696
9,4,7,0,4,0.15,2,2,16,38,65,23,24.500000000001005,0.15,0.02,0.3900000000000002,16,2,1,2,65,2,1,2,2,0,21,7,H,0.3769230769230771,0.075,0.02,0.19500000000000003
9,4,8,0,6,0.45000000000000023,2,4,11,87,5,90,9.399999999999855,3.8299999999999623,0.4100000000000002,4.079999999999957,12,6,1,9,30,9,1,12,6,0,18,7,H,0.31333333333333346,0.4255555555555558,0.4100000000000002,0.3400000000000002
9,5,9,0,5,0.5500000000000003,2,6,61,66,41,22,9.809999999999848,0.9000000000000006,3.3499999999999726,1.400000000000001,5,2,2,2,35,4,13,3,5,0,19,7,H,0.2802857142857144,0.22500000000000003,0.2576923076923078,0.46666666666666695
9,5,10,0,6,0.20000000000000004,2,3,6,9,7,2,7.409999999999891,1.0800000000000007,1.290000000000001,17.83999999999999,8,2,2,14,19,3,7,52,6,1,72,7,H,0.39000000000000024,0.36000000000000015,0.18428571428571433,0.3430769230769232
9,6,11,0,3,0.23000000000000007,2,3,25,28,105,11,4.799999999999947,3.00999999999998,1.0300000000000007,0.7600000000000005,8,5,1,2,17,10,2,2,5,0,18,7,H,0.2823529411764707,0.3010000000000001,0.5150000000000002,0.3800000000000002
9,6,12,0,10,0.4400000000000002,3,4,93,88,65,18,6.999999999999905,0.5200000000000002,4.149999999999956,0.3000000000000001,5,1,4,1,25,1,9,1,3,0,16,7,H,0.2800000000000001,0.5200000000000002,0.46111111111111136,0.3000000000000001
9,7,13,1,12,0.25000000000000006,2,5,41,42,18,23,13.269999999999767,0.2700000000000001,0.7000000000000004,0.47000000000000025,12,2,2,1,45,2,2,1,5,0,22,7,H,0.29488888888888903,0.135,0.35000000000000014,0.47000000000000025
9,7,14,1,3,0.3000000000000001,2,5,26,25,110,33,4.589999999999953,8.909999999999854,1.9000000000000015,0.09,6,10,4,1,14,25,9,1,5,0.5,17,7,H,0.327857142857143,0.35640000000000016,0.2111111111111112,0.09
9,8,15,1,14,0.2700000000000001,2,3,94,41,93,111,6.439999999999913,1.7100000000000013,2.339999999999994,1.9800000000000015,5,4,8,6,35,5,14,10,3,0,13,7,H,0.18400000000000005,0.3420000000000002,0.16714285714285718,0.1980000000000001
9,8,16,1,1,0.38000000000000017,4,5,80,97,81,78,7.019999999999903,3.4899999999999696,0.3900000000000002,1.8000000000000014,10,4,2,2,26,9,2,13,3,0.5,11,7,H,0.27000000000000013,0.38777777777777794,0.19500000000000006,0.1384615384615385
9,9,17,1,2,0.45000000000000023,3,4,53,95,6,57,5.7099999999999325,1.1400000000000008,6.459999999999907,0.4000000000000002,5,2,7,2,28,3,16,4,4,0,17,7,H,0.2039285714285715,0.3800000000000002,0.4037500000000002,0.09999999999999999
9,9,18,1,3,0.3300000000000001,2,3,31,27,98,19,6.459999999999914,7.809999999999878,0.7900000000000005,1.400000000000001,9,13,1,3,18,27,1,3,5,0,18,7,H,0.35888888888888903,0.2892592592592594,0.7900000000000005,0.46666666666666695
9,10,19,1,11,0.11999999999999998,2,3,72,94,85,70,4.259999999999956,3.8599999999999617,0.5800000000000003,1.6300000000000012,5,5,3,2,12,12,3,5,4,0,14,7,H,0.3550000000000002,0.3216666666666668,0.19333333333333338,0.3260000000000001
9,10,20,1,3,0.4000000000000002,2,4,33,32,50,11,10.839999999999822,3.5399999999999685,0.22000000000000006,2.159999999999998,10,5,1,4,36,9,1,12,5,0,20,7,H,0.3011111111111113,0.39333333333333353,0.22000000000000006,0.18000000000000005
9,11,21,1,14,0.3900000000000002,2,3,95,89,26,27,10.48999999999983,3.5299999999999687,0.5900000000000003,1.2200000000000009,15,6,2,3,35,12,3,4,3,0,16,7,H,0.2997142857142858,0.2941666666666668,0.19666666666666674,0.3050000000000001
9,11,22,1,13,0.3000000000000001,2,4,111,75,73,59,6.349999999999915,5.35999999999993,0.9800000000000006,0.6300000000000003,8,5,2,2,27,12,4,3,2,0,12,7,H,0.23518518518518527,0.4466666666666669,0.24500000000000005,0.21000000000000005
9,12,23,1,1,0.26000000000000006,2,4,82,84,102,99,7.209999999999896,5.81999999999992,13.169999999999764,3.6699999999999657,8,13,14,10,34,20,40,13,3,0,10,7,H,0.21205882352941186,0.29100000000000015,0.32925000000000015,0.2823076923076924
9,12,24,1,2,0.7000000000000004,3,7,59,52,87,28,8.879999999999871,1.0500000000000007,3.1699999999999764,0.16,12,2,3,1,27,4,16,1,4,0,16,7,H,0.32888888888888906,0.2625000000000001,0.19812500000000005,0.16
9,13,25,1,11,0.09999999999999999,2,2,2,106,98,103,49.14999999999881,0.09,0.09999999999999999,0.01,20,2,2,1,121,2,2,1,4,0.5,12,7,H,0.4061983471074379,0.045000000000000005,0.049999999999999996,0.01
9,13,26,1,2,0.35000000000000014,2,3,60,50,92,58,11.529999999999806,4.009999999999959,0.8600000000000005,4.159999999999956,14,9,5,10,31,12,5,15,4,0.5,15,7,H,0.3719354838709679,0.33416666666666683,0.17200000000000001,0.27733333333333343
9,14,27,1,12,0.24000000000000007,2,3,44,46,48,39,6.499999999999911,2.4599999999999915,2.3599999999999937,1.1200000000000008,8,7,6,3,26,7,9,3,5,1,60,7,H,0.2500000000000001,0.3514285714285716,0.26222222222222236,0.3733333333333335
9,14,28,1,11,0.26000000000000006,2,4,62,61,64,71,7.519999999999889,3.189999999999976,1.290000000000001,0.25000000000000006,11,7,4,1,27,9,5,1,4,1,48,7,H,0.27851851851851867,0.3544444444444446,0.2580000000000001,0.25000000000000006
9,15,29,1,11,0.34000000000000014,2,3,62,70,68,61,4.999999999999945,3.799999999999963,0.7600000000000005,0.9400000000000006,6,5,2,3,13,20,6,3,4,1,48,7,H,0.3846153846153848,0.19000000000000006,0.12666666666666668,0.31333333333333346
9,15,30,1,3,0.15,2,4,26,5,10,101,5.459999999999932,1.8400000000000014,1.5600000000000012,0.7300000000000004,8,2,4,1,16,2,4,1,5,0,19,7,H,0.34125000000000016,0.9200000000000006,0.3900000000000002,0.7300000000000004
9,16,31,1,13,0.25000000000000006,2,3,112,25,118,113,6.55999999999991,4.109999999999957,0.2900000000000001,0.2900000000000001,7,5,1,1,19,13,1,1,2,0.5,11,7,H,0.345263157894737,0.3161538461538463,0.2900000000000001,0.2900000000000001
9,16,32,1,12,0.2700000000000001,2,3,43,42,48,63,7.389999999999893,1.7600000000000013,1.0000000000000007,0.3300000000000001,8,3,2,1,25,7,7,1,5,0.5,19,7,H,0.29560000000000014,0.2514285714285715,0.14285714285714288,0.3300000000000001
9,17,33,1,2,0.15,2,3,52,53,54,56,10.419999999999826,0.17,0.26000000000000006,2.909999999999982,13,1,2,8,34,2,3,9,4,1,48,7,H,0.30647058823529416,0.08499999999999999,0.08666666666666667,0.3233333333333335
9,17,34,1,3,0.13999999999999999,2,3,26,85,92,30,5.689999999999926,1.7500000000000013,5.1099999999999355,0.46000000000000024,7,5,7,2,19,9,16,2,5,0,16,7,H,0.29947368421052645,0.1944444444444445,0.31937500000000013,0.23000000000000004
9,18,35,1,15,0.21000000000000005,2,3,21,15,115,17,3.449999999999975,3.189999999999976,8.749999999999858,1.2100000000000009,6,9,12,4,14,18,24,5,6,0.5,20,7,H,0.24642857142857155,0.17722222222222228,0.36458333333333354,0.2420000000000001
9,18,36,1,14,0.37000000000000016,2,3,93,85,89,34,7.749999999999887,2.7799999999999847,0.9100000000000006,1.1200000000000008,10,5,4,2,31,6,5,3,3,0.5,14,7,H,0.2500000000000001,0.4633333333333336,0.18200000000000002,0.3733333333333335
9,19,37,1,7,0.37000000000000016,2,4,96,69,12,10,9.959999999999841,1.5900000000000012,0.2700000000000001,1.0600000000000007,9,4,1,4,33,5,1,5,6,0,19,7,H,0.30181818181818193,0.3180000000000001,0.2700000000000001,0.21200000000000008
9,19,38,1,8,0.21000000000000005,2,3,102,101,100,26,7.819999999999882,3.1999999999999758,1.360000000000001,2.769999999999985,7,3,3,7,29,14,4,11,2,0.5,11,7,H,0.2696551724137932,0.22857142857142865,0.34000000000000014,0.25181818181818194
10,1,1,0,9,0.2900000000000001,2,4,69,15,13,105,0.9900000000000004,1.320000000000001,3.049999999999979,0.07,5,3,8,1,8,7,18,1,4,0,18,7,H,0.12375000000000001,0.18857142857142864,0.1694444444444445,0.07
10,1,2,0,6,0.25000000000000006,2,3,6,31,26,8,1.0200000000000005,0.6700000000000004,1.2100000000000009,0.22000000000000006,4,2,2,2,7,3,8,2,6,0,22,7,H,0.14571428571428574,0.2233333333333334,0.15125000000000002,0.11000000000000001
10,2,3,0,3,0.21000000000000005,2,3,28,32,27,21,1.3200000000000007,0.24000000000000007,0.22000000000000006,0.38000000000000017,5,2,2,2,9,2,3,3,5,0.5,21,7,H,0.1466666666666667,0.12000000000000002,0.07333333333333333,0.12666666666666665
10,2,4,0,4,0.13999999999999999,2,3,6,103,95,102,1.1500000000000006,1.6000000000000012,0.21000000000000005,0.11999999999999998,4,6,2,2,8,10,3,2,2,0,13,7,H,0.14375000000000007,0.16000000000000003,0.07,0.060000000000000005
10,3,5,0,2,0.21000000000000005,2,4,53,19,103,13,0.7600000000000003,1.6400000000000012,0.8500000000000005,0.6800000000000004,4,3,3,4,8,13,4,5,4,0,18,7,H,0.09500000000000003,0.12615384615384617,0.21250000000000008,0.136
10,3,6,0,5,0.24000000000000007,2,5,42,45,63,61,0.7800000000000004,1.0100000000000007,0.7400000000000004,0.20000000000000004,5,3,2,2,10,7,9,2,5,0,18,7,H,0.078,0.1442857142857143,0.08222222222222222,0.10000000000000002
10,4,7,0,2,0.25000000000000006,2,4,55,60,53,1,1.530000000000001,0.5600000000000003,1.5100000000000011,0.060000000000000005,5,2,8,1,14,2,9,1,4,0.5,18,7,H,0.10928571428571429,0.2800000000000001,0.16777777777777783,0.060000000000000005
10,4,8,0,7,0.25000000000000006,2,6,22,69,18,72,1.5000000000000009,0.6600000000000004,0.19000000000000003,0.9800000000000006,7,5,1,3,14,6,1,4,6,0,20,7,H,0.10714285714285718,0.11,0.19000000000000003,0.24500000000000008
10,5,9,0,3,0.19000000000000003,2,3,22,68,65,25,1.3400000000000007,1.1900000000000008,0.16,0.6300000000000003,6,5,1,3,7,14,1,4,5,0,19,7,H,0.1914285714285715,0.085,0.16,0.15750000000000006
10,5,10,0,5,0.24000000000000007,2,4,8,49,47,42,2.9399999999999866,0.25000000000000006,0.3900000000000002,0.03,8,1,3,1,20,1,3,1,5,0,20,7,H,0.14700000000000005,0.25000000000000006,0.13,0.03
10,6,11,0,9,0.36000000000000015,2,4,9,72,71,10,1.8500000000000012,0.20000000000000004,0.2700000000000001,0.6300000000000003,11,2,2,5,16,3,5,8,4,0,20,7,H,0.11562500000000002,0.06666666666666667,0.05399999999999999,0.07875
10,6,12,0,1,0.18000000000000002,2,3,77,22,58,18,0.5300000000000001,2.020000000000001,0.37000000000000016,0.12999999999999998,4,6,4,2,5,15,5,3,3,0,19,7,H,0.10600000000000002,0.13466666666666668,0.07400000000000001,0.043333333333333335
10,7,13,1,12,0.25000000000000006,2,5,111,47,90,42,1.8100000000000012,1.340000000000001,0.2900000000000001,0.35000000000000014,4,6,1,4,16,14,1,4,5,0,15,7,H,0.11312500000000002,0.09571428571428574,0.2900000000000001,0.08750000000000001
10,7,14,1,15,0.2900000000000001,2,3,64,81,17,24,2.6699999999999933,0.7400000000000004,0.07,1.0100000000000007,8,3,1,3,14,3,1,7,6,0,19,7,H,0.19071428571428575,0.24666666666666676,0.07,0.14428571428571432
10,8,15,1,8,0.15,2,3,99,21,104,103,0.7300000000000003,0.8000000000000005,0.24000000000000007,0.12999999999999998,4,2,2,1,5,8,3,1,2,0.5,12,7,H,0.14600000000000005,0.10000000000000002,0.08,0.12999999999999998
10,8,16,1,12,0.2800000000000001,2,5,45,75,39,83,1.0900000000000005,0.8000000000000005,0.7000000000000004,0.09,6,3,6,1,13,5,8,1,5,0,16,7,H,0.08384615384615385,0.16,0.0875,0.09
10,9,17,1,15,0.11999999999999998,2,3,42,39,19,102,2.4499999999999944,0.5600000000000003,0.11999999999999998,0.7000000000000004,7,3,2,3,16,5,2,7,6,0,18,7,H,0.15312500000000004,0.11200000000000003,0.06,0.09999999999999999
10,9,18,1,7,0.48000000000000026,2,6,4,3,25,81,1.680000000000001,0.7100000000000004,0.5500000000000003,0.11999999999999998,5,3,3,2,16,6,4,2,6,0,20,7,H,0.10500000000000001,0.11833333333333336,0.1375,0.06
10,10,19,1,12,0.2900000000000001,3,6,50,59,39,1,2.689999999999993,0.19000000000000003,0.12999999999999998,0.05,8,2,2,1,22,3,3,1,5,0,19,7,H,0.12227272727272731,0.06333333333333332,0.043333333333333335,0.05
10,10,20,1,11,0.16,2,4,63,73,27,82,0.9900000000000005,1.1200000000000008,0.4400000000000002,0.25000000000000006,4,5,2,2,9,6,3,2,4,0,15,7,H,0.11,0.1866666666666667,0.14666666666666667,0.125
10,11,21,1,7,0.6300000000000003,2,6,62,42,46,12,1.550000000000001,0.3000000000000001,0.22000000000000006,1.1000000000000008,5,1,2,5,13,1,2,10,6,0,20,7,H,0.11923076923076925,0.3000000000000001,0.11000000000000001,0.11
10,11,22,1,13,0.13999999999999999,2,3,110,35,59,52,1.1100000000000005,0.19000000000000003,0.9100000000000006,0.9000000000000006,4,1,3,5,9,1,5,6,2,0,15,7,H,0.12333333333333335,0.19000000000000003,0.18200000000000005,0.15000000000000005
10,12,23,1,1,0.24000000000000007,2,3,80,55,77,73,0.9100000000000005,0.6900000000000004,0.2900000000000001,0.08,4,4,3,1,7,6,6,1,3,0.5,13,7,H,0.13000000000000003,0.11500000000000002,0.04833333333333333,0.08
10,12,24,1,11,0.25000000000000006,2,3,71,70,32,64,1.0400000000000005,0.3900000000000002,0.49000000000000027,0.3000000000000001,6,2,2,3,10,3,3,5,4,0.5,17,7,H,0.10400000000000001,0.13,0.16333333333333339,0.05999999999999999
10,13,25,1,14,0.26000000000000006,2,3,88,42,85,38,1.1500000000000006,0.36000000000000015,0.5500000000000003,0.22000000000000006,4,1,4,2,9,1,4,3,3,0,16,7,H,0.1277777777777778,0.36000000000000015,0.13750000000000004,0.07333333333333333
10,13,26,1,11,0.38000000000000017,2,3,67,82,101,100,5.539999999999934,0.19000000000000003,1.5300000000000011,1.0600000000000007,15,2,8,4,31,2,9,6,4,0,11,7,H,0.1787096774193549,0.09500000000000001,0.17000000000000004,0.17666666666666672
10,14,27,1,15,0.07,2,2,21,88,41,37,0.4700000000000002,1.6300000000000012,0.5500000000000003,1.260000000000001,4,5,3,4,5,7,6,11,6,0,19,7,H,0.09400000000000001,0.23285714285714293,0.09166666666666667,0.11454545454545456
10,14,28,1,2,0.18000000000000002,1,2,52,58,56,7,1.0200000000000005,0.8200000000000005,0.7300000000000004,0.36000000000000015,3,4,4,3,8,6,4,3,4,0.5,18,7,H,0.1275,0.1366666666666667,0.18250000000000002,0.12
10,15,29,1,7,0.24000000000000007,2,4,10,60,27,5,1.670000000000001,0.24000000000000007,0.5300000000000002,0.10999999999999999,6,1,2,2,14,1,5,3,6,0,21,7,H,0.1192857142857143,0.24000000000000007,0.10600000000000001,0.03666666666666667
10,15,30,1,15,0.3000000000000001,3,6,15,37,75,17,1.9600000000000013,0.37000000000000016,0.6100000000000003,0.03,6,3,4,1,13,5,8,1,6,0,20,7,H,0.15076923076923082,0.07400000000000001,0.07625,0.03
10,16,31,1,1,0.5100000000000002,2,5,49,28,60,21,2.0600000000000014,0.4100000000000002,0.26000000000000006,0.08,5,2,2,1,15,4,2,1,3,0,19,7,H,0.13733333333333336,0.10250000000000001,0.13000000000000003,0.08
10,16,32,1,7,0.2900000000000001,2,4,12,2,64,38,0.7000000000000003,0.6800000000000004,1.390000000000001,0.07,4,2,4,1,6,2,7,1,6,0,21,7,H,0.11666666666666667,0.34000000000000014,0.19857142857142865,0.07
10,17,33,1,1,0.4400000000000002,3,7,67,62,16,63,1.610000000000001,0.22000000000000006,0.6600000000000004,0.11999999999999998,5,1,3,1,12,1,6,1,3,0.5,18,7,H,0.13416666666666668,0.22000000000000006,0.11,0.11999999999999998
10,17,34,1,2,0.22000000000000006,2,4,120,42,53,52,3.22999999999998,0.08,0.12999999999999998,0.4000000000000002,9,1,3,4,31,1,3,6,4,0,15,7,H,0.1041935483870968,0.08,0.043333333333333335,0.06666666666666667
10,18,35,1,2,0.3300000000000001,3,6,53,44,58,84,1.8800000000000012,0.3900000000000002,0.2700000000000001,0.11999999999999998,8,3,3,1,15,4,3,1,4,0,16,7,H,0.12533333333333335,0.0975,0.09000000000000001,0.11999999999999998
10,18,36,1,13,0.38000000000000017,2,5,113,32,109,24,1.1800000000000006,0.7400000000000004,0.19000000000000003,0.19000000000000003,4,2,1,1,8,5,1,1,2,0,15,7,H,0.14750000000000002,0.14800000000000002,0.19000000000000003,0.19000000000000003
10,19,37,1,2,1.1500000000000008,3,8,57,15,19,80,1.600000000000001,0.8000000000000005,0.2800000000000001,0.5500000000000003,5,2,3,2,10,8,4,4,4,0,19,7,H,0.16000000000000003,0.10000000000000002,0.06999999999999999,0.1375
10,19,38,1,11,0.13999999999999999,2,4,64,62,29,27,0.7000000000000003,0.6200000000000003,1.360000000000001,0.16,4,3,5,2,7,5,8,2,4,0,18,7,H,0.10000000000000003,0.124,0.17000000000000004,0.08
10,20,39,1,15,0.6200000000000003,4,5,24,15,23,49,2.3400000000000016,0.13999999999999999,2.8299999999999836,0.12999999999999998,11,1,6,2,17,1,17,2,6,0.5,22,7,H,0.13764705882352946,0.13999999999999999,0.16647058823529415,0.06499999999999999
10,20,40,1,1,0.18000000000000002,2,4,81,61,78,67,1.550000000000001,0.3100000000000001,0.22000000000000006,0.19000000000000003,5,2,2,2,18,3,3,2,3,0,14,7,H,0.08611111111111111,0.10333333333333333,0.07333333333333333,0.095
10,21,41,1,7,0.060000000000000005,2,2,9,11,6,84,1.1400000000000008,0.09,0.3300000000000001,1.1000000000000008,4,1,2,5,10,1,2,5,6,0.5,21,7,H,0.11400000000000002,0.09,0.16500000000000004,0.22000000000000006
10,21,42,1,8,0.21000000000000005,4,5,97,18,96,99,0.9200000000000005,0.7600000000000005,0.8000000000000005,0.060000000000000005,6,2,1,2,11,6,1,3,2,0,13,7,H,0.08363636363636363,0.12666666666666668,0.8000000000000005,0.02
10,22,43,1,3,0.24000000000000007,2,3,57,28,36,52,2.2400000000000015,0.17,0.26000000000000006,0.10999999999999999,6,2,2,1,16,2,3,1,5,0,18,7,H,0.14,0.08499999999999999,0.08666666666666667,0.10999999999999999
10,22,44,1,8,0.16,2,5,103,108,93,87,1.0600000000000005,0.3300000000000001,1.0700000000000007,0.09999999999999999,4,2,5,1,9,3,8,1,2,0,10,7,H,0.1177777777777778,0.10999999999999999,0.13375,0.09999999999999999
11,1,1,0,3,0.2900000000000001,2,6,107,10,103,32,3.4999999999999756,0.5700000000000003,0.20000000000000004,0.05,6,2,2,1,24,4,3,1,5,0,15,7,H,0.14583333333333337,0.14250000000000002,0.06666666666666667,0.05
11,1,2,0,5,0.3000000000000001,2,4,37,47,23,77,1.750000000000001,1.390000000000001,1.1300000000000008,1.9300000000000015,5,2,2,4,15,10,4,12,5,0,19,7,H,0.11666666666666668,0.139,0.2825000000000001,0.16083333333333338
11,2,3,0,9,0.2900000000000001,2,4,48,70,38,68,2.909999999999988,0.16,0.9800000000000006,0.13999999999999999,4,2,3,2,17,2,3,2,4,0,18,7,H,0.17117647058823532,0.07999999999999999,0.3266666666666668,0.06999999999999999
11,2,4,0,2,0.24000000000000007,2,3,51,82,57,33,1.1100000000000005,1.8300000000000014,0.13999999999999999,0.6800000000000004,4,4,1,3,7,10,1,6,4,0,16,7,H,0.1585714285714286,0.18300000000000005,0.13999999999999999,0.11333333333333334
11,3,5,0,8,0.4100000000000002,2,7,116,110,3,71,2.3200000000000016,0.2700000000000001,1.7800000000000014,0.25000000000000006,6,2,6,2,18,3,8,3,2,0,14,7,H,0.12888888888888891,0.09000000000000002,0.2225000000000001,0.08333333333333333
11,3,6,0,2,0.2900000000000001,1,2,17,81,57,80,3.659999999999972,0.7000000000000004,0.15,0.38000000000000017,7,3,2,3,18,6,2,4,4,0,16,7,H,0.2033333333333334,0.11666666666666668,0.07500000000000001,0.095
11,4,7,0,5,0.47000000000000025,2,6,46,16,37,57,1.8100000000000012,1.340000000000001,0.23000000000000007,0.4200000000000002,4,3,1,2,17,11,1,2,5,0,20,7,H,0.10647058823529414,0.12181818181818183,0.23000000000000007,0.21000000000000008
11,4,8,0,3,0.3200000000000001,2,4,107,64,75,69,3.0799999999999854,0.16,0.23000000000000007,0.20000000000000004,6,1,1,2,23,1,2,2,5,0,13,7,H,0.1339130434782609,0.16,0.11499999999999999,0.1
11,5,9,0,7,0.5800000000000003,2,5,84,42,47,45,1.9200000000000013,0.8000000000000005,0.7800000000000005,0.45000000000000023,5,3,2,2,11,6,5,5,6,0.5,18,7,H,0.1745454545454546,0.13333333333333336,0.15600000000000003,0.09
11,5,10,0,3,0.5700000000000003,2,3,29,30,34,106,2.0400000000000014,0.3100000000000001,0.19000000000000003,0.5700000000000003,5,2,2,5,11,2,4,7,5,0.5,17,7,H,0.1854545454545455,0.15500000000000003,0.0475,0.08142857142857143
11,6,11,0,6,0.2800000000000001,2,3,97,108,55,73,2.1800000000000015,0.9500000000000006,0.4300000000000002,0.34000000000000014,5,2,2,2,9,5,2,3,6,0,11,7,H,0.2422222222222223,0.19000000000000003,0.21500000000000005,0.11333333333333333
11,6,12,0,10,0.2900000000000001,2,5,94,91,40,41,0.9900000000000004,2.569999999999989,0.8300000000000005,0.24000000000000007,4,6,3,5,7,12,8,6,3,0,16,7,H,0.14142857142857146,0.21416666666666673,0.10375000000000002,0.04
11,7,13,1,13,0.23000000000000007,2,3,15,82,14,29,2.909999999999987,0.16,1.400000000000001,0.11999999999999998,8,1,3,1,17,1,16,1,2,0,20,7,H,0.17117647058823535,0.16,0.0875,0.11999999999999998
11,7,14,1,8,0.46000000000000024,2,8,102,107,42,45,1.9800000000000013,1.330000000000001,1.0800000000000007,0.22000000000000006,5,4,2,2,18,5,8,2,2,0,14,7,H,0.11000000000000001,0.26600000000000007,0.13500000000000004,0.10999999999999999
11,8,15,1,14,0.3100000000000001,2,4,38,92,63,88,3.959999999999966,0.8600000000000005,0.5200000000000002,0.03,9,2,2,1,31,2,4,1,3,0,15,7,H,0.127741935483871,0.43000000000000027,0.13000000000000003,0.03
11,8,16,1,1,0.7500000000000004,2,5,35,116,5,73,3.909999999999977,0.26000000000000006,0.5600000000000003,0.21000000000000005,9,1,2,2,27,1,5,3,3,0,16,7,H,0.14481481481481484,0.26000000000000006,0.112,0.07
11,9,17,1,1,0.21000000000000005,2,3,81,56,102,82,2.3499999999999983,0.24000000000000007,0.7000000000000004,0.8500000000000005,7,3,2,2,14,3,6,8,3,0,12,7,H,0.1678571428571429,0.08,0.11666666666666668,0.10625000000000001
11,9,18,1,14,0.4400000000000002,2,3,113,37,115,63,1.9000000000000012,1.6300000000000012,0.17,0.49000000000000027,5,2,2,2,11,12,2,3,3,0,13,7,H,0.17272727272727276,0.13583333333333336,0.08499999999999999,0.16333333333333333
11,10,19,1,12,0.35000000000000014,2,6,43,112,39,120,2.7299999999999933,0.5900000000000003,0.5200000000000002,1.0000000000000007,4,2,2,2,18,3,2,3,5,0,14,7,H,0.1516666666666667,0.19666666666666668,0.26000000000000006,0.3333333333333335
11,10,20,1,3,0.4200000000000002,3,5,33,77,55,29,1.1400000000000006,1.280000000000001,1.9100000000000015,0.10999999999999999,5,3,4,2,7,6,8,2,5,0,17,7,H,0.1628571428571429,0.2133333333333334,0.2387500000000001,0.05500000000000001
11,11,21,1,14,0.21000000000000005,2,3,85,56,2,93,3.67999999999997,0.13999999999999999,0.12999999999999998,0.2800000000000001,6,1,1,2,18,1,1,2,3,0,16,7,H,0.2044444444444445,0.13999999999999999,0.12999999999999998,0.14000000000000004
11,11,22,1,15,0.26000000000000006,2,3,116,75,72,31,2.6299999999999937,0.3900000000000002,0.6500000000000004,0.16,9,2,2,1,18,4,8,1,6,0,14,7,H,0.14611111111111114,0.09749999999999999,0.08125,0.16
11,12,23,1,13,0.3000000000000001,2,4,1,38,2,120,6.859999999999904,0.02,0.02,0.03,13,1,1,1,39,1,1,1,2,0,19,7,H,0.17589743589743595,0.02,0.02,0.03
11,12,24,1,3,0.24000000000000007,2,4,86,26,91,21,3.8499999999999672,0.21000000000000005,2.619999999999988,0.6000000000000003,9,3,4,2,19,3,17,3,5,0,17,7,H,0.2026315789473685,0.07,0.15411764705882358,0.20000000000000007
11,13,25,1,12,0.26000000000000006,2,3,42,44,14,51,1.4100000000000008,1.1900000000000008,2.99999999999998,0.01,5,7,13,1,7,8,22,1,5,0,20,7,H,0.20142857142857148,0.14875000000000002,0.1363636363636364,0.01
11,13,26,1,13,0.3200000000000001,2,4,9,91,69,36,2.959999999999988,0.5300000000000002,0.3900000000000002,0.05,7,2,1,1,21,4,2,1,2,0,18,7,H,0.14095238095238097,0.1325,0.19500000000000006,0.05
11,14,27,1,14,0.3100000000000001,2,3,15,94,23,120,2.469999999999998,0.25000000000000006,0.19000000000000003,0.26000000000000006,6,1,1,1,18,1,1,1,3,0,17,7,H,0.13722222222222225,0.25000000000000006,0.19000000000000003,0.26000000000000006
11,14,28,1,3,0.17,2,3,28,103,11,6,1.4100000000000008,1.7000000000000013,0.38000000000000017,0.20000000000000004,5,3,3,2,13,5,4,3,5,0,19,7,H,0.10846153846153847,0.34000000000000014,0.095,0.06666666666666667
11,15,29,1,11,0.17,2,4,69,21,99,97,2.0400000000000014,0.47000000000000025,0.46000000000000024,0.49000000000000027,7,2,1,2,18,2,1,3,4,0,14,7,H,0.11333333333333336,0.23500000000000013,0.46000000000000024,0.16333333333333336
11,15,30,1,2,0.18000000000000002,2,3,38,54,55,1,2.489999999999995,0.15,0.3100000000000001,0.37000000000000016,6,1,2,2,10,1,2,3,4,0,19,7,H,0.2490000000000001,0.15,0.15500000000000003,0.12333333333333332
11,16,31,1,14,0.24000000000000007,2,4,94,55,17,43,1.0200000000000005,1.8200000000000014,0.38000000000000017,0.6200000000000003,4,4,2,3,8,7,4,7,3,0,18,7,H,0.12750000000000003,0.26000000000000006,0.09500000000000001,0.08857142857142858
11,16,32,1,7,0.4100000000000002,5,5,3,6,97,63,2.5499999999999985,3.7799999999999634,0.02,0.04,8,9,1,1,20,21,1,1,6,0,18,7,H,0.12750000000000003,0.18000000000000005,0.02,0.04
11,17,33,1,14,0.26000000000000006,3,5,96,91,37,71,0.8600000000000003,0.9500000000000006,1.380000000000001,0.5700000000000003,5,2,3,2,9,8,7,2,3,0,15,7,H,0.09555555555555556,0.11875000000000001,0.1971428571428572,0.2850000000000001
11,17,34,1,1,0.09,1,3,83,27,79,19,1.0700000000000007,1.290000000000001,0.19000000000000003,0.18000000000000002,3,2,2,1,7,8,2,1,3,0,17,7,H,0.15285714285714289,0.16125000000000003,0.095,0.18000000000000002
11,18,35,1,12,3.329999999999973,5,25,15,61,46,45,10.25999999999987,0.03,0.21000000000000005,0.4300000000000002,16,1,2,3,65,1,2,3,5,0,20,7,H,0.15784615384615389,0.03,0.10500000000000002,0.14333333333333337
11,18,36,1,2,0.22000000000000006,2,3,55,59,56,52,1.3700000000000008,0.8200000000000005,0.2900000000000001,0.5900000000000003,4,4,2,4,13,6,4,4,4,1,48,7,H,0.1053846153846154,0.1366666666666667,0.07250000000000001,0.14750000000000005
11,19,37,1,15,0.18000000000000002,2,3,20,18,81,28,1.8600000000000012,0.36000000000000015,0.9300000000000006,0.15,8,2,5,1,15,3,9,1,6,0,20,7,H,0.12400000000000003,0.12000000000000001,0.10333333333333333,0.15
11,19,38,1,13,0.2800000000000001,3,4,112,85,91,113,1.7600000000000011,0.7100000000000004,0.16,0.16,5,2,2,1,15,3,2,1,2,0,10,7,H,0.11733333333333335,0.23666666666666675,0.08,0.16
11,20,39,1,2,0.3100000000000001,2,3,54,52,45,47,1.720000000000001,0.36000000000000015,0.45000000000000023,0.3100000000000001,4,2,1,1,6,3,1,1,4,0,18,7,H,0.2866666666666668,0.12000000000000002,0.45000000000000023,0.3100000000000001
11,20,40,1,11,0.16,2,3,61,83,73,65,1.8400000000000012,0.4100000000000002,0.23000000000000007,0.20000000000000004,5,3,2,2,12,3,3,2,4,0,14,7,H,0.15333333333333338,0.1366666666666667,0.07666666666666666,0.1
11,21,41,1,8,0.6000000000000003,2,5,13,37,80,78,3.219999999999988,0.6400000000000003,0.25000000000000006,0.09999999999999999,9,2,2,1,21,5,3,1,2,0,17,7,H,0.15333333333333335,0.12800000000000003,0.08333333333333333,0.09999999999999999
11,21,42,1,7,0.13999999999999999,2,2,1,5,25,4,2.0000000000000013,1.1700000000000008,0.6300000000000003,0.5100000000000002,4,6,4,4,15,9,6,4,6,0.5,23,7,H,0.13333333333333336,0.13000000000000003,0.10500000000000001,0.1275
12,1,1,0,5,1.450000000000001,2,13,44,94,48,39,1.680000000000001,2.2799999999999954,0.7000000000000004,0.4200000000000002,4,4,2,2,15,9,5,2,5,0.5,18,7,H,0.112,0.2533333333333334,0.14,0.21000000000000002
12,1,2,0,8,0.8300000000000005,2,9,114,7,27,118,2.8400000000000016,2.8299999999999836,0.37000000000000016,0.2700000000000001,5,4,2,3,23,13,4,5,2,0,15,7,H,0.12347826086956523,0.21769230769230777,0.09250000000000003,0.05399999999999999
12,2,3,0,3,1.0900000000000007,2,8,27,2,35,6,2.0400000000000014,0.7300000000000004,0.5400000000000003,0.7200000000000004,4,2,2,3,18,4,3,4,5,0,22,7,H,0.11333333333333334,0.18250000000000005,0.18000000000000005,0.18000000000000005
12,2,4,0,2,1.8600000000000014,2,11,56,51,96,93,2.2500000000000018,2.3299999999999943,1.8100000000000014,0.8400000000000005,4,5,4,5,13,15,10,9,4,0,14,7,H,0.1730769230769231,0.15533333333333335,0.18100000000000005,0.09333333333333335
12,3,5,0,8,1.9800000000000015,2,19,113,111,96,44,2.2500000000000018,1.9700000000000015,3.429999999999971,1.5300000000000011,4,2,2,2,21,14,28,6,2,0,12,7,H,0.10714285714285715,0.14071428571428574,0.12250000000000003,0.2550000000000001
12,3,6,0,1,0.45000000000000023,3,5,2,84,25,30,27.25000000000139,0.01,0.04,0.01,20,1,1,1,172,1,1,1,3,0,19,7,H,0.15843023255813957,0.01,0.04,0.01
12,4,7,0,5,0.5700000000000003,2,4,37,104,95,43,1.2400000000000007,5.039999999999937,0.7500000000000004,0.20000000000000004,4,6,2,2,6,31,6,2,5,0,15,7,H,0.20666666666666675,0.16258064516129037,0.125,0.09999999999999999
12,4,8,0,1,0.25000000000000006,2,2,2,73,82,117,8.119999999999877,0.04,1.1000000000000008,0.20000000000000004,6,1,4,2,51,1,7,4,3,0,14,7,H,0.15921568627450983,0.04,0.15714285714285722,0.05
12,5,9,0,10,1.7900000000000014,3,10,101,47,88,86,6.169999999999952,0.38000000000000017,0.37000000000000016,0.09,9,1,2,1,34,1,6,1,3,0,13,7,H,0.18147058823529416,0.38000000000000017,0.061666666666666675,0.09
