Subject,Round,Phase,afterbreak,Schema,Schema_RT,Schema_OB,Schema_AS,Cho_1,Cho_2,Cho_3,Cho_4,RT_1,RT_2,RT_3,RT_4,OB_1,OB_2,OB_3,OB_4,AS_1,AS_2,AS_3,AS_4,schema_payoff,AC,performance,breakR,type,dwellmean_1,dwellmean_2,dwellmean_3,dwellmean_4
1,1,1,0,6,1.470000000000001,2,8,51,17,14,55,6.269999999999943,4.4999999999999485,0.8700000000000006,4.769999999999943,7,6,2,4,19,9,2,4,4,0,20,7,H,0.3300000000000001,0.5000000000000002,0.4350000000000002,1.192499999999996
1,1,2,0,9,0.5600000000000003,2,6,61,75,68,25,3.8599999999999737,6.2799999999999105,0.7300000000000004,0.3200000000000001,6,7,3,1,16,14,3,1,4,0,16,7,H,0.2412500000000001,0.4485714285714288,0.24333333333333343,0.3200000000000001
1,2,3,0,4,0.7800000000000005,2,6,19,22,100,28,7.209999999999908,0.5900000000000003,1.2500000000000009,0.9500000000000006,8,1,4,1,21,1,4,1,2,0,19,7,H,0.3433333333333335,0.5900000000000003,0.3125000000000001,0.9500000000000006
1,2,4,0,5,0.48000000000000026,2,3,5,4,68,61,3.7699999999999743,7.589999999999883,0.49000000000000027,0.10999999999999999,5,12,3,2,10,19,3,2,6,0,20,7,H,0.3770000000000002,0.39947368421052654,0.16333333333333339,0.055
1,3,5,0,6,1.260000000000001,14,17,56,60,82,9,4.7599999999999705,0.6000000000000003,2.899999999999982,0.9900000000000007,19,1,4,4,25,1,11,5,4,0,17,7,H,0.19040000000000007,0.6000000000000003,0.2636363636363638,0.19800000000000006
1,3,6,0,9,1.6900000000000013,2,4,19,27,15,32,8.769999999999895,0.45000000000000023,0.47000000000000025,3.419999999999971,9,1,2,6,19,1,3,8,4,0,22,7,H,0.46157894736842126,0.45000000000000023,0.15666666666666668,0.4275000000000002
1,4,7,0,7,0.7500000000000004,8,10,54,96,95,115,11.169999999999822,2.4599999999999915,1.0200000000000007,6.129999999999914,16,6,4,8,22,6,6,13,3,0,12,7,H,0.5077272727272718,0.41000000000000025,0.17000000000000004,0.4715384615384618
1,4,8,0,2,0.4300000000000002,2,4,24,72,63,83,6.059999999999925,0.9100000000000006,1.410000000000001,0.17,7,1,4,2,18,1,4,2,3,0,17,7,H,0.33666666666666684,0.9100000000000006,0.35250000000000015,0.08499999999999999
1,5,9,0,4,1.1300000000000008,7,8,99,49,57,32,3.0600000000000023,3.46999999999997,1.2100000000000009,0.5100000000000002,9,3,2,2,11,6,6,2,2,0,15,7,H,0.2781818181818183,0.5783333333333337,0.20166666666666672,0.2550000000000001
1,5,10,0,3,0.5200000000000002,2,5,46,94,113,19,6.739999999999912,1.0400000000000007,1.0600000000000007,0.20000000000000004,7,1,3,2,17,1,4,2,5,0,16,7,H,0.39647058823529435,1.0400000000000007,0.2650000000000001,0.09999999999999999
1,6,11,0,10,0.8800000000000006,2,8,109,67,26,66,7.089999999999913,0.35000000000000014,1.5300000000000011,0.24000000000000007,10,1,3,1,27,1,4,1,6,0,15,7,H,0.2625925925925927,0.35000000000000014,0.3825000000000002,0.24000000000000007
1,6,12,0,5,0.9100000000000006,5,8,56,46,11,6,8.029999999999893,1.0800000000000007,0.12999999999999998,0.15,13,3,1,1,24,3,1,1,6,0,21,7,H,0.3345833333333335,0.36000000000000015,0.12999999999999998,0.15
1,7,13,1,10,0.7900000000000005,2,6,4,117,54,120,30.74000000000188,0.01,0.02,0.01,20,1,1,1,73,1,1,1,6,0,14,7,H,0.42109589041095913,0.01,0.02,0.01
1,7,14,1,3,0.6100000000000003,2,4,36,106,31,64,2.4800000000000018,4.389999999999951,1.0600000000000007,1.7500000000000013,4,5,2,2,6,12,2,5,5,0,16,7,H,0.41333333333333355,0.3658333333333335,0.5300000000000002,0.35000000000000014
1,8,15,1,10,0.5900000000000003,2,3,10,7,5,65,3.889999999999974,2.7299999999999858,0.3300000000000001,1.8500000000000014,6,5,1,3,8,8,1,3,6,0.5,22,7,H,0.4862500000000003,0.34125000000000016,0.3300000000000001,0.616666666666667
1,8,16,1,6,1.0600000000000007,2,3,104,60,100,52,10.23999999999985,0.4200000000000002,0.46000000000000024,0.38000000000000017,13,2,2,3,27,4,2,3,4,0,12,7,H,0.37925925925925946,0.10500000000000001,0.23000000000000007,0.12666666666666668
1,9,17,1,13,0.4400000000000002,2,3,103,100,18,14,4.519999999999958,1.310000000000001,0.7900000000000005,7.169999999999892,10,3,2,7,16,4,5,13,6,0,16,7,H,0.28250000000000014,0.3275000000000001,0.15800000000000003,0.5515384615384618
1,9,18,1,14,0.5400000000000003,2,3,37,38,43,50,2.769999999999997,2.9299999999999815,1.9700000000000015,0.5000000000000002,5,6,3,1,11,8,5,1,5,0.5,19,7,H,0.25181818181818194,0.3662500000000002,0.3940000000000002,0.5000000000000002
1,10,19,1,12,0.5100000000000002,2,3,87,93,120,89,5.709999999999933,0.4200000000000002,2.0799999999999996,0.17,6,1,3,1,11,1,6,1,3,0.5,11,7,H,0.5190909090909076,0.4200000000000002,0.34666666666666685,0.17
1,10,20,1,3,1.1800000000000008,2,6,97,100,65,80,6.5999999999999295,2.429999999999992,1.390000000000001,1.7600000000000013,9,3,2,5,19,5,4,5,5,0,11,7,H,0.3473684210526317,0.48600000000000027,0.34750000000000014,0.3520000000000002
1,11,21,1,14,0.5600000000000003,2,4,47,42,6,90,8.32999999999988,0.7400000000000004,1.1700000000000008,0.3100000000000001,10,3,3,2,18,4,3,2,5,0,19,7,H,0.46277777777777807,0.18500000000000005,0.3900000000000002,0.15500000000000003
1,11,22,1,7,0.4400000000000002,2,3,98,76,13,81,4.6299999999999555,1.7500000000000013,2.849999999999983,0.17,6,4,7,1,10,5,9,1,3,0,14,7,H,0.46300000000000024,0.35000000000000014,0.3166666666666668,0.17
1,12,23,1,13,0.3900000000000002,2,3,14,110,17,118,2.4799999999999995,4.43999999999995,0.7900000000000005,1.6100000000000012,4,4,2,3,9,17,3,10,6,0,16,7,H,0.2755555555555557,0.2611764705882354,0.2633333333333334,0.16100000000000003
1,12,24,1,6,0.8400000000000005,3,7,53,1,5,4,4.889999999999959,1.440000000000001,1.260000000000001,7.009999999999895,7,3,3,9,13,6,3,18,4,0.5,22,7,H,0.37615384615384634,0.24000000000000005,0.4200000000000002,0.38944444444444465
1,13,25,1,14,0.8400000000000005,2,5,45,39,17,103,7.099999999999912,0.3300000000000001,1.500000000000001,0.18000000000000002,9,1,2,1,16,1,2,1,5,0,18,7,H,0.44375000000000026,0.3300000000000001,0.7500000000000004,0.18000000000000002
1,13,26,1,10,0.9800000000000006,2,4,9,72,1,88,8.499999999999885,2.8399999999999834,1.0000000000000007,2.719999999999986,12,5,3,5,17,7,3,7,6,0,19,7,H,0.5000000000000002,0.4057142857142859,0.3333333333333335,0.3885714285714288
1,14,27,1,12,1.0000000000000007,2,6,44,92,47,110,5.229999999999955,2.6399999999999877,1.9800000000000015,1.2100000000000009,7,7,2,4,19,10,2,4,3,0,15,7,H,0.27526315789473693,0.2640000000000001,0.9900000000000007,0.3025000000000001
1,14,28,1,6,0.4100000000000002,2,3,107,9,108,1,5.3399999999999395,1.7200000000000013,2.0400000000000005,2.399999999999993,6,3,2,4,13,6,2,6,4,0,16,7,H,0.410769230769231,0.2866666666666668,1.0200000000000007,0.4000000000000002
1,15,29,1,15,1.1200000000000008,3,6,110,5,61,94,7.989999999999899,0.8700000000000006,0.11999999999999998,0.2900000000000001,11,2,1,1,28,3,1,1,4,0,15,7,H,0.285357142857143,0.2900000000000001,0.11999999999999998,0.2900000000000001
1,15,30,1,4,0.5000000000000002,2,3,47,105,104,45,9.229999999999858,0.09,0.11999999999999998,1.7900000000000014,14,1,1,4,23,1,2,4,2,0,14,7,H,0.40130434782608715,0.09,0.06,0.4475000000000003
1,16,31,1,15,1.5600000000000012,2,8,114,120,117,75,6.9199999999999315,3.8099999999999627,0.09,2.52999999999999,10,7,1,6,25,9,1,9,4,0.5,9,7,H,0.2768000000000001,0.42333333333333356,0.09,0.28111111111111126
1,16,32,1,14,2.629999999999988,3,7,95,12,88,47,5.669999999999967,1.6400000000000012,1.0500000000000007,0.4100000000000002,7,2,3,1,13,4,3,1,5,0,17,7,H,0.4361538461538464,0.4100000000000002,0.35000000000000014,0.4100000000000002
1,17,33,1,14,3.3599999999999723,4,7,86,2,8,5,9.849999999999879,0.4100000000000002,0.34000000000000014,0.15,11,2,2,1,25,3,2,1,5,0.5,21,7,H,0.3940000000000001,0.1366666666666667,0.17,0.15
1,17,34,1,11,0.8500000000000005,2,5,112,119,115,14,7.069999999999912,3.6699999999999657,0.7900000000000005,17.129999999999878,8,4,2,16,19,4,2,36,2,0.5,12,7,H,0.37210526315789494,0.9175000000000003,0.39500000000000024,0.4758333333333336
1,18,35,1,6,2.2799999999999954,4,8,55,49,93,28,9.159999999999894,1.0600000000000007,2.6999999999999864,0.24000000000000007,11,3,7,2,26,6,8,2,4,0,16,7,H,0.3523076923076925,0.17666666666666672,0.3375000000000002,0.12
1,18,36,1,15,1.5600000000000012,2,9,14,116,111,76,19.940000000000076,0.03,0.01,0.04,17,1,1,1,52,1,1,1,4,0,13,7,H,0.38346153846153863,0.03,0.01,0.04
1,19,37,1,14,0.7700000000000005,2,6,15,47,43,20,8.01999999999989,1.6100000000000012,0.09,0.22000000000000006,11,3,1,2,29,3,1,2,5,0,22,7,H,0.27655172413793117,0.536666666666667,0.09,0.11000000000000003
1,19,38,1,7,10.669999999999817,11,32,111,83,77,76,12.099999999999818,4.149999999999956,5.219999999999933,1.2400000000000009,14,4,5,3,37,8,10,3,3,0.5,11,7,H,0.3270270270270272,0.5187500000000003,0.5219999999999982,0.41333333333333355
1,20,39,1,4,0.8400000000000005,2,4,6,97,102,87,3.949999999999978,2.6099999999999883,0.3900000000000002,0.4300000000000002,5,4,2,2,10,7,3,3,2,0,13,7,H,0.3950000000000002,0.37285714285714305,0.13,0.14333333333333337
1,20,40,1,3,0.5800000000000003,2,5,23,26,17,33,9.409999999999856,0.8300000000000005,0.09999999999999999,0.060000000000000005,10,2,1,1,23,2,1,1,5,0,22,7,H,0.4091304347826088,0.41500000000000026,0.09999999999999999,0.060000000000000005
2,1,1,0,5,0.46000000000000024,2,4,3,1,96,6,1.7600000000000011,13.739999999999752,0.05,0.01,4,16,1,1,8,48,1,1,6,0.5,21,7,H,0.22000000000000008,0.2862500000000001,0.05,0.01
2,1,2,0,10,0.6100000000000003,2,4,17,39,19,13,6.00999999999993,0.8800000000000006,0.2700000000000001,0.46000000000000024,10,1,2,2,17,1,2,2,6,0.5,23,7,H,0.35352941176470604,0.8800000000000006,0.13500000000000004,0.23000000000000012
2,2,3,0,3,0.7700000000000005,2,5,15,93,101,48,4.70999999999996,1.1300000000000008,1.280000000000001,0.01,8,2,2,1,16,2,2,1,5,0,16,7,H,0.2943750000000001,0.5650000000000003,0.6400000000000003,0.01
2,2,4,0,8,0.4000000000000002,2,4,112,9,1,63,3.1999999999999846,4.059999999999958,0.04,0.4300000000000002,6,10,1,2,10,17,1,2,2,0,18,7,H,0.3200000000000002,0.2388235294117648,0.04,0.21500000000000008
2,3,5,0,8,0.9200000000000006,2,4,109,116,90,24,3.5299999999999887,0.6500000000000004,0.8600000000000005,0.5000000000000002,4,2,3,2,15,3,3,2,2,0,13,7,H,0.2353333333333334,0.2166666666666667,0.2866666666666668,0.25000000000000006
2,3,6,0,6,0.46000000000000024,2,5,106,102,55,60,4.589999999999956,0.25000000000000006,0.07,0.7000000000000004,9,2,1,2,26,3,1,2,4,0,12,7,H,0.1765384615384616,0.08333333333333334,0.07,0.3500000000000002
2,4,7,0,8,0.7700000000000005,2,6,118,96,90,69,2.2700000000000014,1.0900000000000007,1.5300000000000011,0.48000000000000026,4,2,3,1,10,3,10,1,2,0,12,7,H,0.22700000000000006,0.3633333333333335,0.15300000000000002,0.48000000000000026
2,4,8,0,5,0.49000000000000027,3,5,9,48,40,58,2.3200000000000016,0.9800000000000006,5.36999999999993,0.09999999999999999,5,2,6,1,11,4,17,1,6,0,20,7,H,0.210909090909091,0.2450000000000001,0.3158823529411766,0.09999999999999999
2,5,9,0,1,0.46000000000000024,2,4,25,110,96,91,2.2000000000000015,1.6000000000000012,0.5100000000000002,0.5600000000000003,4,4,2,2,10,6,3,3,5,0,13,7,H,0.22000000000000006,0.2666666666666668,0.17,0.1866666666666667
2,5,10,0,4,0.7300000000000004,11,12,58,98,24,55,4.999999999999954,0.060000000000000005,1.260000000000001,0.16,16,1,3,2,26,1,6,2,2,0,16,7,H,0.19230769230769237,0.060000000000000005,0.21000000000000005,0.07999999999999999
2,6,11,0,10,0.6300000000000003,3,5,98,103,25,60,3.409999999999985,0.23000000000000007,0.7900000000000005,0.5300000000000002,8,1,3,2,16,1,7,2,6,0,13,7,H,0.21312500000000006,0.23000000000000007,0.11285714285714288,0.26500000000000007
2,6,12,0,3,0.48000000000000026,3,4,38,70,62,93,2.6299999999999986,0.7300000000000004,0.3300000000000001,0.4200000000000002,6,2,2,1,11,3,2,1,5,0,16,7,H,0.23909090909090916,0.24333333333333343,0.16500000000000004,0.4200000000000002
2,7,13,1,15,0.48000000000000026,2,5,62,69,67,81,2.739999999999996,0.8000000000000005,0.49000000000000027,1.0100000000000007,4,2,2,2,17,3,5,3,4,0.5,15,7,H,0.16117647058823534,0.2666666666666667,0.09799999999999999,0.3366666666666668
2,7,14,1,4,0.47000000000000025,2,3,102,24,19,39,4.169999999999965,1.0600000000000007,0.25000000000000006,0.22000000000000006,10,2,1,2,20,4,1,2,2,0,19,7,H,0.20850000000000007,0.26500000000000007,0.25000000000000006,0.11000000000000001
2,8,15,1,15,0.7300000000000004,2,4,41,62,67,20,3.319999999999989,0.3100000000000001,0.7000000000000004,1.290000000000001,6,2,3,4,17,2,6,7,4,0,19,7,H,0.1952941176470589,0.155,0.1166666666666667,0.18428571428571433
2,8,16,1,6,0.4400000000000002,2,4,60,107,2,58,3.6599999999999757,0.38000000000000017,0.23000000000000007,0.3900000000000002,5,2,1,2,19,2,1,2,4,0,16,7,H,0.1926315789473685,0.19000000000000006,0.23000000000000007,0.19500000000000006
2,9,17,1,6,0.34000000000000014,2,3,57,100,15,96,3.299999999999981,3.429999999999971,0.09,0.4400000000000002,5,8,2,2,18,14,2,3,4,0,15,7,H,0.18333333333333338,0.24500000000000008,0.045,0.14666666666666667
2,9,18,1,15,0.38000000000000017,2,3,8,37,76,68,3.669999999999974,0.8500000000000005,0.36000000000000015,0.08,8,3,2,2,17,4,2,2,4,0,18,7,H,0.21588235294117655,0.21250000000000005,0.18000000000000002,0.04
2,10,19,1,11,0.38000000000000017,2,3,112,79,120,47,1.8800000000000012,1.5100000000000011,0.15,0.7800000000000005,4,3,1,2,10,5,1,4,2,0,12,7,H,0.18800000000000006,0.3020000000000001,0.15,0.19500000000000003
2,10,20,1,10,0.5400000000000003,2,6,6,4,3,102,2.2500000000000018,0.48000000000000026,1.8400000000000014,7.139999999999892,5,3,3,13,14,5,4,32,6,0.5,20,7,H,0.16071428571428575,0.09600000000000002,0.46000000000000024,0.22312500000000007
2,11,21,1,11,0.6100000000000003,2,5,113,76,58,114,3.339999999999986,0.38000000000000017,1.0700000000000007,0.08,5,1,2,1,14,1,4,1,2,0,11,7,H,0.23857142857142866,0.38000000000000017,0.2675000000000001,0.08
2,11,22,1,15,0.5500000000000003,3,5,48,17,44,69,3.429999999999983,0.6100000000000003,0.3000000000000001,0.08,7,2,2,1,18,2,2,1,4,0,20,7,H,0.19055555555555562,0.3050000000000001,0.15,0.08
2,12,23,1,10,0.8300000000000005,3,6,9,80,100,97,3.1399999999999952,2.4599999999999915,1.7000000000000013,5.449999999999928,5,4,4,9,12,7,5,14,6,0,13,7,H,0.26166666666666677,0.35142857142857165,0.3400000000000002,0.3892857142857145
2,12,24,1,12,0.2700000000000001,2,3,87,18,92,114,2.2700000000000014,0.7800000000000005,0.16,0.23000000000000007,6,1,1,1,9,1,1,1,3,0,14,7,H,0.2522222222222223,0.7800000000000005,0.16,0.23000000000000007
2,13,25,1,15,0.5100000000000002,2,4,24,64,110,119,4.149999999999967,0.13999999999999999,1.6600000000000013,0.02,7,1,3,1,19,1,3,1,4,0,14,7,H,0.21842105263157902,0.13999999999999999,0.5533333333333337,0.02
2,13,26,1,4,0.15,2,2,1,49,101,105,9.73999999999984,0.01,0.02,0.01,16,1,1,1,34,1,1,1,2,0,14,7,H,0.28647058823529425,0.01,0.02,0.01
2,14,27,1,14,0.12999999999999998,2,2,5,6,43,79,7.019999999999897,0.05,0.01,0.01,11,1,1,1,26,1,1,1,5,0,20,7,H,0.27000000000000013,0.05,0.01,0.01
2,14,28,1,13,0.5100000000000002,2,4,14,16,18,119,3.7399999999999753,2.5099999999999905,0.01,1.270000000000001,6,4,1,3,25,13,1,3,6,0.5,20,7,H,0.14960000000000004,0.19307692307692315,0.01,0.42333333333333356
2,15,29,1,14,0.3100000000000001,2,3,40,109,61,120,2.3100000000000014,0.9500000000000006,1.0900000000000007,0.25000000000000006,4,2,2,2,10,3,3,2,5,0,13,7,H,0.2310000000000001,0.3166666666666668,0.3633333333333335,0.12500000000000003
2,15,30,1,3,0.6700000000000004,3,4,101,31,6,29,2.370000000000002,0.8800000000000006,0.7900000000000005,0.10999999999999999,5,3,2,1,7,7,3,1,5,0,18,7,H,0.3385714285714287,0.12571428571428575,0.2633333333333334,0.10999999999999999
2,16,31,1,10,0.26000000000000006,1,2,42,61,11,69,3.359999999999978,0.26000000000000006,0.12999999999999998,0.22000000000000006,3,1,2,1,15,1,2,1,6,0,19,7,H,0.2240000000000001,0.26000000000000006,0.065,0.22000000000000006
2,16,32,1,12,0.49000000000000027,4,6,118,85,109,15,3.0599999999999894,1.1000000000000008,0.6300000000000003,0.17,7,3,3,1,13,6,3,1,3,0,13,7,H,0.2353846153846155,0.18333333333333338,0.21000000000000008,0.17
2,17,33,1,12,0.3100000000000001,2,5,85,22,96,116,1.3600000000000008,1.2400000000000009,0.25000000000000006,0.4300000000000002,4,3,1,1,8,5,1,1,3,0,14,7,H,0.17000000000000007,0.24800000000000008,0.25000000000000006,0.4300000000000002
2,17,34,1,4,1.290000000000001,5,9,99,81,83,70,3.190000000000002,0.48000000000000026,0.37000000000000016,0.4400000000000002,7,2,2,2,21,3,2,2,2,0,12,7,H,0.15190476190476193,0.16,0.18500000000000003,0.22000000000000003
2,18,35,1,4,0.3000000000000001,2,4,107,6,10,102,2.1700000000000017,0.8000000000000005,0.9700000000000006,0.6600000000000004,4,1,2,4,16,2,4,5,2,0,16,7,H,0.13562500000000002,0.40000000000000024,0.24250000000000008,0.13200000000000003
2,18,36,1,7,0.8400000000000005,2,5,117,23,119,15,3.2199999999999935,1.380000000000001,0.13999999999999999,1.6500000000000012,5,3,1,2,11,3,1,2,3,0,16,7,H,0.29272727272727284,0.46000000000000024,0.13999999999999999,0.8250000000000006
2,19,37,1,12,0.4300000000000002,2,3,118,24,17,18,3.709999999999974,0.9000000000000006,0.6900000000000004,0.3100000000000001,7,5,4,2,14,7,6,3,3,0.5,20,7,H,0.2650000000000001,0.1285714285714286,0.11500000000000002,0.10333333333333335
2,19,38,1,14,0.35000000000000014,2,2,6,44,59,97,20.1800000000003,0.02,0.01,0.01,20,2,1,1,67,2,1,1,5,0,17,7,H,0.3011940298507464,0.01,0.01,0.01
2,20,39,1,3,0.36000000000000015,2,5,29,89,95,116,1.9300000000000013,1.5800000000000012,0.5700000000000003,0.2700000000000001,4,5,1,1,11,9,1,1,5,0,13,7,H,0.17545454545454553,0.17555555555555558,0.5700000000000003,0.2700000000000001
2,20,40,1,6,0.48000000000000026,2,3,56,1,80,81,1.4300000000000008,1.9100000000000015,0.3300000000000001,0.9100000000000006,4,3,1,2,5,5,1,3,4,0,16,7,H,0.2860000000000001,0.3820000000000002,0.3300000000000001,0.30333333333333345
2,21,41,1,14,0.7200000000000004,3,9,38,92,41,48,1.7900000000000011,1.0900000000000007,1.0100000000000007,0.7600000000000005,4,3,3,3,10,4,3,3,5,0.5,18,7,H,0.17900000000000008,0.27250000000000013,0.3366666666666668,0.2533333333333334
2,21,42,1,4,0.9000000000000006,2,7,81,97,84,77,3.799999999999983,0.16,0.22000000000000006,0.38000000000000017,5,1,1,2,18,1,1,2,2,0.5,11,7,H,0.21111111111111117,0.16,0.22000000000000006,0.19000000000000003
3,1,1,0,9,0.5000000000000002,2,5,62,105,104,17,3.51999999999998,3.3399999999999728,0.38000000000000017,0.8300000000000005,10,6,2,3,16,11,2,3,4,0,14,7,H,0.22000000000000008,0.30363636363636376,0.19000000000000003,0.2766666666666668
3,1,2,0,5,0.5200000000000002,2,7,77,110,115,119,13.049999999999777,0.15,0.01,0.20000000000000004,18,1,1,2,39,1,1,2,6,0.5,9,7,H,0.33461538461538476,0.15,0.01,0.1
3,2,3,0,1,0.23000000000000007,1,2,25,29,100,104,1.0100000000000005,0.9500000000000006,0.35000000000000014,0.2800000000000001,3,4,1,1,4,6,2,1,5,0,14,7,H,0.25250000000000006,0.15833333333333335,0.17500000000000002,0.2800000000000001
3,2,4,0,5,0.3300000000000001,2,3,5,10,1,81,1.0100000000000005,0.8200000000000005,7.939999999999875,0.2700000000000001,4,3,8,2,6,4,14,2,6,0.5,21,7,H,0.16833333333333336,0.20500000000000004,0.5671428571428575,0.13500000000000004
3,3,5,0,1,0.47000000000000025,2,5,32,33,25,58,2.1900000000000017,1.0100000000000007,1.2200000000000009,0.3900000000000002,7,5,4,2,15,6,4,2,5,0.5,19,7,H,0.14600000000000005,0.16833333333333336,0.3050000000000001,0.195
3,3,6,0,3,0.3900000000000002,2,4,46,81,101,106,1.0200000000000005,1.490000000000001,0.25000000000000006,0.19000000000000003,4,2,1,1,6,5,1,1,5,0,12,7,H,0.17000000000000004,0.29800000000000015,0.25000000000000006,0.19000000000000003
3,4,7,0,4,0.5100000000000002,2,3,103,12,30,97,2.110000000000001,2.339999999999994,0.13999999999999999,0.10999999999999999,5,7,1,1,7,9,1,1,2,0,15,7,H,0.30142857142857155,0.2600000000000001,0.13999999999999999,0.10999999999999999
3,4,8,0,3,0.34000000000000014,2,3,47,39,119,23,3.309999999999981,0.7700000000000005,0.19000000000000003,0.25000000000000006,8,4,1,3,12,4,1,3,5,0,18,7,H,0.27583333333333343,0.19250000000000006,0.19000000000000003,0.08333333333333333
3,5,9,0,3,0.5000000000000002,2,3,40,110,111,118,2.0900000000000016,0.49000000000000027,0.2900000000000001,1.410000000000001,6,2,1,4,9,2,1,6,5,0.5,11,7,H,0.2322222222222223,0.24500000000000005,0.2900000000000001,0.2350000000000001
3,5,10,0,4,1.0100000000000007,8,9,34,32,2,4,2.7700000000000022,1.8400000000000014,0.19000000000000003,0.19000000000000003,13,4,1,2,15,4,1,3,2,0,22,7,H,0.1846666666666667,0.46000000000000024,0.19000000000000003,0.06333333333333332
3,6,11,0,9,0.7700000000000005,9,11,62,37,63,41,1.2900000000000007,1.2200000000000009,0.19000000000000003,1.9500000000000015,11,2,1,8,13,3,1,8,4,0,18,7,H,0.09923076923076925,0.40666666666666684,0.19000000000000003,0.2437500000000001
3,6,12,0,6,0.9200000000000006,10,13,54,26,21,55,1.540000000000001,1.0200000000000007,1.5400000000000011,0.03,12,3,3,1,16,5,5,1,4,0,19,7,H,0.09625000000000002,0.20400000000000004,0.3080000000000001,0.03
3,7,13,1,13,0.35000000000000014,2,3,14,19,20,53,2.559999999999997,0.48000000000000026,3.45999999999997,0.03,6,2,10,2,10,2,14,2,6,0.5,22,7,H,0.2560000000000001,0.24000000000000007,0.24714285714285725,0.015
3,7,14,1,7,0.4200000000000002,2,6,7,73,12,45,2.0900000000000016,0.6100000000000003,0.38000000000000017,0.35000000000000014,7,3,2,1,12,3,2,1,3,0,20,7,H,0.17416666666666672,0.20333333333333337,0.19000000000000006,0.35000000000000014
3,8,15,1,15,0.3100000000000001,2,3,19,63,67,13,2.6299999999999946,0.2900000000000001,1.0900000000000007,0.3000000000000001,7,3,3,2,9,3,3,2,4,0,20,7,H,0.2922222222222223,0.09666666666666666,0.3633333333333335,0.15
3,8,16,1,4,0.18000000000000002,2,2,5,98,87,49,8.229999999999873,0.01,0.01,0.02,14,1,1,1,24,1,1,1,2,0,15,7,H,0.3429166666666668,0.01,0.01,0.02
3,9,17,1,11,0.6300000000000003,9,10,27,94,28,21,5.07999999999995,0.01,0.07,1.9400000000000015,15,1,1,2,23,1,1,3,2,0,19,7,H,0.2208695652173914,0.01,0.07,0.6466666666666671
3,9,18,1,4,0.49000000000000027,2,3,68,63,103,67,2.7699999999999956,0.2800000000000001,0.20000000000000004,0.09999999999999999,8,2,2,1,11,3,2,1,2,0.5,14,7,H,0.2518181818181819,0.09333333333333332,0.09999999999999999,0.09999999999999999
3,10,19,1,7,0.24000000000000007,2,3,84,75,107,104,1.2000000000000006,0.3100000000000001,0.9400000000000006,0.23000000000000007,4,1,5,1,7,1,7,1,3,0,10,7,H,0.17142857142857146,0.3100000000000001,0.1342857142857143,0.23000000000000007
3,10,20,1,6,0.3200000000000001,2,3,53,91,6,51,0.9100000000000004,2.4499999999999917,0.20000000000000004,0.09,4,8,1,1,6,12,1,1,4,0,17,7,H,0.1516666666666667,0.20416666666666672,0.20000000000000004,0.09
3,11,21,1,12,0.4100000000000002,2,3,95,23,86,96,2.4100000000000015,2.07,0.05,0.03,5,5,1,1,7,6,1,1,3,0.5,15,7,H,0.3442857142857144,0.34500000000000014,0.05,0.03
3,11,22,1,6,0.3000000000000001,2,3,7,12,81,55,1.2300000000000006,0.8700000000000006,0.7600000000000005,0.8700000000000006,4,2,3,3,8,3,4,3,4,0,19,7,H,0.15375000000000003,0.29000000000000015,0.19000000000000006,0.29000000000000015
3,12,23,1,6,0.4200000000000002,2,4,58,81,80,21,3.259999999999984,0.38000000000000017,2.569999999999989,0.02,7,2,7,1,10,2,7,1,4,0,16,7,H,0.3260000000000002,0.19000000000000003,0.3671428571428573,0.02
3,12,24,1,4,0.3100000000000001,2,3,62,108,103,1,2.5499999999999963,0.5000000000000002,0.5700000000000003,0.4400000000000002,9,4,3,3,11,4,3,3,2,0,14,7,H,0.2318181818181819,0.125,0.19000000000000009,0.1466666666666667
3,13,25,1,15,0.6600000000000004,3,5,15,72,16,70,2.6300000000000017,0.45000000000000023,0.16,0.5800000000000003,5,3,1,2,7,6,1,2,4,0,20,7,H,0.3757142857142859,0.075,0.16,0.29000000000000015
3,13,26,1,14,0.5600000000000003,2,4,12,5,92,103,1.4500000000000008,0.6100000000000003,1.2400000000000009,0.10999999999999999,4,3,2,1,6,3,3,1,5,0,17,7,H,0.24166666666666675,0.20333333333333337,0.4133333333333335,0.10999999999999999
3,14,27,1,3,0.3100000000000001,2,3,103,30,18,107,2.5799999999999956,0.11999999999999998,0.45000000000000023,0.20000000000000004,6,1,3,1,13,1,5,1,5,0,15,7,H,0.19846153846153852,0.11999999999999998,0.09,0.20000000000000004
3,14,28,1,11,0.46000000000000024,3,5,50,91,116,8,1.8500000000000012,0.4100000000000002,0.2700000000000001,0.09999999999999999,6,1,2,1,8,1,2,1,2,0,15,7,H,0.2312500000000001,0.4100000000000002,0.13499999999999998,0.09999999999999999
3,15,29,1,7,0.4400000000000002,2,5,79,115,29,69,1.2800000000000007,2.1899999999999973,0.10999999999999999,0.08,5,3,1,1,9,11,1,1,3,0,14,7,H,0.14222222222222225,0.19909090909090915,0.10999999999999999,0.08
3,15,30,1,12,0.4000000000000002,2,5,93,106,91,55,1.4600000000000009,0.4100000000000002,0.4200000000000002,0.15,5,2,2,1,9,2,3,1,3,0,12,7,H,0.16222222222222227,0.2050000000000001,0.14,0.15
3,16,31,1,14,0.20000000000000004,1,3,48,97,70,63,1.670000000000001,0.20000000000000004,0.5600000000000003,0.3000000000000001,3,1,2,1,9,1,3,2,5,0,15,7,H,0.18555555555555558,0.20000000000000004,0.1866666666666667,0.15000000000000005
3,16,32,1,3,0.7500000000000004,3,4,22,89,32,18,2.410000000000002,0.5700000000000003,0.3000000000000001,0.7800000000000005,8,1,1,2,13,1,1,2,5,0,20,7,H,0.18538461538461543,0.5700000000000003,0.3000000000000001,0.39000000000000024
3,17,33,1,11,0.2800000000000001,2,3,82,1,115,49,2.1000000000000014,0.26000000000000006,0.20000000000000004,0.3300000000000001,5,1,2,2,9,1,2,4,2,0,15,7,H,0.23333333333333342,0.26000000000000006,0.1,0.0825
3,17,34,1,12,1.360000000000001,5,8,13,88,41,90,16.759999999999717,0.01,0.01,0.01,20,1,1,1,55,1,1,1,3,0,17,7,H,0.30472727272727285,0.01,0.01,0.01
3,18,35,1,4,2.679999999999987,4,6,33,63,68,74,4.749999999999987,0.13999999999999999,0.24000000000000007,0.10999999999999999,8,1,2,1,11,1,2,1,2,0,16,7,H,0.43181818181818127,0.13999999999999999,0.12000000000000004,0.10999999999999999
3,18,36,1,12,0.3000000000000001,2,4,41,58,112,57,2.6299999999999946,0.07,0.22000000000000006,0.04,5,1,1,1,9,1,1,1,3,0,15,7,H,0.2922222222222224,0.07,0.22000000000000006,0.04
3,19,37,1,3,0.4300000000000002,3,4,27,30,119,112,1.0200000000000005,0.5400000000000003,0.7900000000000005,0.7000000000000004,5,2,2,2,6,3,4,3,5,0,14,7,H,0.17000000000000004,0.18000000000000005,0.19750000000000004,0.2333333333333334
3,19,38,1,4,0.38000000000000017,3,4,72,44,108,93,2.9599999999999893,0.6000000000000003,0.060000000000000005,0.21000000000000005,8,2,1,1,11,2,1,1,2,0,14,7,H,0.2690909090909092,0.30000000000000016,0.060000000000000005,0.21000000000000005
3,20,39,1,15,1.0300000000000007,3,5,78,64,47,42,3.459999999999993,0.6800000000000004,0.7200000000000004,0.17,8,2,3,2,14,2,4,2,4,0,17,7,H,0.24714285714285725,0.34000000000000014,0.18000000000000005,0.08499999999999999
3,20,40,1,12,3.8599999999999617,9,16,87,60,56,110,4.189999999999962,0.6500000000000004,2.099999999999999,0.09999999999999999,12,2,4,1,20,3,5,1,3,0,13,7,H,0.2095000000000001,0.21666666666666673,0.42000000000000026,0.09999999999999999
3,21,41,1,10,0.36000000000000015,2,3,118,111,87,7,1.9400000000000013,0.7700000000000005,0.4100000000000002,0.060000000000000005,5,3,2,1,9,4,2,1,6,0,13,7,H,0.21555555555555564,0.19250000000000003,0.20500000000000002,0.060000000000000005
3,21,42,1,6,0.8400000000000005,3,5,32,51,56,73,1.3500000000000008,1.5200000000000011,0.12999999999999998,0.18000000000000002,4,5,1,1,6,8,1,2,4,0,16,7,H,0.2250000000000001,0.19000000000000003,0.12999999999999998,0.09
4,1,1,0,1,0.4000000000000002,2,4,27,30,28,26,3.1499999999999857,1.1100000000000008,0.8900000000000006,5.8599999999999195,9,3,4,7,16,3,4,9,5,1,60,7,H,0.19687500000000005,0.37000000000000016,0.2225000000000001,0.6511111111111115
4,1,2,0,6,0.5100000000000002,2,5,60,82,58,50,6.759999999999911,1.1700000000000008,0.4300000000000002,1.1200000000000008,8,3,2,4,13,4,2,5,4,0.5,15,7,H,0.5199999999999998,0.29250000000000015,0.21500000000000008,0.22400000000000012
4,2,3,0,2,0.16,2,2,18,47,75,103,19.010000000000147,0.15,0.01,0.11999999999999998,18,1,1,1,40,2,1,1,3,0,16,7,H,0.47524999999999984,0.075,0.01,0.11999999999999998
4,2,4,0,1,0.3300000000000001,2,3,34,27,30,109,6.309999999999917,0.11999999999999998,2.53999999999999,5.429999999999929,11,1,8,10,22,1,8,17,5,0.5,17,7,H,0.2868181818181819,0.11999999999999998,0.31750000000000017,0.3194117647058825
4,3,5,0,8,0.35000000000000014,2,3,113,84,40,112,2.0800000000000014,2.7299999999999858,1.7100000000000013,0.4100000000000002,4,3,4,3,8,8,4,3,2,0,12,7,H,0.2600000000000001,0.34125000000000016,0.4275000000000002,0.1366666666666667
4,3,6,0,5,0.3300000000000001,2,3,7,54,31,57,1.640000000000001,6.009999999999916,0.5200000000000002,2.6999999999999864,5,9,2,4,7,18,2,8,6,0,19,7,H,0.23428571428571437,0.333888888888889,0.2600000000000001,0.3375000000000002
4,4,7,0,3,0.4100000000000002,2,3,41,10,1,68,1.9900000000000013,4.6399999999999455,4.43999999999995,0.9100000000000006,5,7,10,2,6,8,13,2,5,0,21,7,H,0.33166666666666683,0.5800000000000003,0.3415384615384617,0.4550000000000002
4,4,8,0,10,0.5300000000000002,2,3,24,13,78,17,2.4200000000000017,0.6800000000000004,1.310000000000001,0.9700000000000006,4,2,2,3,7,2,3,3,6,0.5,21,7,H,0.34571428571428586,0.3400000000000002,0.43666666666666687,0.3233333333333335
4,5,9,0,10,0.4200000000000002,2,3,24,17,43,13,5.939999999999927,2.1699999999999977,2.759999999999985,0.9300000000000006,11,3,6,4,15,6,8,5,6,0.5,23,7,H,0.3960000000000002,0.36166666666666686,0.34500000000000014,0.18600000000000005
4,5,10,0,2,0.7200000000000004,2,4,115,79,84,77,5.709999999999939,0.6200000000000003,0.19000000000000003,0.24000000000000007,8,3,1,1,22,7,1,1,3,0.5,11,7,H,0.25954545454545463,0.08857142857142858,0.19000000000000003,0.24000000000000007
4,6,11,0,7,0.49000000000000027,2,4,96,37,48,43,5.509999999999938,1.2200000000000009,0.8700000000000006,0.2800000000000001,10,3,3,1,15,5,3,1,3,0.5,18,7,H,0.3673333333333335,0.24400000000000008,0.2900000000000001,0.2800000000000001
4,6,12,0,1,0.2800000000000001,2,4,30,17,81,26,1.1200000000000006,1.5200000000000011,2.5499999999999896,0.12999999999999998,4,4,3,1,6,5,5,1,5,0,19,7,H,0.18666666666666676,0.30400000000000016,0.5100000000000003,0.12999999999999998
4,7,13,1,6,0.6800000000000004,7,8,56,58,12,41,2.620000000000002,1.440000000000001,2.3199999999999945,1.0100000000000007,11,2,5,3,17,4,8,4,4,0,19,7,H,0.15411764705882358,0.36000000000000015,0.2900000000000001,0.25250000000000006
4,7,14,1,11,0.48000000000000026,2,4,110,115,30,69,1.2200000000000006,3.5999999999999672,0.7300000000000004,1.8200000000000014,3,5,1,4,5,11,1,6,2,0,13,7,H,0.24400000000000008,0.3272727272727274,0.7300000000000004,0.30333333333333345
4,8,15,1,6,0.36000000000000015,2,4,32,59,106,74,4.689999999999952,2.06,1.470000000000001,0.8800000000000006,8,2,1,1,15,2,1,1,4,0,14,7,H,0.3126666666666668,1.0300000000000007,1.470000000000001,0.8800000000000006
4,8,16,1,14,0.7200000000000004,2,4,64,42,47,91,3.6099999999999826,1.2400000000000009,2.349999999999994,1.5100000000000011,5,2,4,2,8,2,4,2,5,0,17,7,H,0.4512500000000002,0.6200000000000003,0.5875000000000004,0.7550000000000004
4,9,17,1,15,0.3900000000000002,2,3,88,72,46,107,3.6999999999999735,2.2299999999999964,1.1500000000000008,0.2700000000000001,8,4,3,1,12,4,5,1,4,0,14,7,H,0.30833333333333346,0.5575000000000003,0.2300000000000001,0.2700000000000001
4,9,18,1,6,0.7400000000000004,2,6,51,58,6,52,2.1300000000000017,2.3299999999999943,0.8400000000000005,0.3100000000000001,4,5,3,2,8,9,3,2,4,0.5,18,7,H,0.2662500000000001,0.258888888888889,0.28000000000000014,0.15500000000000005
4,10,19,1,13,0.36000000000000015,2,3,48,47,14,46,4.319999999999959,0.4400000000000002,0.24000000000000007,0.35000000000000014,7,1,1,2,11,1,1,2,6,0.5,21,7,H,0.3927272727272729,0.4400000000000002,0.24000000000000007,0.17500000000000007
4,10,20,1,3,0.49000000000000027,2,3,3,29,97,86,4.709999999999955,0.5900000000000003,0.48000000000000026,0.2800000000000001,9,3,1,1,12,3,2,1,5,0,16,7,H,0.3925000000000002,0.1966666666666667,0.2400000000000001,0.2800000000000001
4,11,21,1,7,0.37000000000000016,2,3,73,17,39,82,5.959999999999925,0.8300000000000005,0.15,0.17,10,1,1,2,15,1,1,2,3,0,17,7,H,0.39733333333333354,0.8300000000000005,0.15,0.08499999999999999
4,11,22,1,12,0.9700000000000006,2,7,85,89,96,109,2.3400000000000016,4.489999999999949,3.2199999999999753,2.0000000000000013,4,6,4,3,11,13,11,3,3,0.5,11,7,H,0.2127272727272728,0.34538461538461557,0.2927272727272729,0.6666666666666671
4,12,23,1,14,0.6400000000000003,9,10,48,47,37,66,2.290000000000002,0.6100000000000003,4.2199999999999545,3.329999999999973,12,1,7,5,16,1,12,7,5,0.5,19,7,H,0.14312500000000003,0.6100000000000003,0.35166666666666685,0.475714285714286
4,12,24,1,6,0.7100000000000004,2,3,32,77,55,59,3.539999999999984,0.5300000000000002,0.7000000000000004,0.3300000000000001,5,1,2,1,9,1,2,1,4,0,16,7,H,0.39333333333333353,0.5300000000000002,0.35000000000000014,0.3300000000000001
4,13,25,1,15,0.3300000000000001,2,3,63,78,77,23,1.1900000000000006,4.749999999999943,1.0700000000000007,0.38000000000000017,4,9,3,2,6,17,5,3,4,0,16,7,H,0.19833333333333342,0.27941176470588247,0.21400000000000008,0.12666666666666665
4,13,26,1,12,0.25000000000000006,4,4,39,87,116,55,8.659999999999865,0.060000000000000005,0.19000000000000003,0.20000000000000004,13,2,1,2,27,2,1,2,3,0,14,7,H,0.3207407407407409,0.030000000000000002,0.19000000000000003,0.09999999999999999
4,14,27,1,4,0.45000000000000023,2,5,55,89,102,51,3.549999999999978,2.8299999999999836,0.5400000000000003,0.8900000000000006,5,3,4,3,13,14,4,4,2,0,13,7,H,0.27307692307692316,0.20214285714285724,0.135,0.22250000000000003
4,14,28,1,11,0.47000000000000025,2,5,111,17,68,32,1.7700000000000011,1.6200000000000012,0.5600000000000003,1.7800000000000014,4,2,1,2,8,2,1,2,2,0,17,7,H,0.22125000000000009,0.8100000000000005,0.5600000000000003,0.8900000000000007
4,15,29,1,13,0.47000000000000025,2,3,114,117,54,119,1.7800000000000011,2.3299999999999943,1.1500000000000008,0.8400000000000005,4,7,3,2,6,12,4,3,6,0.5,10,7,H,0.2966666666666668,0.1941666666666667,0.2875000000000001,0.28000000000000014
4,15,30,1,14,0.2900000000000001,2,3,46,38,10,3,1.580000000000001,1.330000000000001,3.1999999999999758,0.8700000000000006,4,2,4,2,9,4,10,3,5,0,22,7,H,0.1755555555555556,0.33250000000000013,0.3200000000000002,0.29000000000000015
4,16,31,1,14,0.4300000000000002,2,5,46,51,43,41,5.019999999999947,1.0400000000000007,0.11999999999999998,1.8600000000000014,9,1,1,4,22,1,1,4,5,0.5,19,7,H,0.22818181818181826,1.0400000000000007,0.11999999999999998,0.4650000000000003
4,16,32,1,3,0.3200000000000001,2,3,29,26,2,9,1.9500000000000013,1.7400000000000013,0.38000000000000017,1.430000000000001,5,2,1,2,11,6,1,2,5,0,22,7,H,0.17727272727272733,0.2900000000000001,0.38000000000000017,0.7150000000000004
4,17,33,1,6,0.3300000000000001,2,5,50,51,11,54,2.8299999999999907,2.579999999999989,0.7300000000000004,0.10999999999999999,5,9,3,1,12,11,3,1,4,0.5,18,7,H,0.23583333333333342,0.23454545454545464,0.2433333333333334,0.10999999999999999
4,17,34,1,12,0.4300000000000002,2,3,18,30,95,13,2.49,0.9600000000000006,0.7600000000000005,0.6500000000000004,5,4,2,1,8,5,3,1,3,0,20,7,H,0.31125000000000014,0.19200000000000006,0.2533333333333334,0.6500000000000004
4,18,35,1,15,0.2700000000000001,2,5,69,61,70,118,1.2000000000000006,3.659999999999966,1.8900000000000015,0.7500000000000004,4,6,5,2,7,7,6,2,4,0.5,14,7,H,0.17142857142857149,0.5228571428571431,0.3150000000000001,0.3750000000000002
4,18,36,1,4,0.16,2,2,1,28,49,57,9.859999999999838,0.08,0.46000000000000024,0.18000000000000002,12,2,1,1,23,3,1,1,2,0,19,7,H,0.42869565217391326,0.02666666666666667,0.46000000000000024,0.18000000000000002
4,19,37,1,11,0.12999999999999998,2,2,15,117,73,21,33.48000000000194,0.17,0.01,0.03,20,2,1,1,80,2,1,1,2,0,17,7,H,0.4185000000000002,0.085,0.01,0.03
4,19,38,1,3,0.35000000000000014,2,5,56,33,52,88,1.9800000000000013,0.8500000000000005,1.0500000000000007,2.52999999999999,5,3,3,3,11,5,4,4,5,0,16,7,H,0.18000000000000005,0.17000000000000004,0.26250000000000007,0.6325000000000004
4,20,39,1,12,0.5400000000000003,2,3,51,57,2,6,5.88999999999993,1.330000000000001,0.20000000000000004,0.34000000000000014,9,4,1,2,22,6,1,2,3,0,20,7,H,0.26772727272727287,0.22166666666666673,0.20000000000000004,0.17000000000000004
4,20,40,1,14,0.17,2,2,18,23,46,48,14.739999999999734,0.01,0.01,0.01,19,1,1,1,35,1,1,1,5,0,22,7,H,0.4211428571428573,0.01,0.01,0.01
5,1,1,0,5,0.3300000000000001,2,3,12,11,2,90,3.5099999999999763,2.3299999999999943,3.3499999999999726,0.5400000000000003,8,5,7,1,10,5,9,2,6,0.5,21,7,H,0.3510000000000002,0.4660000000000003,0.3722222222222224,0.27000000000000013
5,1,2,0,4,0.17,2,3,13,108,79,54,7.999999999999877,0.01,0.04,0.01,12,1,1,1,20,1,1,1,2,0,15,7,H,0.40000000000000024,0.01,0.04,0.01
5,2,3,0,9,0.25000000000000006,2,3,69,63,82,22,1.2000000000000006,2.06,2.709999999999986,0.03,5,7,6,1,7,9,6,1,4,0,17,7,H,0.17142857142857146,0.22888888888888897,0.45166666666666694,0.03
5,2,4,0,5,0.36000000000000015,2,3,8,7,58,88,1.0900000000000005,0.8500000000000005,2.6099999999999883,1.1700000000000008,4,2,3,3,6,4,5,4,6,0,19,7,H,0.18166666666666673,0.21250000000000008,0.5220000000000004,0.29250000000000015
5,3,5,0,9,0.46000000000000024,2,4,66,65,4,63,1.0200000000000005,2.3199999999999945,0.7700000000000005,0.20000000000000004,3,6,4,2,5,6,5,2,4,0.5,18,7,H,0.20400000000000007,0.3866666666666668,0.15400000000000003,0.09999999999999999
5,3,6,0,6,0.3300000000000001,2,3,51,55,57,24,0.8900000000000003,0.5000000000000002,0.7100000000000004,1.260000000000001,4,1,3,2,5,1,4,2,4,0.5,18,7,H,0.17800000000000005,0.5000000000000002,0.17750000000000005,0.6300000000000003
5,4,7,0,8,0.3300000000000001,2,3,119,18,110,15,0.7400000000000003,1.370000000000001,0.24000000000000007,0.38000000000000017,3,2,2,1,4,3,2,1,2,0,16,7,H,0.18500000000000005,0.4566666666666669,0.12000000000000002,0.38000000000000017
5,4,8,0,1,0.7000000000000004,2,7,64,103,32,105,2.560000000000002,0.6600000000000004,0.13999999999999999,0.7300000000000004,5,1,1,3,10,2,1,3,5,0,13,7,H,0.2560000000000001,0.3300000000000001,0.13999999999999999,0.2433333333333334
5,5,9,0,4,0.7100000000000004,2,5,21,98,61,17,2.490000000000002,1.5300000000000011,0.17,0.09999999999999999,4,4,1,1,7,6,1,1,2,0,18,7,H,0.35571428571428587,0.2550000000000001,0.17,0.09999999999999999
5,5,10,0,5,0.3000000000000001,2,4,7,4,33,5,0.8700000000000003,3.759999999999964,0.05,0.5100000000000002,3,8,1,3,5,16,1,4,6,0.5,23,7,H,0.17400000000000007,0.2350000000000001,0.05,0.12750000000000003
5,6,11,0,1,0.36000000000000015,2,3,32,71,65,85,1.0600000000000005,2.7299999999999858,0.09,0.6600000000000004,4,4,2,2,5,7,2,2,5,0,16,7,H,0.21200000000000008,0.3900000000000002,0.045,0.3300000000000001
5,6,12,0,6,0.22000000000000006,2,3,50,105,97,59,0.9000000000000005,1.1500000000000008,1.2100000000000009,0.24000000000000007,4,3,5,2,5,6,7,2,4,0,12,7,H,0.18000000000000005,0.1916666666666667,0.1728571428571429,0.12
5,7,13,1,6,0.38000000000000017,3,4,53,47,14,15,2.1100000000000017,0.8200000000000005,1.0400000000000007,6.919999999999897,7,1,3,11,9,1,3,20,4,0,21,7,H,0.2344444444444445,0.8200000000000005,0.3466666666666668,0.34600000000000014
5,7,14,1,12,0.5300000000000002,2,5,85,95,100,103,1.0100000000000005,1.340000000000001,0.3300000000000001,0.18000000000000002,4,5,2,1,7,6,2,1,3,0,10,7,H,0.14428571428571432,0.22333333333333338,0.165,0.18000000000000002
5,8,15,1,7,0.2900000000000001,2,3,82,97,81,78,1.0300000000000005,0.9900000000000007,0.21000000000000005,0.2900000000000001,5,1,1,2,11,1,1,2,3,0.5,11,7,H,0.09363636363636364,0.9900000000000007,0.21000000000000005,0.145
5,8,16,1,11,0.3200000000000001,2,3,118,95,116,113,0.7400000000000003,1.9000000000000015,0.15,0.7100000000000004,3,4,1,3,4,4,1,3,2,0.5,9,7,H,0.18500000000000005,0.47500000000000026,0.15,0.23666666666666675
5,9,17,1,10,0.6400000000000003,12,12,2,46,47,95,1.2900000000000007,4.289999999999953,0.04,0.02,13,7,1,1,13,9,1,1,6,0,19,7,H,0.09923076923076926,0.47666666666666696,0.04,0.02
5,9,18,1,3,0.5400000000000003,10,10,35,36,117,79,1.2700000000000007,2.7799999999999847,1.8100000000000014,0.45000000000000023,12,5,5,2,13,7,7,2,5,0,15,7,H,0.09769230769230772,0.39714285714285735,0.2585714285714287,0.2250000000000001
5,10,19,1,14,0.13999999999999999,3,3,13,44,119,61,14.099999999999747,0.7100000000000004,0.01,0.5200000000000002,16,3,1,2,30,3,1,2,5,0,17,7,H,0.4700000000000003,0.2366666666666668,0.01,0.2600000000000001
5,10,20,1,6,0.8000000000000005,6,7,57,58,52,30,1.1000000000000005,1.9400000000000015,1.430000000000001,0.2800000000000001,8,5,3,2,9,6,3,2,4,0.5,17,7,H,0.12222222222222223,0.32333333333333353,0.4766666666666669,0.14000000000000004
5,11,21,1,7,0.8200000000000005,10,10,108,101,13,82,4.109999999999975,2.819999999999984,0.12999999999999998,0.02,14,7,2,1,19,12,2,1,3,0,13,7,H,0.2163157894736843,0.2350000000000001,0.06499999999999999,0.02
5,11,22,1,15,0.3300000000000001,2,3,31,91,111,92,3.059999999999986,0.2800000000000001,0.4000000000000002,0.22000000000000006,7,1,1,1,14,1,1,1,4,0,13,7,H,0.21857142857142867,0.2800000000000001,0.4000000000000002,0.22000000000000006
5,12,23,1,13,0.21000000000000005,3,3,14,15,17,36,1.9100000000000013,0.23000000000000007,0.37000000000000016,1.9700000000000015,6,1,3,8,10,1,4,9,6,0.5,23,7,H,0.19100000000000006,0.23000000000000007,0.0925,0.21888888888888897
5,12,24,1,10,0.7500000000000004,8,9,9,3,2,73,1.740000000000001,0.21000000000000005,3.7699999999999636,0.09999999999999999,11,1,11,2,13,1,15,2,6,0.5,21,7,H,0.13384615384615386,0.21000000000000005,0.2513333333333334,0.05
5,13,25,1,13,0.3200000000000001,2,5,77,24,74,18,4.189999999999961,0.12999999999999998,0.05,0.7100000000000004,9,2,1,3,15,2,1,3,6,0,18,7,H,0.27933333333333343,0.065,0.05,0.23666666666666678
5,13,26,1,11,0.34000000000000014,2,4,117,88,8,3,0.8900000000000003,2.1699999999999977,0.9500000000000006,0.11999999999999998,4,4,2,3,7,9,2,3,2,0,17,7,H,0.12714285714285717,0.2411111111111112,0.47500000000000026,0.04
5,14,27,1,14,0.7400000000000004,2,7,81,77,44,2,1.8200000000000012,0.7700000000000005,1.1800000000000008,0.3900000000000002,5,2,4,2,10,2,5,2,5,0,17,7,H,0.18200000000000005,0.3850000000000002,0.2360000000000001,0.195
5,14,28,1,6,0.3300000000000001,3,4,58,13,90,19,0.7700000000000004,2.349999999999994,0.2900000000000001,1.0500000000000007,5,3,1,4,6,3,1,6,4,0,19,7,H,0.12833333333333335,0.7833333333333339,0.2900000000000001,0.17500000000000004
5,15,29,1,14,0.6600000000000004,2,4,44,45,39,96,3.319999999999988,1.9900000000000015,0.01,0.09,8,5,1,1,14,6,1,1,5,0.5,18,7,H,0.23714285714285724,0.33166666666666683,0.01,0.09
5,15,30,1,15,0.9000000000000006,6,7,71,7,77,76,1.8300000000000012,7.71999999999988,0.49000000000000027,0.7100000000000004,8,8,1,3,10,12,1,3,4,0,16,7,H,0.18300000000000005,0.6433333333333323,0.49000000000000027,0.23666666666666678
5,16,31,1,4,0.34000000000000014,2,4,58,37,18,20,1.8100000000000012,1.2500000000000009,0.5600000000000003,0.6300000000000003,5,4,1,2,10,4,1,2,2,0,21,7,H,0.18100000000000005,0.3125000000000001,0.5600000000000003,0.3150000000000001
5,16,32,1,7,0.5100000000000002,3,4,75,76,33,7,1.0200000000000005,2.3799999999999932,1.340000000000001,0.24000000000000007,5,4,2,2,6,4,3,2,3,0,17,7,H,0.17000000000000004,0.5950000000000003,0.44666666666666693,0.12000000000000001
5,17,33,1,11,0.2900000000000001,2,3,112,35,12,110,0.8100000000000003,1.7700000000000014,0.17,1.0900000000000007,4,3,1,2,5,3,1,2,2,0,15,7,H,0.16200000000000003,0.5900000000000003,0.17,0.5450000000000004
5,17,34,1,4,0.4000000000000002,2,5,53,41,59,73,2.290000000000002,0.49000000000000027,0.13999999999999999,0.25000000000000006,7,1,1,1,13,1,1,1,2,0,16,7,H,0.17615384615384622,0.49000000000000027,0.13999999999999999,0.25000000000000006
5,18,35,1,12,0.5800000000000003,3,5,85,57,108,92,1.3700000000000008,1.260000000000001,1.2300000000000009,0.6100000000000003,5,3,3,3,7,4,3,3,3,0,12,7,H,0.19571428571428576,0.3150000000000001,0.41000000000000025,0.2033333333333334
5,18,36,1,3,0.9100000000000006,9,9,3,27,75,30,2.2600000000000016,1.7700000000000014,0.23000000000000007,0.10999999999999999,11,4,2,1,12,6,2,1,5,0,19,7,H,0.1883333333333334,0.29500000000000015,0.11499999999999999,0.10999999999999999
5,19,37,1,14,0.5300000000000002,3,4,48,116,59,51,3.5599999999999796,0.4300000000000002,1.1600000000000008,0.04,9,3,4,1,11,3,4,1,5,0,15,7,H,0.3236363636363638,0.14333333333333337,0.2900000000000001,0.04
5,19,38,1,3,0.4300000000000002,2,3,84,1,36,75,1.3700000000000008,1.1600000000000008,2.719999999999986,0.9800000000000006,3,3,5,3,4,5,6,3,5,0,17,7,H,0.3425000000000002,0.23200000000000007,0.4533333333333336,0.3266666666666669
5,20,39,1,4,0.45000000000000023,2,4,95,105,87,94,1.630000000000001,0.38000000000000017,0.45000000000000023,0.3000000000000001,4,1,2,1,6,1,4,1,2,0.5,11,7,H,0.2716666666666668,0.38000000000000017,0.11250000000000002,0.3000000000000001
5,20,40,1,15,0.4100000000000002,2,3,62,11,78,10,1.570000000000001,0.5000000000000002,0.9700000000000006,0.23000000000000007,4,1,3,2,7,1,3,3,4,0,19,7,H,0.22428571428571434,0.5000000000000002,0.3233333333333335,0.07666666666666667
5,21,41,1,11,0.6400000000000003,4,7,114,80,11,81,1.730000000000001,1.7100000000000013,0.26000000000000006,1.1000000000000008,7,4,1,4,11,4,1,7,2,0,14,7,H,0.15727272727272731,0.4275000000000002,0.26000000000000006,0.15714285714285717
5,21,42,1,13,0.38000000000000017,3,4,15,13,88,36,2.420000000000001,6.229999999999912,0.01,0.07,9,9,1,1,12,16,1,1,6,0,20,7,H,0.20166666666666674,0.38937500000000025,0.01,0.07
6,1,1,0,1,0.3200000000000001,2,3,27,33,98,97,2.85999999999999,0.08,3.0799999999999783,0.2700000000000001,10,1,6,1,11,1,6,1,5,0,14,7,H,0.2600000000000001,0.08,0.5133333333333336,0.2700000000000001
6,1,2,0,2,0.4000000000000002,2,4,79,83,50,16,1.4400000000000008,1.0200000000000007,0.4100000000000002,0.6000000000000003,5,3,3,2,10,3,3,2,3,0,16,7,H,0.14400000000000002,0.3400000000000002,0.13666666666666671,0.3000000000000001
6,2,3,0,10,0.47000000000000025,2,4,35,82,32,25,4.109999999999967,0.37000000000000016,0.07,0.09,8,2,1,1,10,2,1,1,6,0.5,18,7,H,0.41100000000000025,0.18500000000000005,0.07,0.09
6,2,4,0,7,0.26000000000000006,2,3,101,58,102,57,1.9700000000000013,0.3100000000000001,0.4400000000000002,0.5500000000000003,4,1,1,2,5,1,1,2,3,0,12,7,H,0.39400000000000024,0.3100000000000001,0.4400000000000002,0.27500000000000013
6,3,5,0,9,0.2900000000000001,2,4,72,67,69,79,2.5099999999999967,0.09,1.430000000000001,0.10999999999999999,8,1,5,1,10,1,6,1,4,0.5,15,7,H,0.2510000000000001,0.09,0.23833333333333342,0.10999999999999999
6,3,6,0,1,0.3200000000000001,2,3,30,35,34,8,0.8500000000000003,1.470000000000001,2.5099999999999905,2.719999999999986,4,4,5,8,5,4,6,14,5,0.5,21,7,H,0.17000000000000004,0.36750000000000016,0.41833333333333356,0.19428571428571434
6,4,7,0,4,0.6300000000000003,2,3,68,12,11,97,6.689999999999916,0.02,0.03,0.01,8,1,1,1,11,2,1,1,2,0,18,7,H,0.6081818181818176,0.01,0.03,0.01
6,4,8,0,1,0.35000000000000014,2,4,36,33,120,23,1.0900000000000005,3.049999999999979,0.9500000000000006,0.5400000000000003,3,7,2,2,5,9,2,3,5,0,18,7,H,0.21800000000000008,0.3388888888888891,0.47500000000000026,0.18000000000000005
6,5,9,0,3,0.3200000000000001,2,3,64,119,23,72,2.439999999999999,1.1100000000000008,0.38000000000000017,0.03,7,3,3,1,11,4,3,1,5,0,16,7,H,0.2218181818181819,0.2775000000000001,0.12666666666666668,0.03
6,5,10,0,2,0.7200000000000004,3,6,79,9,29,7,2.8,0.8800000000000006,0.060000000000000005,0.17,8,4,2,1,16,4,2,1,3,0,20,7,H,0.17500000000000004,0.22000000000000006,0.030000000000000002,0.17
6,6,11,0,10,0.38000000000000017,2,3,100,64,20,97,2.2600000000000016,0.9700000000000006,0.7100000000000004,4.41999999999995,7,2,3,10,10,2,3,14,6,0,14,7,H,0.2260000000000001,0.4850000000000002,0.23666666666666675,0.31571428571428584
6,6,12,0,5,0.5700000000000003,2,4,119,3,26,113,7.129999999999905,4.999999999999938,0.01,1.6700000000000013,10,11,1,2,16,13,1,2,6,0,15,7,H,0.44562500000000027,0.3846153846153848,0.01,0.8350000000000006
6,7,13,1,13,0.3300000000000001,2,3,22,72,24,93,0.8500000000000003,2.5599999999999894,1.310000000000001,1.5600000000000012,4,6,3,2,5,8,3,2,6,0,19,7,H,0.17000000000000004,0.3200000000000001,0.4366666666666669,0.7800000000000005
6,7,14,1,10,0.45000000000000023,2,5,42,105,40,37,4.229999999999964,0.5600000000000003,0.08,0.04,9,2,1,1,15,2,1,2,6,0.5,17,7,H,0.28200000000000014,0.28000000000000014,0.08,0.02
6,8,15,1,14,0.34000000000000014,2,3,19,48,14,68,2.0300000000000016,0.19000000000000003,0.6000000000000003,0.7000000000000004,6,1,2,2,7,2,2,3,5,0,21,7,H,0.2900000000000001,0.095,0.3000000000000001,0.2333333333333334
6,8,16,1,3,0.34000000000000014,2,3,106,6,34,7,1.9600000000000013,0.34000000000000014,0.25000000000000006,0.09999999999999999,5,2,2,1,8,2,2,1,5,0,19,7,H,0.24500000000000008,0.17000000000000004,0.12499999999999997,0.09999999999999999
6,9,17,1,6,0.25000000000000006,2,3,58,38,7,8,0.8600000000000003,0.7500000000000004,0.35000000000000014,0.45000000000000023,4,1,1,2,6,1,1,2,4,0,21,7,H,0.14333333333333337,0.7500000000000004,0.35000000000000014,0.22500000000000003
6,9,18,1,3,0.49000000000000027,2,3,27,88,68,15,19.08000000000011,0.01,0.01,0.01,17,1,1,1,38,1,1,1,5,0,18,7,H,0.5021052631578946,0.01,0.01,0.01
6,10,19,1,4,0.36000000000000015,2,3,20,97,22,103,1.560000000000001,0.7500000000000004,0.3100000000000001,0.11999999999999998,4,3,2,1,5,3,2,1,2,0,16,7,H,0.31200000000000017,0.25000000000000006,0.155,0.11999999999999998
6,10,20,1,7,0.3000000000000001,2,3,68,83,26,75,1.9900000000000013,0.13999999999999999,0.4000000000000002,0.08,5,1,2,1,7,1,2,1,3,0,15,7,H,0.2842857142857144,0.13999999999999999,0.20000000000000004,0.08
6,11,21,1,4,0.8700000000000006,7,8,68,22,70,25,2.4200000000000017,0.3100000000000001,0.18000000000000002,0.20000000000000004,12,1,2,2,13,1,2,2,2,0,19,7,H,0.18615384615384623,0.3100000000000001,0.09,0.1
6,11,22,1,14,0.4400000000000002,2,4,57,7,59,8,1.2900000000000007,0.6200000000000003,1.490000000000001,1.1400000000000008,3,1,3,3,5,1,4,3,5,0,20,7,H,0.2580000000000001,0.6200000000000003,0.37250000000000016,0.3800000000000002
6,12,23,1,7,0.4200000000000002,2,3,74,54,59,76,1.8400000000000012,0.25000000000000006,0.4300000000000002,0.7400000000000004,5,1,1,3,9,1,1,3,3,0,14,7,H,0.2044444444444445,0.25000000000000006,0.4300000000000002,0.24666666666666673
6,12,24,1,10,0.4000000000000002,2,4,3,2,45,62,1.0200000000000005,1.8900000000000015,0.5900000000000003,0.08,4,5,3,1,6,5,3,1,6,0,21,7,H,0.17000000000000004,0.3780000000000002,0.1966666666666667,0.08
6,13,25,1,10,1.7500000000000013,6,8,70,107,66,47,2.0600000000000014,0.49000000000000027,0.9700000000000006,0.6100000000000003,7,3,3,4,9,3,3,4,6,0,15,7,H,0.22888888888888897,0.1633333333333334,0.3233333333333335,0.15250000000000002
6,13,26,1,3,0.6800000000000004,4,7,29,31,60,35,1.1300000000000006,0.9500000000000006,0.20000000000000004,0.9100000000000006,6,3,1,3,9,3,1,3,5,0.5,19,7,H,0.1255555555555556,0.31666666666666676,0.20000000000000004,0.30333333333333345
6,14,27,1,15,0.6400000000000003,2,5,72,3,62,5,15.559999999999727,0.01,0.02,0.01,18,1,1,1,42,1,1,1,4,0,20,7,H,0.3704761904761907,0.01,0.02,0.01
6,14,28,1,14,0.26000000000000006,2,3,17,47,13,46,1.1600000000000006,0.36000000000000015,0.22000000000000006,0.5000000000000002,5,2,1,2,6,3,1,3,5,0,22,7,H,0.1933333333333334,0.12000000000000001,0.22000000000000006,0.16666666666666669
6,15,29,1,13,0.7400000000000004,2,3,67,32,16,71,2.540000000000002,0.16,0.5000000000000002,1.2200000000000009,6,1,2,3,11,1,2,4,6,0,19,7,H,0.23090909090909098,0.16,0.2500000000000001,0.3050000000000001
6,15,30,1,6,0.6600000000000004,2,4,60,43,73,46,1.2000000000000006,1.5500000000000012,0.45000000000000023,1.430000000000001,3,4,3,4,5,5,3,4,4,0,17,7,H,0.24000000000000007,0.31000000000000016,0.15000000000000002,0.3575000000000002
6,16,31,1,11,0.25000000000000006,2,3,110,75,74,76,0.7300000000000003,1.1300000000000008,0.2900000000000001,0.38000000000000017,4,3,2,2,5,4,2,2,2,0.5,11,7,H,0.14600000000000005,0.2825000000000001,0.14500000000000005,0.19000000000000003
6,16,32,1,12,1.6700000000000013,4,8,105,93,26,60,2.660000000000002,0.34000000000000014,0.49000000000000027,0.16,7,2,1,1,12,2,1,1,3,0,14,7,H,0.22166666666666676,0.17000000000000004,0.49000000000000027,0.16
6,17,33,1,11,0.3300000000000001,2,3,116,36,26,62,1.1100000000000005,0.5900000000000003,0.5900000000000003,0.47000000000000025,4,3,2,2,5,3,2,2,2,0,16,7,H,0.2220000000000001,0.19666666666666674,0.2950000000000001,0.23500000000000004
6,17,34,1,7,0.5000000000000002,2,3,83,13,56,23,1.2400000000000007,0.5400000000000003,0.2900000000000001,0.38000000000000017,4,2,1,2,5,4,1,2,3,0,19,7,H,0.24800000000000008,0.13500000000000004,0.2900000000000001,0.19000000000000003
6,18,35,1,13,0.8300000000000005,6,8,107,31,73,20,1.670000000000001,0.4200000000000002,0.4000000000000002,0.46000000000000024,7,1,2,2,9,1,2,2,6,0,16,7,H,0.1855555555555556,0.4200000000000002,0.20000000000000004,0.23000000000000004
6,18,36,1,15,0.35000000000000014,2,3,66,96,91,67,2.0300000000000016,1.0900000000000007,0.4200000000000002,0.7700000000000005,5,2,3,3,9,2,3,3,4,0,14,7,H,0.22555555555555562,0.5450000000000003,0.14000000000000004,0.2566666666666668
6,19,37,1,12,0.2700000000000001,2,3,96,101,72,66,3.4299999999999766,0.19000000000000003,1.330000000000001,0.37000000000000016,6,2,3,2,7,2,3,2,3,0,13,7,H,0.4900000000000003,0.095,0.4433333333333336,0.18500000000000003
6,19,38,1,13,0.6100000000000003,2,5,36,22,17,55,1.2000000000000006,0.8300000000000005,1.1900000000000008,0.6500000000000004,3,3,5,2,6,3,6,2,6,0,21,7,H,0.20000000000000007,0.2766666666666667,0.19833333333333342,0.3250000000000001
6,20,39,1,7,0.35000000000000014,2,3,73,74,60,31,2.799999999999992,2.959999999999981,0.01,2.3099999999999947,10,4,1,3,13,5,1,4,3,0,15,7,H,0.21538461538461545,0.5919999999999979,0.01,0.5775000000000003
6,20,40,1,12,5.589999999999925,7,14,68,44,66,87,9.089999999999895,0.48000000000000026,0.01,0.18000000000000002,12,1,1,2,19,1,1,2,3,0,16,7,H,0.47842105263157925,0.48000000000000026,0.01,0.09000000000000001
6,21,41,1,15,0.7100000000000004,6,8,115,110,38,80,4.569999999999962,0.23000000000000007,1.310000000000001,0.03,10,2,2,1,12,2,2,1,4,0,12,7,H,0.3808333333333335,0.11500000000000003,0.6550000000000005,0.03
6,21,42,1,6,0.4400000000000002,2,3,50,54,92,85,1.520000000000001,0.4000000000000002,0.9300000000000006,1.380000000000001,4,1,3,5,5,1,3,6,4,0,14,7,H,0.30400000000000016,0.4000000000000002,0.3100000000000001,0.23000000000000007
7,1,1,0,3,0.3000000000000001,2,3,40,51,59,22,1.1400000000000006,1.340000000000001,4.159999999999956,1.440000000000001,4,2,5,3,7,2,7,3,5,0,19,7,H,0.1628571428571429,0.6700000000000004,0.5942857142857146,0.48000000000000026
7,1,2,0,8,0.35000000000000014,2,3,119,116,71,84,2.360000000000001,0.17,3.0599999999999787,0.16,6,1,3,1,9,1,5,1,2,0,11,7,H,0.26222222222222236,0.17,0.6120000000000004,0.16
7,2,3,0,5,0.4000000000000002,2,5,11,5,67,7,1.2400000000000007,0.3100000000000001,2.1699999999999977,0.13999999999999999,4,1,5,2,9,1,6,2,6,0.5,22,7,H,0.1377777777777778,0.3100000000000001,0.36166666666666686,0.07
7,2,4,0,7,0.6400000000000003,2,8,41,88,110,85,2.0600000000000014,0.49000000000000027,0.4200000000000002,0.09,4,2,1,1,10,2,1,1,3,0,13,7,H,0.20600000000000007,0.24500000000000005,0.4200000000000002,0.09
7,3,5,0,3,0.3900000000000002,2,3,96,45,88,2,3.029999999999988,0.8300000000000005,0.4400000000000002,0.48000000000000026,4,3,2,3,5,3,3,3,5,0,17,7,H,0.6060000000000004,0.2766666666666668,0.1466666666666667,0.16000000000000003
7,3,6,0,9,0.2900000000000001,2,4,21,63,67,113,1.8800000000000012,0.16,0.4300000000000002,0.9100000000000006,4,1,3,3,6,1,3,7,4,0,16,7,H,0.3133333333333335,0.16,0.1433333333333333,0.13000000000000003
7,4,7,0,4,0.36000000000000015,2,4,106,1,105,12,1.2800000000000007,1.7500000000000013,0.09999999999999999,1.310000000000001,4,3,1,2,8,3,1,3,2,0,16,7,H,0.16000000000000003,0.5833333333333337,0.09999999999999999,0.43666666666666687
7,4,8,0,9,0.15,2,2,15,63,113,69,36.59000000000132,0.01,1.1500000000000008,0.01,20,1,2,1,77,1,2,1,4,0,16,7,H,0.47519480519480545,0.01,0.5750000000000004,0.01
7,5,9,0,10,0.46000000000000024,2,4,22,110,96,17,0.8700000000000004,1.310000000000001,1.1000000000000008,1.9800000000000015,4,2,2,5,6,3,4,6,6,0,17,7,H,0.14500000000000005,0.4366666666666669,0.27500000000000013,0.3300000000000002
7,5,10,0,4,0.38000000000000017,2,3,99,7,5,73,1.2300000000000006,2.2199999999999966,1.400000000000001,1.0000000000000007,4,2,4,3,5,2,4,3,2,0,17,7,H,0.2460000000000001,1.1100000000000008,0.35000000000000014,0.3333333333333335
7,6,11,0,7,0.48000000000000026,2,3,86,85,41,90,1.8700000000000012,0.34000000000000014,0.8400000000000005,0.2900000000000001,5,1,3,2,8,1,4,2,3,0.5,14,7,H,0.23375000000000007,0.34000000000000014,0.21000000000000008,0.14500000000000002
7,6,12,0,1,0.35000000000000014,2,3,21,24,83,34,3.0499999999999865,0.7500000000000004,1.1100000000000008,0.03,6,2,5,1,14,3,5,1,5,0,20,7,H,0.21785714285714292,0.2500000000000001,0.2220000000000001,0.03
7,7,13,1,13,0.4000000000000002,2,4,94,23,104,21,3.279999999999983,0.25000000000000006,0.3300000000000001,0.7700000000000005,5,2,2,3,10,2,4,4,6,0,17,7,H,0.3280000000000002,0.125,0.08249999999999999,0.19250000000000006
7,7,14,1,14,0.3900000000000002,2,3,41,2,48,74,0.9900000000000004,1.0700000000000007,0.25000000000000006,1.390000000000001,4,3,1,2,5,4,1,2,5,0,19,7,H,0.19800000000000006,0.2675000000000001,0.25000000000000006,0.6950000000000004
7,8,15,1,11,0.3900000000000002,2,3,115,113,66,70,1.2100000000000006,0.6300000000000003,2.859999999999983,2.159999999999998,4,2,3,3,5,3,5,3,2,0,12,7,H,0.24200000000000008,0.21000000000000005,0.5720000000000003,0.7200000000000001
7,8,16,1,14,0.7700000000000005,2,4,48,47,101,37,2.110000000000001,0.4200000000000002,0.5300000000000002,0.2800000000000001,4,1,2,2,10,1,2,3,5,0.5,17,7,H,0.21100000000000005,0.4200000000000002,0.26500000000000007,0.09333333333333334
7,9,17,1,7,0.5600000000000003,2,5,17,74,26,97,2.030000000000001,0.49000000000000027,0.8700000000000006,0.49000000000000027,4,3,3,2,7,3,3,2,3,0,16,7,H,0.29000000000000015,0.16333333333333339,0.2900000000000001,0.24500000000000005
7,9,18,1,11,0.3100000000000001,2,3,8,42,116,11,2.699999999999993,0.38000000000000017,0.11999999999999998,0.21000000000000005,7,1,1,1,9,1,1,1,2,0,19,7,H,0.3000000000000001,0.38000000000000017,0.11999999999999998,0.21000000000000005
7,10,19,1,10,0.4400000000000002,2,4,9,108,26,3,1.540000000000001,1.310000000000001,0.26000000000000006,5.739999999999922,5,2,1,9,7,5,1,13,6,0,19,7,H,0.22000000000000008,0.2620000000000001,0.26000000000000006,0.44153846153846177
7,10,20,1,15,0.7200000000000004,10,10,119,120,118,18,3.8499999999999774,0.8000000000000005,0.5900000000000003,0.22000000000000006,14,2,2,2,16,2,2,2,4,0.5,12,7,H,0.24062500000000012,0.40000000000000024,0.29500000000000015,0.10999999999999999
7,11,21,1,13,0.48000000000000026,3,4,20,16,74,77,1.3300000000000007,0.5300000000000002,1.9800000000000015,3.8299999999999623,5,2,5,5,6,3,5,7,6,0,18,7,H,0.22166666666666673,0.17666666666666672,0.39600000000000024,0.5471428571428575
7,11,22,1,4,0.4400000000000002,2,5,107,7,8,72,1.1600000000000006,1.7200000000000013,1.6900000000000013,1.390000000000001,4,5,3,1,7,5,4,1,2,0,18,7,H,0.16571428571428576,0.34400000000000014,0.4225000000000002,1.390000000000001
7,12,23,1,4,0.9100000000000006,2,3,101,61,10,65,2.290000000000002,0.6900000000000004,0.10999999999999999,0.46000000000000024,4,2,1,2,7,2,1,3,2,0,16,7,H,0.3271428571428573,0.34500000000000014,0.10999999999999999,0.15333333333333335
7,12,24,1,13,1.460000000000001,10,13,27,34,16,17,5.9499999999999496,0.08,5.619999999999925,0.01,19,2,8,1,22,2,10,1,6,0,22,7,H,0.27045454545454556,0.04,0.5620000000000003,0.01
7,13,25,1,3,0.35000000000000014,2,3,71,30,15,24,1.9600000000000013,0.34000000000000014,0.5100000000000002,0.20000000000000004,3,2,2,1,4,2,2,1,5,0,21,7,H,0.4900000000000003,0.17000000000000004,0.25500000000000006,0.20000000000000004
7,13,26,1,14,0.35000000000000014,2,3,41,103,46,107,1.0400000000000005,1.350000000000001,0.2700000000000001,0.16,3,5,3,1,4,5,5,1,5,0,14,7,H,0.2600000000000001,0.27000000000000013,0.05399999999999999,0.16
7,14,27,1,7,0.36000000000000015,2,3,21,22,42,74,1.3900000000000008,0.6500000000000004,0.7900000000000005,0.4200000000000002,3,1,2,2,4,1,2,2,3,0,20,7,H,0.3475000000000002,0.6500000000000004,0.39500000000000013,0.21000000000000005
7,14,28,1,11,0.47000000000000025,2,5,109,29,120,111,1.3500000000000008,1.1200000000000008,0.6600000000000004,0.8500000000000005,5,2,2,4,9,2,2,4,2,0.5,11,7,H,0.15000000000000002,0.5600000000000003,0.3300000000000001,0.2125000000000001
7,15,29,1,15,0.18000000000000002,3,3,12,68,66,38,4.239999999999958,0.03,0.03,0.04,8,1,1,1,10,1,1,1,4,0,19,7,H,0.42400000000000027,0.03,0.03,0.04
7,15,30,1,11,0.5600000000000003,2,4,119,114,113,19,1.3800000000000008,1.280000000000001,0.7600000000000005,0.22000000000000006,5,2,3,2,10,3,3,3,2,0.5,12,7,H,0.138,0.42666666666666686,0.2533333333333334,0.07333333333333332
7,16,31,1,6,0.5100000000000002,2,5,38,77,20,100,2.530000000000001,0.5200000000000002,0.7800000000000005,0.3200000000000001,6,1,2,1,9,1,4,1,4,0,16,7,H,0.28111111111111126,0.5200000000000002,0.19500000000000006,0.3200000000000001
7,16,32,1,11,0.5900000000000003,6,6,4,8,113,114,1.0000000000000004,0.2800000000000001,1.6500000000000012,0.6800000000000004,7,2,3,3,7,2,4,4,2,0,16,7,H,0.1428571428571429,0.14000000000000004,0.4125000000000002,0.17000000000000004
7,17,33,1,12,0.5000000000000002,3,6,88,91,36,95,1.1000000000000005,1.0200000000000007,0.5800000000000003,0.4200000000000002,5,2,1,2,8,4,1,3,3,0.5,14,7,H,0.13750000000000004,0.25500000000000006,0.5800000000000003,0.14000000000000004
7,17,34,1,14,0.48000000000000026,2,5,17,117,40,109,2.330000000000002,0.6400000000000003,0.36000000000000015,0.9100000000000006,6,2,2,2,13,2,2,2,5,0,15,7,H,0.17923076923076928,0.3200000000000001,0.18000000000000005,0.4550000000000003
7,18,35,1,7,0.2900000000000001,2,4,76,83,14,13,0.7000000000000003,0.3200000000000001,1.390000000000001,0.9600000000000006,3,1,4,3,5,2,5,3,3,0,18,7,H,0.14000000000000004,0.16000000000000003,0.27800000000000014,0.3200000000000001
7,18,36,1,14,0.5000000000000002,2,5,48,115,117,116,3.379999999999983,1.2300000000000009,0.060000000000000005,0.09,7,5,1,1,12,6,1,1,5,0.5,11,7,H,0.2816666666666668,0.20500000000000007,0.060000000000000005,0.09
7,19,37,1,4,0.2800000000000001,2,3,101,8,108,41,1.3100000000000007,1.400000000000001,0.9500000000000006,0.15,4,4,2,1,6,7,2,1,2,0,15,7,H,0.2183333333333334,0.20000000000000007,0.4750000000000003,0.15
7,19,38,1,6,0.5200000000000002,2,5,59,110,20,85,1.2900000000000007,0.8900000000000006,0.7600000000000005,2.259999999999996,4,2,2,2,7,3,4,2,4,0,15,7,H,0.18428571428571433,0.2966666666666668,0.19000000000000006,1.1299999999999983
7,20,39,1,10,0.37000000000000016,2,3,3,92,86,94,4.159999999999964,0.09999999999999999,1.8400000000000014,1.320000000000001,8,2,5,2,11,3,5,2,6,0.5,15,7,H,0.3781818181818184,0.03333333333333333,0.36800000000000016,0.6600000000000004
7,20,40,1,7,0.3900000000000002,2,3,80,41,21,82,2.46,0.21000000000000005,2.5999999999999885,0.03,4,1,4,1,5,1,4,1,3,0,17,7,H,0.4920000000000003,0.21000000000000005,0.6500000000000005,0.03
7,21,41,1,6,0.3100000000000001,2,3,52,8,58,40,0.9300000000000004,0.8700000000000006,0.25000000000000006,0.7700000000000005,4,2,1,1,5,3,1,1,4,0,19,7,H,0.18600000000000005,0.2900000000000001,0.25000000000000006,0.7700000000000005
7,21,42,1,3,0.3200000000000001,2,4,36,16,119,113,1.0000000000000004,1.400000000000001,0.6800000000000004,0.8500000000000005,4,3,1,1,6,4,2,1,5,0,15,7,H,0.1666666666666667,0.3500000000000002,0.34000000000000014,0.8500000000000005
8,1,1,0,7,0.2900000000000001,2,3,55,88,85,89,4.389999999999957,0.11999999999999998,1.1300000000000008,0.060000000000000005,7,1,5,1,11,1,5,1,3,0.5,13,7,H,0.3990909090909093,0.11999999999999998,0.2260000000000001,0.060000000000000005
8,1,2,0,2,0.4200000000000002,2,5,81,73,39,80,6.23999999999992,2.020000000000001,3.659999999999966,0.4100000000000002,11,5,4,2,16,5,6,2,3,0.5,14,7,H,0.39000000000000024,0.4040000000000002,0.609999999999999,0.2050000000000001
8,2,3,0,10,0.2700000000000001,2,3,16,13,78,18,5.059999999999943,0.7700000000000005,1.2000000000000008,0.4000000000000002,11,2,2,2,14,2,2,2,6,0.5,21,7,H,0.3614285714285716,0.38500000000000023,0.6000000000000003,0.20000000000000004
8,2,4,0,1,0.2700000000000001,2,6,30,29,94,25,2.6499999999999932,0.37000000000000016,4.1699999999999555,1.7100000000000013,4,1,8,6,9,1,11,7,5,0.5,18,7,H,0.2944444444444446,0.37000000000000016,0.3790909090909093,0.2442857142857144
8,3,5,0,3,0.4200000000000002,2,4,39,52,58,43,3.709999999999974,0.7900000000000005,1.280000000000001,0.34000000000000014,9,1,3,3,13,1,4,3,5,0,18,7,H,0.2853846153846155,0.7900000000000005,0.3200000000000001,0.11333333333333336
8,3,6,0,1,0.25000000000000006,2,3,29,31,95,92,4.839999999999947,0.9400000000000006,1.5600000000000012,1.450000000000001,11,4,3,2,14,4,3,2,5,0,16,7,H,0.34571428571428586,0.2350000000000001,0.5200000000000002,0.7250000000000005
8,4,7,0,1,0.5800000000000003,2,3,30,28,29,82,2.67,4.629999999999946,1.0200000000000007,1.280000000000001,5,11,4,4,8,15,4,4,5,0.5,18,7,H,0.33375000000000016,0.3086666666666668,0.2550000000000001,0.3200000000000002
8,4,8,0,6,0.49000000000000027,2,4,58,52,50,42,1.8200000000000012,1.1900000000000008,2.99999999999998,0.11999999999999998,3,3,6,1,5,6,9,1,4,0.5,17,7,H,0.3640000000000002,0.1983333333333334,0.3333333333333335,0.11999999999999998
8,5,9,0,6,0.2900000000000001,4,4,40,47,58,53,9.049999999999859,0.08,0.7400000000000004,0.01,18,1,2,1,26,1,2,1,4,0,18,7,H,0.3480769230769233,0.08,0.3700000000000002,0.01
8,5,10,0,9,0.2700000000000001,2,4,25,1,27,90,2.849999999999989,6.669999999999902,1.8900000000000015,2.669999999999987,8,9,4,5,12,18,4,6,4,0,19,7,H,0.2375000000000001,0.37055555555555575,0.4725000000000003,0.44500000000000023
8,6,11,0,2,0.3900000000000002,2,3,58,78,1,30,2.7999999999999927,0.5000000000000002,1.370000000000001,0.2900000000000001,7,2,3,1,9,2,3,1,3,0,18,7,H,0.3111111111111113,0.25000000000000006,0.4566666666666669,0.2900000000000001
8,6,12,0,8,0.8400000000000005,12,13,39,120,113,85,3.9599999999999778,0.9200000000000006,0.7700000000000005,0.8400000000000005,18,5,2,3,22,5,2,3,2,0,12,7,H,0.18000000000000008,0.18400000000000005,0.38500000000000023,0.2800000000000001
8,7,13,1,4,0.2800000000000001,2,3,107,97,28,9,4.239999999999959,1.7100000000000013,0.2900000000000001,0.8400000000000005,8,3,1,1,13,4,1,2,2,0,15,7,H,0.3261538461538463,0.42750000000000027,0.2900000000000001,0.42000000000000015
8,7,14,1,15,0.24000000000000007,3,3,17,20,70,77,6.399999999999913,0.21000000000000005,0.07,0.22000000000000006,11,1,2,3,17,1,2,3,4,0,19,7,H,0.3764705882352943,0.21000000000000005,0.035,0.07333333333333333
8,8,15,1,15,0.5600000000000003,4,5,104,35,101,27,2.719999999999998,1.1000000000000008,0.9600000000000006,0.2700000000000001,8,3,2,1,10,5,2,1,4,0,14,7,H,0.27200000000000013,0.22000000000000006,0.4800000000000002,0.2700000000000001
8,8,16,1,11,0.3900000000000002,2,3,79,54,55,110,2.729999999999994,1.8200000000000014,0.45000000000000023,0.4300000000000002,8,4,1,2,10,4,1,2,2,0,13,7,H,0.27300000000000013,0.4550000000000003,0.45000000000000023,0.21500000000000008
8,9,17,1,4,0.37000000000000016,4,4,6,70,36,106,3.619999999999975,0.8200000000000005,0.38000000000000017,0.10999999999999999,9,2,2,1,10,3,2,1,2,0,17,7,H,0.3620000000000002,0.27333333333333343,0.19000000000000003,0.10999999999999999
8,9,18,1,13,0.5200000000000002,2,4,95,111,14,48,11.859999999999802,0.03,0.01,0.01,17,1,1,1,26,1,1,1,6,0,16,7,H,0.4561538461538463,0.03,0.01,0.01
8,10,19,1,14,0.3100000000000001,2,4,6,39,67,47,2.37,0.7400000000000004,0.3900000000000002,0.3200000000000001,5,2,1,2,7,2,1,3,5,0,20,7,H,0.33857142857142875,0.37000000000000016,0.3900000000000002,0.10666666666666669
8,10,20,1,7,0.4400000000000002,3,5,23,29,81,82,3.2499999999999845,0.5100000000000002,0.17,0.34000000000000014,7,1,1,2,13,1,1,2,3,0,17,7,H,0.2500000000000001,0.5100000000000002,0.17,0.17
8,11,21,1,4,0.24000000000000007,2,3,76,74,60,57,2.2100000000000017,0.8300000000000005,1.7400000000000013,0.18000000000000002,3,1,4,1,4,1,4,1,2,0,14,7,H,0.5525000000000003,0.8300000000000005,0.4350000000000002,0.18000000000000002
8,11,22,1,10,1.460000000000001,9,13,72,85,66,1,4.04999999999999,0.5000000000000002,0.38000000000000017,0.4300000000000002,14,1,1,1,21,1,1,1,6,0,17,7,H,0.19285714285714292,0.5000000000000002,0.38000000000000017,0.4300000000000002
8,12,23,1,11,0.5300000000000002,3,5,57,11,109,110,3.309999999999985,0.9700000000000006,0.19000000000000003,0.47000000000000025,8,2,1,2,13,3,1,2,2,0,14,7,H,0.25461538461538474,0.3233333333333335,0.19000000000000003,0.23500000000000004
8,12,24,1,7,0.47000000000000025,2,3,82,78,76,106,2.7099999999999964,1.7400000000000013,0.9800000000000006,0.19000000000000003,6,3,4,2,8,4,5,2,3,0.5,11,7,H,0.33875000000000016,0.4350000000000002,0.19600000000000006,0.095
8,13,25,1,14,0.34000000000000014,2,3,1,37,114,6,1.530000000000001,1.7700000000000014,0.47000000000000025,0.37000000000000016,3,3,2,2,4,3,2,2,5,0,19,7,H,0.38250000000000023,0.5900000000000003,0.23500000000000004,0.18500000000000003
8,13,26,1,3,0.4300000000000002,4,5,35,55,81,74,2.350000000000002,0.18000000000000002,1.380000000000001,0.5400000000000003,10,1,3,3,13,1,3,4,5,0,15,7,H,0.18076923076923082,0.18000000000000002,0.46000000000000024,0.13500000000000004
8,14,27,1,12,0.6700000000000004,10,11,94,23,112,22,2.580000000000002,3.5999999999999672,0.18000000000000002,0.11999999999999998,13,6,2,1,14,10,2,1,3,0,17,7,H,0.18428571428571436,0.36000000000000015,0.09,0.11999999999999998
8,14,28,1,3,0.6600000000000004,2,3,3,82,74,31,4.259999999999968,0.19000000000000003,0.15,0.11999999999999998,10,1,1,1,13,1,1,1,5,0,17,7,H,0.32769230769230784,0.19000000000000003,0.15,0.11999999999999998
8,15,29,1,14,0.12999999999999998,2,2,13,21,117,38,19.51000000000023,0.01,0.6600000000000004,0.01,19,1,2,1,35,1,2,1,5,0,19,7,H,0.5574285714285714,0.01,0.3300000000000002,0.01
8,15,30,1,15,0.12999999999999998,2,2,3,64,96,29,30.300000000001916,0.01,1.330000000000001,0.01,20,1,2,1,56,1,2,1,4,0,18,7,H,0.5410714285714282,0.01,0.6650000000000005,0.01
8,16,31,1,15,0.3300000000000001,2,3,114,62,18,15,2.719999999999993,0.3900000000000002,0.6800000000000004,0.4400000000000002,7,1,1,1,9,1,1,1,4,0,18,7,H,0.30222222222222234,0.3900000000000002,0.6800000000000004,0.4400000000000002
8,16,32,1,14,0.2700000000000001,2,4,6,93,5,94,3.689999999999971,1.460000000000001,0.9900000000000007,0.2900000000000001,4,2,1,3,8,2,2,3,5,0,18,7,H,0.4612500000000001,0.7300000000000004,0.49500000000000033,0.09666666666666668
8,17,33,1,3,0.38000000000000017,3,4,27,92,71,95,2.0700000000000016,0.6900000000000004,1.0600000000000007,0.18000000000000002,6,2,2,1,9,2,3,1,5,0,15,7,H,0.2300000000000001,0.34500000000000014,0.3533333333333335,0.18000000000000002
8,17,34,1,6,0.24000000000000007,2,4,51,77,49,83,1.600000000000001,1.6100000000000012,0.04,0.4100000000000002,4,5,1,1,8,5,1,2,4,0,14,7,H,0.2000000000000001,0.3220000000000002,0.04,0.20500000000000007
8,18,35,1,13,0.3100000000000001,3,3,13,15,114,111,6.299999999999917,0.15,0.2700000000000001,0.3300000000000001,10,2,2,2,17,3,2,2,6,0,16,7,H,0.37058823529411783,0.05,0.13499999999999998,0.165
8,18,36,1,14,1.7600000000000013,10,16,46,65,94,45,3.3200000000000025,2.9299999999999815,0.11999999999999998,0.10999999999999999,12,6,1,1,19,6,1,1,5,0,17,7,H,0.17473684210526322,0.4883333333333336,0.11999999999999998,0.10999999999999999
8,19,37,1,10,0.6400000000000003,10,12,4,36,5,28,2.0600000000000014,2.239999999999996,0.09999999999999999,0.21000000000000005,12,5,1,1,15,5,1,1,6,0,22,7,H,0.1373333333333334,0.44800000000000023,0.09999999999999999,0.21000000000000005
8,19,38,1,12,0.4400000000000002,2,3,57,95,19,91,5.289999999999941,2.0799999999999996,0.02,1.380000000000001,6,4,1,4,9,4,1,5,3,0,16,7,H,0.5877777777777782,0.5200000000000004,0.02,0.27600000000000013
8,20,39,1,4,0.3100000000000001,2,5,101,52,57,107,2.939999999999988,0.3200000000000001,0.2700000000000001,0.3300000000000001,7,1,1,2,11,1,1,2,2,0,12,7,H,0.2672727272727274,0.3200000000000001,0.2700000000000001,0.16500000000000004
8,20,40,1,11,0.24000000000000007,2,3,85,23,18,110,2.8899999999999877,0.8600000000000005,0.20000000000000004,0.13999999999999999,6,3,1,1,8,3,1,1,2,0,17,7,H,0.3612500000000002,0.2866666666666668,0.20000000000000004,0.13999999999999999
8,21,41,1,6,0.6300000000000003,4,7,55,20,21,24,2.070000000000001,0.7500000000000004,2.109999999999999,0.060000000000000005,6,2,3,1,11,3,4,1,4,0.5,22,7,H,0.18818181818181826,0.25000000000000006,0.5275000000000003,0.060000000000000005
8,21,42,1,3,0.6900000000000004,4,8,119,118,66,27,2.1500000000000012,1.350000000000001,0.17,0.12999999999999998,6,2,2,1,10,3,2,1,5,0,13,7,H,0.21500000000000008,0.4500000000000003,0.08499999999999999,0.12999999999999998
9,1,1,0,1,0.25000000000000006,2,3,35,59,51,27,3.5199999999999743,3.509999999999969,1.450000000000001,7.8299999999998775,5,6,4,8,14,14,6,19,5,0,18,7,H,0.25142857142857156,0.2507142857142858,0.24166666666666675,0.412105263157895
9,1,2,0,9,0.22000000000000006,2,3,62,63,13,21,2.439999999999997,2.9199999999999817,2.0899999999999994,2.06,4,4,3,4,10,15,3,6,4,0,20,7,H,0.24400000000000008,0.1946666666666667,0.6966666666666671,0.3433333333333335
9,2,3,0,5,0.23000000000000007,2,3,33,4,1,3,5.749999999999927,0.20000000000000004,0.19000000000000003,5.34999999999993,8,1,1,10,18,1,1,15,6,0.5,23,7,H,0.3194444444444446,0.20000000000000004,0.19000000000000003,0.35666666666666685
9,2,4,0,10,0.3100000000000001,2,6,18,17,73,15,5.139999999999942,8.139999999999871,0.9100000000000006,0.02,10,12,2,1,20,24,2,1,6,0.5,21,7,H,0.2570000000000001,0.33916666666666684,0.45500000000000024,0.02
9,3,5,0,6,0.18000000000000002,2,4,52,51,6,79,1.3900000000000008,1.1000000000000008,5.759999999999922,0.6200000000000003,4,2,7,1,8,3,11,1,4,0,17,7,H,0.17375000000000007,0.3666666666666668,0.5236363636363639,0.6200000000000003
9,3,6,0,10,0.3000000000000001,2,4,26,20,21,18,6.369999999999915,0.24000000000000007,0.18000000000000002,3.8299999999999623,9,1,1,6,26,1,1,12,6,0.5,23,7,H,0.2450000000000001,0.24000000000000007,0.18000000000000002,0.3191666666666668
9,4,7,0,10,0.2700000000000001,2,3,54,13,18,15,3.9099999999999664,2.7799999999999847,1.5600000000000012,0.20000000000000004,8,5,3,2,11,5,5,2,6,0.5,22,7,H,0.35545454545454563,0.5560000000000003,0.31200000000000017,0.09999999999999999
9,4,8,0,3,0.2800000000000001,2,3,47,1,77,41,2.2100000000000017,2.1199999999999988,0.7200000000000004,1.1700000000000008,4,2,1,3,12,3,2,4,5,0,19,7,H,0.18416666666666673,0.7066666666666671,0.36000000000000015,0.2925000000000001
9,5,9,0,9,0.26000000000000006,2,3,71,72,70,77,1.9500000000000013,0.5900000000000003,0.5700000000000003,4.579999999999947,5,2,2,8,7,3,2,14,4,0.5,15,7,H,0.2785714285714287,0.19666666666666674,0.2850000000000001,0.3271428571428573
9,5,10,0,5,0.47000000000000025,2,5,50,57,11,6,1.520000000000001,1.480000000000001,1.9600000000000015,0.25000000000000006,3,4,6,1,6,4,6,1,6,0,20,7,H,0.25333333333333347,0.37000000000000016,0.3266666666666668,0.25000000000000006
9,6,11,0,2,0.20000000000000004,2,3,80,74,5,84,1.2900000000000007,0.9900000000000007,1.7700000000000014,1.310000000000001,4,2,3,4,5,3,6,4,3,0.5,15,7,H,0.2580000000000001,0.3300000000000001,0.29500000000000015,0.3275000000000001
9,6,12,0,7,0.23000000000000007,2,3,52,51,20,16,5.789999999999926,4.109999999999957,0.25000000000000006,1.0600000000000007,9,5,1,3,16,11,1,3,3,0,20,7,H,0.36187500000000017,0.3736363636363638,0.25000000000000006,0.3533333333333335
9,7,13,1,7,0.16,2,3,77,76,4,75,2.7199999999999895,0.9900000000000007,1.260000000000001,0.8700000000000006,4,2,3,4,8,4,4,7,3,0.5,15,7,H,0.34000000000000014,0.24750000000000008,0.3150000000000001,0.1242857142857143
9,7,14,1,4,0.38000000000000017,3,4,100,38,105,37,6.459999999999915,0.8700000000000006,0.12999999999999998,0.7300000000000004,10,2,1,1,15,3,1,1,2,0,14,7,H,0.4306666666666669,0.29000000000000015,0.12999999999999998,0.7300000000000004
9,8,15,1,15,0.16,2,2,1,2,108,37,18.620000000000086,0.05,0.01,0.22000000000000006,15,1,1,2,41,1,1,2,4,0,19,7,H,0.4541463414634146,0.05,0.01,0.11000000000000001
9,8,16,1,13,2.6099999999999883,3,8,20,14,59,19,3.7899999999999894,3.6799999999999655,2.719999999999986,1.290000000000001,5,6,9,3,12,11,16,3,6,0.5,22,7,H,0.31583333333333347,0.3345454545454547,0.17000000000000007,0.4300000000000002
9,9,17,1,3,0.3000000000000001,2,5,31,35,36,53,1.1600000000000006,1.490000000000001,0.8900000000000006,1.0700000000000007,4,3,3,2,7,5,3,6,5,0.5,19,7,H,0.16571428571428579,0.2980000000000001,0.2966666666666668,0.1783333333333334
9,9,18,1,7,0.23000000000000007,3,4,45,47,76,42,3.599999999999972,0.7300000000000004,0.6300000000000003,1.2100000000000009,8,2,3,3,13,3,5,3,3,0.5,18,7,H,0.27692307692307705,0.2433333333333334,0.12600000000000003,0.40333333333333354
9,10,19,1,14,0.25000000000000006,2,3,39,40,44,88,1.7900000000000011,4.3099999999999525,3.9099999999999606,4.489999999999949,4,10,7,5,9,12,8,6,5,0.5,18,7,H,0.19888888888888895,0.3591666666666668,0.4887500000000003,0.74833333333333385
9,10,20,1,3,1.7900000000000014,8,8,27,74,78,52,21.310000000000255,0.5200000000000002,0.05,0.01,20,2,1,1,70,2,1,1,5,0,15,7,H,0.30442857142857155,0.2600000000000001,0.05,0.01
9,11,21,1,14,0.16,2,4,44,50,55,43,1.2200000000000006,0.2900000000000001,0.8900000000000006,0.7600000000000005,4,1,4,2,6,1,4,3,5,0,18,7,H,0.20333333333333342,0.2900000000000001,0.22250000000000006,0.2533333333333334
9,11,22,1,12,0.23000000000000007,2,3,93,86,85,33,1.4300000000000008,2.899999999999982,1.340000000000001,2.629999999999988,5,6,2,4,7,9,6,5,3,0.5,14,7,H,0.20428571428571435,0.3222222222222224,0.22333333333333338,0.5260000000000002
9,12,23,1,13,0.25000000000000006,2,3,16,40,14,15,1.2700000000000007,2.5599999999999894,0.45000000000000023,1.6000000000000012,4,2,2,2,5,7,2,4,6,0.5,23,7,H,0.2540000000000001,0.3657142857142859,0.2250000000000001,0.4000000000000002
9,12,24,1,11,0.3900000000000002,2,5,117,111,73,79,1.4500000000000008,1.8500000000000014,0.7800000000000005,0.6900000000000004,4,3,2,1,8,8,3,1,2,0,10,7,H,0.18125000000000008,0.23125000000000007,0.2600000000000001,0.6900000000000004
9,13,25,1,13,0.23000000000000007,2,4,66,102,43,94,8.129999999999876,1.5500000000000012,0.3200000000000001,0.36000000000000015,8,3,1,2,24,4,1,2,6,0,14,7,H,0.33875000000000016,0.3875000000000002,0.3200000000000001,0.18000000000000005
9,13,26,1,7,0.6000000000000003,2,5,6,82,5,3,3.089999999999991,1.430000000000001,0.7200000000000004,0.5700000000000003,5,3,2,1,8,3,3,1,3,0.5,21,7,H,0.3862500000000002,0.4766666666666669,0.2400000000000001,0.5700000000000003
9,14,27,1,15,0.2900000000000001,2,4,68,88,23,24,4.529999999999954,1.8500000000000014,2.07,1.310000000000001,7,3,4,2,14,6,5,3,4,0,19,7,H,0.32357142857142873,0.30833333333333346,0.41400000000000026,0.43666666666666687
9,14,28,1,7,0.20000000000000004,3,4,60,78,2,80,1.2100000000000006,2.9199999999999817,0.4400000000000002,0.25000000000000006,5,2,2,2,6,11,2,2,3,0,16,7,H,0.20166666666666674,0.26545454545454555,0.22000000000000006,0.12500000000000003
9,15,29,1,3,0.16,2,3,25,4,85,11,1.720000000000001,1.400000000000001,0.8600000000000005,0.6900000000000004,5,2,1,1,7,5,1,1,5,0,20,7,H,0.24571428571428583,0.28000000000000014,0.8600000000000005,0.6900000000000004
9,15,30,1,14,0.22000000000000006,2,3,47,45,97,17,1.1400000000000006,1.7200000000000013,1.8200000000000014,1.420000000000001,5,3,2,4,7,3,3,5,5,0,18,7,H,0.16285714285714292,0.5733333333333337,0.606666666666667,0.2840000000000001
9,16,31,1,10,0.26000000000000006,2,3,4,3,5,119,1.2400000000000007,10.289999999999825,0.05,0.17,5,11,1,2,7,22,1,3,6,0.5,20,7,H,0.17714285714285719,0.4677272727272724,0.05,0.05666666666666666
9,16,32,1,4,0.35000000000000014,2,3,18,15,104,45,4.159999999999963,1.6500000000000012,0.9100000000000006,2.3599999999999937,6,2,2,6,11,4,2,7,2,0,19,7,H,0.37818181818181834,0.4125000000000002,0.4550000000000002,0.3371428571428573
9,17,33,1,12,0.47000000000000025,2,3,87,56,101,91,2.370000000000002,2.1299999999999986,1.0700000000000007,0.5800000000000003,4,4,3,1,7,8,7,1,3,0,12,7,H,0.33857142857142875,0.2662500000000001,0.15285714285714289,0.5800000000000003
9,17,34,1,11,0.8200000000000005,9,10,111,120,42,22,1.9200000000000013,1.8600000000000014,1.280000000000001,1.7200000000000013,10,2,3,2,11,5,4,2,2,0,15,7,H,0.17454545454545461,0.37200000000000016,0.3200000000000001,0.8600000000000005
9,18,35,1,6,0.6600000000000004,6,8,5,53,49,12,2.570000000000002,0.7400000000000004,0.3900000000000002,0.8500000000000005,9,3,2,2,13,5,2,2,4,0,20,7,H,0.19769230769230778,0.14800000000000002,0.19500000000000003,0.4250000000000002
9,18,36,1,3,0.17,2,3,28,18,108,23,1.4500000000000008,1.2300000000000009,1.9800000000000015,0.6700000000000004,4,2,3,2,7,3,6,2,5,0,19,7,H,0.2071428571428572,0.4100000000000002,0.3300000000000002,0.33500000000000013
9,19,37,1,3,0.8500000000000005,13,13,116,74,112,62,8.189999999999888,3.7799999999999634,0.7900000000000005,0.4100000000000002,20,7,3,1,27,10,4,1,5,0,11,7,H,0.3033333333333325,0.37800000000000017,0.19750000000000004,0.4100000000000002
9,19,38,1,4,0.3000000000000001,2,5,104,87,105,99,1.2800000000000007,1.270000000000001,0.8100000000000005,0.4100000000000002,4,2,3,1,8,4,4,1,2,0.5,9,7,H,0.1600000000000001,0.3175000000000001,0.20250000000000007,0.4100000000000002
9,20,39,1,12,0.21000000000000005,3,3,103,15,61,104,17.449999999999896,0.01,0.01,0.08,19,1,1,1,48,1,1,1,3,0,14,7,H,0.36354166666666676,0.01,0.01,0.08
9,20,40,1,14,0.9700000000000006,3,4,12,37,4,39,1.8600000000000012,2.1899999999999973,0.7500000000000004,3.8599999999999617,5,4,4,4,7,7,4,4,5,0,22,7,H,0.2657142857142858,0.312857142857143,0.18750000000000003,0.9649999999999913
9,21,41,1,3,0.22000000000000006,2,3,25,34,30,11,0.8500000000000004,3.9699999999999593,0.09999999999999999,0.11999999999999998,4,6,1,1,5,8,1,1,5,0.5,21,7,H,0.17000000000000004,0.4962500000000003,0.09999999999999999,0.11999999999999998
9,21,42,1,7,4.809999999999942,11,19,73,13,20,79,5.789999999999942,3.2099999999999755,0.3300000000000001,0.34000000000000014,12,3,1,2,20,8,1,2,3,0,18,7,H,0.28950000000000015,0.4012500000000002,0.3300000000000001,0.17000000000000004
10,1,1,0,8,0.38000000000000017,2,3,113,52,109,83,3.209999999999984,1.480000000000001,0.5300000000000002,0.3000000000000001,4,2,3,2,25,15,8,2,2,0,11,7,H,0.12840000000000001,0.09866666666666667,0.06625,0.15000000000000005
10,1,2,0,7,0.6800000000000004,15,18,16,87,45,21,6.879999999999913,0.01,0.4400000000000002,0.12999999999999998,18,1,3,3,68,1,5,4,3,0,20,7,H,0.10117647058823531,0.01,0.088,0.0325
10,2,3,0,10,0.5000000000000002,2,3,14,16,15,33,3.249999999999986,0.17,14.209999999999742,0.01,4,1,18,1,30,1,100,1,6,0.5,23,7,H,0.10833333333333335,0.17,0.14210000000000003,0.01
10,2,4,0,3,0.3200000000000001,2,3,44,37,117,45,2.7899999999999916,0.34000000000000014,1.1200000000000008,0.26000000000000006,7,3,4,3,22,5,7,3,5,0.5,17,7,H,0.12681818181818186,0.06799999999999999,0.16000000000000003,0.08666666666666667
10,3,5,0,7,0.49000000000000027,2,7,94,57,14,96,2.270000000000002,2.289999999999995,0.36000000000000015,0.7400000000000004,4,3,1,3,23,15,1,6,3,0,16,7,H,0.09869565217391306,0.1526666666666667,0.36000000000000015,0.12333333333333336
10,3,6,0,2,0.4100000000000002,2,5,78,77,44,47,2.430000000000001,0.34000000000000014,1.300000000000001,0.4000000000000002,4,1,6,3,19,2,14,5,3,0,16,7,H,0.12789473684210528,0.17,0.09285714285714286,0.08
10,4,7,0,4,0.34000000000000014,2,3,102,99,80,35,2.839999999999991,0.15,2.1699999999999977,0.12999999999999998,4,2,7,1,24,3,18,1,2,0,12,7,H,0.11833333333333336,0.05,0.12055555555555557,0.12999999999999998
10,4,8,0,3,0.7300000000000004,2,7,46,37,38,109,3.189999999999992,0.5800000000000003,0.4000000000000002,0.6000000000000003,4,2,2,2,23,6,4,5,5,0.5,17,7,H,0.13869565217391305,0.09666666666666668,0.09999999999999999,0.12
10,5,9,0,10,0.5900000000000003,2,9,22,32,104,18,2.3200000000000016,0.9900000000000007,1.1000000000000008,0.6300000000000003,4,2,3,3,19,3,11,6,6,0,19,7,H,0.12210526315789476,0.3300000000000001,0.10000000000000002,0.10500000000000002
10,5,10,0,5,0.5100000000000002,2,9,39,12,5,40,2.8999999999999932,0.3000000000000001,0.6800000000000004,2.719999999999986,4,2,4,6,24,2,7,15,6,0,22,7,H,0.12083333333333336,0.15000000000000005,0.09714285714285716,0.18133333333333337
10,6,11,0,2,1.480000000000001,17,22,80,17,14,39,3.4400000000000026,0.7500000000000004,0.36000000000000015,0.09,19,3,2,2,42,5,2,2,3,0,20,7,H,0.08190476190476191,0.15000000000000002,0.18000000000000002,0.045000000000000005
10,6,12,0,7,0.4100000000000002,2,5,87,96,93,30,1.2500000000000007,1.280000000000001,0.35000000000000014,0.4300000000000002,4,2,2,2,8,8,3,4,3,0.5,14,7,H,0.15625000000000006,0.16000000000000003,0.11666666666666667,0.10750000000000001
10,7,13,1,15,1.280000000000001,18,22,69,66,36,6,3.4099999999999993,0.2800000000000001,2.819999999999984,0.17,20,1,6,2,38,1,14,2,4,0,19,7,H,0.08973684210526317,0.2800000000000001,0.20142857142857148,0.08499999999999999
10,7,14,1,4,0.34000000000000014,2,6,104,46,18,88,3.0999999999999854,1.0200000000000007,1.0200000000000007,0.34000000000000014,4,2,2,2,26,4,11,7,2,0,16,7,H,0.11923076923076925,0.2550000000000001,0.09272727272727273,0.04857142857142857
10,8,15,1,11,0.5200000000000002,2,5,117,86,90,116,2.619999999999999,1.290000000000001,0.21000000000000005,0.09999999999999999,4,2,1,2,21,10,1,2,2,0,10,7,H,0.12476190476190478,0.129,0.21000000000000005,0.05
10,8,16,1,7,0.6900000000000004,2,8,80,59,43,52,3.7299999999999796,0.26000000000000006,0.6900000000000004,0.15,5,1,3,1,28,1,4,1,3,0,16,7,H,0.13321428571428573,0.26000000000000006,0.17250000000000001,0.15
10,9,17,1,15,0.4100000000000002,2,5,61,71,39,42,2.1900000000000017,1.2000000000000008,0.4300000000000002,1.5500000000000012,4,2,3,6,17,9,7,6,4,0,18,7,H,0.12882352941176473,0.13333333333333333,0.06142857142857143,0.25833333333333347
10,9,18,1,13,0.5900000000000003,2,3,18,17,36,24,3.409999999999984,4.2199999999999545,0.01,0.01,6,4,1,1,19,22,1,1,6,0.5,23,7,H,0.17947368421052637,0.1918181818181819,0.01,0.01
10,10,19,1,12,0.38000000000000017,2,6,91,114,30,27,2.4799999999999995,1.0700000000000007,0.2700000000000001,0.5200000000000002,5,2,2,2,16,5,2,4,3,0,15,7,H,0.15500000000000005,0.21400000000000008,0.13500000000000004,0.13
10,10,20,1,4,0.7100000000000004,4,5,102,42,43,51,3.0499999999999945,0.9000000000000006,0.23000000000000007,0.09,7,2,2,1,15,11,3,1,2,0,16,7,H,0.2033333333333334,0.08181818181818182,0.07666666666666666,0.09
10,11,21,1,3,1.0800000000000007,2,11,58,36,20,13,3.1899999999999995,0.5500000000000003,0.37000000000000016,0.9800000000000006,4,3,1,4,26,7,2,6,5,0,21,7,H,0.12269230769230771,0.07857142857142857,0.18500000000000005,0.16333333333333339
10,11,22,1,11,0.7300000000000004,2,11,118,111,10,44,2.0400000000000014,0.9000000000000006,0.5900000000000003,0.37000000000000016,5,3,2,2,19,7,4,3,2,0,15,7,H,0.1073684210526316,0.1285714285714286,0.14750000000000005,0.12333333333333335
10,12,23,1,7,0.4000000000000002,2,4,84,79,3,75,2.0900000000000016,0.49000000000000027,0.8600000000000005,0.09,4,2,3,1,14,5,11,1,3,0.5,15,7,H,0.1492857142857143,0.098,0.07818181818181819,0.09
10,12,24,1,15,0.34000000000000014,2,5,61,71,19,22,2.1900000000000017,0.25000000000000006,1.1400000000000008,0.38000000000000017,5,1,2,2,18,1,12,3,4,0,20,7,H,0.12166666666666669,0.25000000000000006,0.09500000000000001,0.1266666666666667
10,13,25,1,11,0.9100000000000006,2,8,19,115,111,120,4.069999999999977,0.07,0.21000000000000005,0.09,5,1,2,1,26,1,4,1,2,0.5,12,7,H,0.15653846153846157,0.07,0.052500000000000005,0.09
10,13,26,1,6,0.5500000000000003,2,9,49,7,57,103,2.0200000000000014,1.310000000000001,0.3100000000000001,0.13999999999999999,4,3,2,1,17,8,4,1,4,0,16,7,H,0.11882352941176472,0.16375000000000003,0.0775,0.13999999999999999
10,14,27,1,12,0.9600000000000006,14,17,96,90,59,5,2.1000000000000014,1.2000000000000008,3.179999999999976,0.19000000000000003,16,2,3,1,25,9,22,1,3,0,16,7,H,0.084,0.13333333333333336,0.1445454545454546,0.19000000000000003
10,14,28,1,15,1.2200000000000009,20,25,70,14,109,115,3.0100000000000025,5.019999999999937,0.11999999999999998,0.4300000000000002,20,11,2,3,43,33,2,3,4,0,14,7,H,0.07,0.15212121212121216,0.05999999999999999,0.14333333333333337
10,15,29,1,10,0.7200000000000004,2,9,9,98,61,27,2.740000000000001,0.7600000000000005,0.16,0.9400000000000006,4,2,1,2,27,11,1,8,6,0,17,7,H,0.10148148148148149,0.06909090909090909,0.16,0.11750000000000002
10,15,30,1,6,0.5600000000000003,4,6,56,116,49,22,3.429999999999983,0.45000000000000023,0.36000000000000015,0.17,7,3,2,2,34,5,4,3,4,0,16,7,H,0.10088235294117649,0.09000000000000001,0.09,0.05666666666666666
10,16,31,1,7,0.35000000000000014,3,5,78,50,110,17,2.5299999999999976,0.8900000000000006,0.15,0.6600000000000004,6,2,2,2,19,5,3,3,3,0,15,7,H,0.13315789473684214,0.17800000000000005,0.049999999999999996,0.22000000000000008
10,16,32,1,3,0.5400000000000003,2,9,33,28,102,8,2.0200000000000014,0.9100000000000006,0.24000000000000007,0.15,5,2,2,1,20,3,5,1,5,0,18,7,H,0.101,0.30333333333333345,0.047999999999999994,0.15
10,17,33,1,11,0.9400000000000006,2,10,72,116,23,19,3.9099999999999815,0.18000000000000002,0.4300000000000002,0.7100000000000004,4,2,2,3,33,3,2,6,2,0,18,7,H,0.1184848484848485,0.060000000000000005,0.21500000000000005,0.11833333333333337
10,17,34,1,12,0.5800000000000003,3,8,93,56,105,87,2.66,0.8100000000000005,0.8000000000000005,0.03,6,2,2,1,28,5,7,1,3,0,12,7,H,0.095,0.16200000000000003,0.1142857142857143,0.03
10,18,35,1,12,0.2900000000000001,2,4,90,85,87,17,2.5699999999999954,0.3900000000000002,0.11999999999999998,0.5400000000000003,4,2,1,3,19,2,1,5,3,0.5,15,7,H,0.13526315789473686,0.19500000000000003,0.11999999999999998,0.10800000000000001
10,18,36,1,7,0.47000000000000025,2,5,103,79,73,108,2.8499999999999934,0.26000000000000006,0.3200000000000001,0.19000000000000003,4,2,2,2,24,3,4,2,3,0,10,7,H,0.11875000000000002,0.08666666666666667,0.07999999999999999,0.095
10,19,37,1,14,0.5200000000000002,4,13,6,63,40,11,1.8800000000000012,1.380000000000001,0.21000000000000005,0.23000000000000007,7,2,2,2,18,7,2,2,5,0,21,7,H,0.10444444444444448,0.1971428571428572,0.10499999999999998,0.11499999999999999
10,19,38,1,13,0.5200000000000002,3,4,15,14,101,51,2.1300000000000017,6.29999999999991,0.01,0.01,7,9,1,1,10,36,1,1,6,0,18,7,H,0.21300000000000008,0.17500000000000004,0.01,0.01
10,20,39,1,11,3.4399999999999706,13,29,109,110,84,4,4.019999999999971,1.390000000000001,1.320000000000001,0.23000000000000007,15,3,2,2,33,11,5,4,2,0,13,7,H,0.12181818181818185,0.1263636363636364,0.26400000000000007,0.057499999999999996
10,20,40,1,12,0.37000000000000016,7,8,91,104,14,57,2.44,5.549999999999926,0.47000000000000025,0.01,9,6,4,1,25,46,7,1,3,0,15,7,H,0.09760000000000002,0.12065217391304349,0.06714285714285716,0.01
10,21,41,1,15,0.6500000000000004,2,10,67,63,79,81,2.869999999999997,1.2300000000000009,0.4200000000000002,0.25000000000000006,4,2,3,2,28,12,5,3,4,0,14,7,H,0.10250000000000001,0.10250000000000002,0.084,0.08333333333333334
10,21,42,1,12,0.46000000000000024,2,5,94,95,53,52,3.00999999999999,0.19000000000000003,1.2500000000000009,0.20000000000000004,4,1,4,1,26,1,9,1,3,0,14,7,H,0.11576923076923078,0.19000000000000003,0.13888888888888892,0.20000000000000004
11,1,1,0,8,0.34000000000000014,2,4,113,119,20,13,2.2400000000000015,0.8600000000000005,0.25000000000000006,1.1500000000000008,5,2,1,5,20,8,1,10,2,0,16,7,H,0.11200000000000002,0.10750000000000001,0.25000000000000006,0.11500000000000002
11,1,2,0,5,0.38000000000000017,2,4,11,50,31,33,2.1700000000000017,1.0300000000000007,1.2100000000000009,0.09999999999999999,5,4,4,1,16,7,9,1,6,0,20,7,H,0.13562500000000002,0.14714285714285716,0.13444444444444448,0.09999999999999999
11,2,3,0,7,0.4400000000000002,2,4,88,49,53,10,2.2300000000000018,0.4000000000000002,0.3200000000000001,0.5100000000000002,4,1,2,3,10,1,2,5,3,0,17,7,H,0.2230000000000001,0.4000000000000002,0.16000000000000006,0.102
11,2,4,0,1,0.34000000000000014,2,5,26,31,118,116,1.3600000000000008,0.7600000000000005,0.6400000000000003,1.2300000000000009,4,2,2,5,10,7,3,12,5,0,14,7,H,0.13600000000000004,0.10857142857142857,0.21333333333333337,0.10250000000000002
11,3,5,0,10,0.47000000000000025,2,7,21,115,95,15,1.530000000000001,2.07,0.3000000000000001,1.7400000000000013,4,2,2,5,11,12,7,7,6,0,17,7,H,0.13909090909090913,0.17250000000000004,0.04285714285714286,0.24857142857142867
11,3,6,0,3,0.5000000000000002,3,6,49,37,74,12,2.639999999999999,0.10999999999999999,0.8700000000000006,0.49000000000000027,5,1,2,2,29,1,6,2,5,0,18,7,H,0.0910344827586207,0.10999999999999999,0.14500000000000002,0.24500000000000008
11,4,7,0,4,0.46000000000000024,2,6,97,83,15,107,1.4400000000000008,1.5200000000000011,0.36000000000000015,0.5500000000000003,4,2,2,2,10,7,5,4,2,0,13,7,H,0.14400000000000004,0.2171428571428572,0.07200000000000001,0.13750000000000004
11,4,8,0,8,0.5200000000000002,2,6,115,113,42,91,1.8300000000000012,1.270000000000001,1.1300000000000008,0.8900000000000006,6,4,4,4,14,7,7,6,2,0,12,7,H,0.13071428571428573,0.18142857142857147,0.16142857142857148,0.14833333333333334
11,5,9,0,1,0.38000000000000017,9,9,52,99,102,87,6.869999999999906,0.01,0.45000000000000023,0.01,17,1,3,1,54,1,3,1,5,0,11,7,H,0.12722222222222226,0.01,0.15000000000000005,0.01
11,5,10,0,5,0.36000000000000015,2,5,1,83,119,68,19.860000000000248,0.02,0.01,0.01,20,2,1,1,123,2,1,1,6,0,15,7,H,0.16146341463414637,0.01,0.01,0.01
11,6,11,0,6,0.6800000000000004,12,15,49,50,31,19,1.7700000000000011,0.9300000000000006,3.659999999999966,0.03,14,3,4,2,22,10,25,2,4,0,19,7,H,0.08045454545454547,0.09300000000000001,0.14640000000000003,0.015
11,6,12,0,3,0.4000000000000002,2,5,43,47,112,69,2.330000000000002,0.6400000000000003,2.679999999999987,0.7800000000000005,6,3,5,5,21,4,15,6,5,0,16,7,H,0.11095238095238097,0.16000000000000006,0.17866666666666672,0.13
11,7,13,1,11,0.4200000000000002,2,6,119,113,35,110,1.7900000000000011,0.26000000000000006,1.7400000000000013,0.07,4,1,2,2,16,1,16,2,2,0.5,11,7,H,0.11187500000000003,0.26000000000000006,0.10875,0.035
11,7,14,1,14,0.6800000000000004,2,12,46,104,54,6,2.4800000000000018,1.1100000000000008,0.19000000000000003,0.38000000000000017,5,2,1,3,28,10,1,5,5,0,17,7,H,0.08857142857142858,0.11100000000000002,0.19000000000000003,0.07600000000000001
11,8,15,1,7,0.5400000000000003,4,6,81,78,8,52,1.650000000000001,0.6300000000000003,1.270000000000001,0.24000000000000007,6,2,3,2,12,3,11,3,3,0,16,7,H,0.13750000000000004,0.21000000000000008,0.11545454545454546,0.08
11,8,16,1,4,0.9600000000000006,2,10,108,103,105,38,2.6300000000000017,0.9600000000000006,0.36000000000000015,0.5000000000000002,4,2,2,3,20,5,3,4,2,0.5,11,7,H,0.13150000000000003,0.19200000000000003,0.12,0.12500000000000003
11,9,17,1,6,0.6100000000000003,2,7,54,114,117,111,2.8099999999999974,1.1400000000000008,2.239999999999996,0.7900000000000005,5,3,5,4,17,7,8,5,4,0.5,10,7,H,0.16529411764705887,0.1628571428571429,0.28000000000000014,0.15800000000000003
11,9,18,1,15,0.38000000000000017,3,5,61,68,5,4,1.9500000000000013,0.35000000000000014,0.19000000000000003,0.2900000000000001,5,2,2,2,14,4,3,3,4,0,20,7,H,0.13928571428571432,0.08750000000000001,0.06333333333333332,0.09666666666666668
11,10,19,1,13,0.37000000000000016,2,5,23,118,24,120,2.6499999999999955,1.1400000000000008,0.4000000000000002,4.649999999999945,4,4,3,12,19,12,4,24,6,0,16,7,H,0.13947368421052633,0.095,0.1,0.19375000000000006
11,10,20,1,14,1.2300000000000009,18,21,42,103,5,10,1.7700000000000011,1.280000000000001,0.5800000000000003,0.20000000000000004,20,2,2,3,23,10,5,4,5,0,19,7,H,0.07695652173913045,0.128,0.11600000000000002,0.05
11,11,21,1,3,0.36000000000000015,2,5,29,17,71,16,3.37999999999998,0.5400000000000003,0.34000000000000014,1.500000000000001,9,2,4,8,19,3,5,9,5,0,21,7,H,0.1778947368421053,0.18000000000000005,0.06799999999999999,0.16666666666666674
11,11,22,1,14,0.6800000000000004,14,14,42,5,53,47,2.530000000000002,5.239999999999933,0.05,0.35000000000000014,16,7,2,2,25,42,2,2,5,0,20,7,H,0.10120000000000001,0.12476190476190478,0.025,0.17500000000000004
11,12,23,1,3,0.5000000000000002,4,6,26,109,21,20,2.7599999999999962,0.09999999999999999,0.2800000000000001,0.23000000000000007,6,1,3,1,18,1,4,1,5,0,19,7,H,0.15333333333333338,0.09999999999999999,0.07,0.23000000000000007
11,12,24,1,10,0.8100000000000005,4,8,9,1,43,108,3.789999999999981,1.5600000000000012,0.3100000000000001,0.3100000000000001,7,4,1,1,29,16,1,1,6,0,19,7,H,0.13068965517241382,0.0975,0.3100000000000001,0.3100000000000001
11,13,25,1,7,0.3300000000000001,2,3,103,78,76,79,2.729999999999993,0.21000000000000005,0.24000000000000007,0.34000000000000014,5,2,2,3,12,3,3,9,3,0.5,11,7,H,0.22750000000000006,0.07,0.08,0.03777777777777778
11,13,26,1,6,0.5400000000000003,2,8,57,5,8,115,1.9600000000000013,0.49000000000000027,0.23000000000000007,1.6200000000000012,4,2,1,3,14,4,1,14,4,0,18,7,H,0.14000000000000004,0.12250000000000004,0.23000000000000007,0.11571428571428573
11,14,27,1,12,0.3200000000000001,2,3,86,95,100,107,2.3200000000000016,0.6800000000000004,0.21000000000000005,0.3200000000000001,4,2,1,2,21,3,1,2,3,0,10,7,H,0.11047619047619049,0.22666666666666674,0.21000000000000005,0.16
11,14,28,1,7,0.4200000000000002,2,5,73,75,54,50,2.1300000000000017,0.7300000000000004,0.35000000000000014,0.23000000000000007,4,2,2,2,21,6,3,4,3,0,14,7,H,0.10142857142857144,0.12166666666666667,0.11666666666666667,0.0575
11,15,29,1,3,0.4200000000000002,2,6,29,119,80,35,1.5000000000000009,1.0500000000000007,0.25000000000000006,0.17,4,3,1,2,10,8,1,2,5,0,15,7,H,0.15000000000000002,0.13125000000000003,0.25000000000000006,0.08499999999999999
11,15,30,1,12,0.6500000000000004,7,10,91,43,45,39,2.1800000000000015,0.4100000000000002,0.7600000000000005,0.09999999999999999,9,2,3,2,26,4,6,3,3,0.5,18,7,H,0.08384615384615386,0.10249999999999998,0.12666666666666668,0.03333333333333333
11,16,31,1,4,0.6300000000000003,2,6,106,52,77,83,2.839999999999997,0.48000000000000026,0.09999999999999999,0.08,4,2,1,1,20,7,1,1,2,0,12,7,H,0.14200000000000002,0.06857142857142857,0.09999999999999999,0.08
11,16,32,1,14,0.5200000000000002,3,5,110,40,2,7,2.919999999999993,0.23000000000000007,0.13999999999999999,0.3200000000000001,5,2,1,1,28,7,1,1,5,0,19,7,H,0.1042857142857143,0.032857142857142856,0.13999999999999999,0.3200000000000001
11,17,33,1,13,1.1700000000000008,3,10,17,75,76,99,3.0800000000000023,1.320000000000001,0.22000000000000006,0.11999999999999998,7,3,1,1,22,6,1,1,6,0,14,7,H,0.14000000000000004,0.22000000000000008,0.22000000000000006,0.11999999999999998
11,17,34,1,6,0.46000000000000024,2,5,55,58,11,120,2.1900000000000017,0.4400000000000002,1.1700000000000008,0.34000000000000014,4,2,4,2,16,3,13,3,4,0,16,7,H,0.13687500000000002,0.1466666666666667,0.09,0.11333333333333334
11,18,35,1,15,0.36000000000000015,2,4,2,61,88,10,2.1400000000000015,0.21000000000000005,1.330000000000001,0.04,7,2,3,1,15,4,6,1,4,0,19,7,H,0.1426666666666667,0.0525,0.22166666666666673,0.04
11,18,36,1,6,1.0300000000000007,3,10,51,23,115,22,2.4300000000000015,1.470000000000001,0.24000000000000007,0.5300000000000002,5,2,2,3,24,16,3,4,4,0,18,7,H,0.10125000000000002,0.091875,0.07999999999999999,0.13250000000000006
11,19,37,1,6,0.5900000000000003,2,9,52,88,90,58,2.7799999999999976,0.9500000000000006,0.3000000000000001,0.060000000000000005,4,2,2,1,27,8,2,1,4,0,14,7,H,0.10296296296296298,0.11875000000000002,0.15000000000000002,0.060000000000000005
11,19,38,1,15,0.6600000000000004,7,9,72,68,65,36,2.580000000000002,0.48000000000000026,0.09,0.8400000000000005,9,2,1,4,28,5,1,8,4,0.5,17,7,H,0.09214285714285715,0.096,0.09,0.10500000000000001
11,20,39,1,10,0.6800000000000004,13,15,4,12,3,48,1.690000000000001,0.5400000000000003,2.809999999999984,3.559999999999968,15,2,4,12,19,3,23,28,6,0.5,23,7,H,0.08894736842105265,0.18000000000000005,0.12217391304347827,0.12714285714285717
11,20,40,1,12,4.609999999999946,10,33,28,17,25,13,5.699999999999947,0.20000000000000004,1.8900000000000015,0.18000000000000002,12,2,3,1,40,2,14,1,3,0,22,7,H,0.14250000000000004,0.10000000000000002,0.13500000000000004,0.18000000000000002
11,21,41,1,3,0.6500000000000004,2,9,118,112,34,36,3.4999999999999836,0.18000000000000002,0.8800000000000006,0.01,5,1,4,1,23,1,5,1,5,0,14,7,H,0.1521739130434783,0.18000000000000002,0.17600000000000007,0.01
11,21,42,1,12,0.5700000000000003,3,8,90,59,96,50,2.6200000000000006,0.6900000000000004,0.3000000000000001,0.08,5,3,3,1,20,7,5,1,3,0,14,7,H,0.13100000000000003,0.09857142857142857,0.06,0.08
12,1,1,0,8,0.6200000000000003,2,5,119,51,114,35,3.9499999999999735,2.239999999999996,0.5400000000000003,0.47000000000000025,8,3,3,1,24,11,5,1,2,0,13,7,H,0.1645833333333334,0.2036363636363637,0.10800000000000004,0.47000000000000025
12,1,2,0,4,0.5400000000000003,2,9,101,107,23,97,4.699999999999956,0.5000000000000002,1.1400000000000008,0.5600000000000003,9,2,4,3,34,4,9,4,2,0.5,12,7,H,0.1382352941176471,0.125,0.1266666666666667,0.14
12,2,3,0,3,1.0600000000000007,11,14,39,37,18,22,3.499999999999993,1.400000000000001,3.229999999999975,0.3300000000000001,13,3,9,2,30,11,21,3,5,0,22,7,H,0.11666666666666668,0.1272727272727273,0.15380952380952384,0.11
12,2,4,0,5,0.5400000000000003,2,5,5,1,6,102,3.4999999999999813,4.40999999999995,10.449999999999822,0.02,7,7,17,1,27,22,53,1,6,0.5,20,7,H,0.12962962962962965,0.20045454545454552,0.19716981132075478,0.02
