Subject,Round,Phase,afterbreak,Schema,Schema_RT,Schema_OB,Schema_AS,Cho_1,Cho_2,Cho_3,Cho_4,RT_1,RT_2,RT_3,RT_4,OB_1,OB_2,OB_3,OB_4,AS_1,AS_2,AS_3,AS_4,schema_payoff,AC,performance,breakR,type,dwellmean_1,dwellmean_2,dwellmean_3,dwellmean_4
1,1,1,0,9,1.480000000000001,2,19,61,63,11,37,5.869999999999952,0.22000000000000006,3.93999999999996,0.3100000000000001,15,1,13,2,60,1,39,2,4,0,19,7,HL,0.09783333333333334,0.22000000000000006,0.10102564102564104,0.15500000000000003
1,1,2,0,3,1.1700000000000008,3,10,25,26,55,34,5.259999999999958,0.7200000000000004,0.16,0.6500000000000004,15,6,1,4,48,9,1,8,5,0.5,19,7,HL,0.10958333333333334,0.08,0.16,0.08125
1,2,3,0,4,1.480000000000001,3,21,104,57,105,97,6.069999999999948,0.6800000000000004,0.8100000000000005,0.24000000000000007,11,3,5,3,70,7,11,4,2,0.5,10,7,HL,0.08671428571428572,0.09714285714285714,0.07363636363636364,0.06
1,2,4,0,1,1.8400000000000014,2,23,61,81,74,67,7.659999999999922,0.38000000000000017,0.09,2.809999999999984,17,5,1,13,63,7,1,24,3,0,14,7,HL,0.12158730158730162,0.054285714285714284,0.09,0.11708333333333334
1,3,5,0,6,1.370000000000001,10,15,59,3,58,5,5.509999999999957,2.479999999999991,0.20000000000000004,0.46000000000000024,20,11,2,3,56,26,2,4,6,0,20,7,HL,0.09839285714285716,0.0953846153846154,0.1,0.11500000000000003
1,3,6,0,7,0.6600000000000004,11,13,16,48,20,47,6.099999999999929,0.9200000000000006,0.17,0.17,20,5,2,1,62,11,4,1,6,0,22,7,HL,0.09838709677419356,0.08363636363636363,0.0425,0.17
1,4,7,0,3,1.0400000000000007,2,12,84,83,29,17,6.719999999999924,0.5500000000000003,0.22000000000000006,0.7100000000000004,16,4,2,3,68,7,2,5,5,0,17,7,HL,0.09882352941176471,0.07857142857142857,0.10999999999999999,0.14200000000000002
1,4,8,0,2,1.1800000000000008,4,8,56,52,90,41,5.14999999999996,2.249999999999996,1.1400000000000008,0.7100000000000004,16,7,5,4,40,11,11,7,4,0,16,7,HL,0.12875000000000003,0.2045454545454546,0.10363636363636365,0.10142857142857144
1,5,9,0,8,1.8600000000000014,3,19,109,90,43,37,7.26999999999993,1.1400000000000008,0.2700000000000001,0.18000000000000002,15,5,3,2,68,6,3,3,2,0,15,7,HL,0.10691176470588236,0.19000000000000006,0.09,0.060000000000000005
1,5,10,0,4,1.8200000000000014,20,32,100,73,97,108,5.2499999999999725,1.460000000000001,0.20000000000000004,0.16,20,6,3,2,75,12,4,2,2,0.5,9,7,HL,0.07,0.12166666666666669,0.05,0.08
1,6,11,0,10,0.8900000000000006,3,10,87,92,89,34,5.859999999999939,0.36000000000000015,0.16,2.209999999999997,15,3,2,8,64,6,2,20,3,0.5,14,7,HL,0.0915625,0.06,0.07999999999999999,0.11050000000000001
1,6,12,0,8,1.2000000000000008,13,18,113,111,79,66,7.5299999999999105,0.7800000000000005,0.9600000000000006,1.370000000000001,20,3,7,7,70,5,14,14,2,0,11,7,HL,0.10757142857142858,0.15600000000000006,0.06857142857142857,0.09785714285714285
1,7,13,1,5,1.390000000000001,3,12,43,93,91,47,8.429999999999895,0.26000000000000006,0.26000000000000006,0.08,17,3,3,2,71,4,4,2,5,0,16,7,HL,0.1187323943661972,0.065,0.065,0.04
1,7,14,1,1,0.36000000000000015,6,6,12,7,77,53,9.229999999999855,1.470000000000001,0.09,0.2700000000000001,20,10,1,2,83,13,1,2,3,0,19,7,HL,0.11120481927710844,0.1130769230769231,0.09,0.13500000000000004
1,8,15,1,2,1.1700000000000008,3,12,54,38,44,16,6.689999999999928,0.3200000000000001,0.5900000000000003,0.6000000000000003,16,3,5,2,55,3,9,2,4,0,20,7,HL,0.12163636363636365,0.10666666666666669,0.06555555555555555,0.3000000000000001
1,8,16,1,9,0.37000000000000016,7,8,1,81,36,83,7.769999999999887,0.2900000000000001,0.16,0.12999999999999998,20,4,2,2,63,4,3,2,4,0,17,7,HL,0.12333333333333336,0.0725,0.05333333333333334,0.065
1,9,17,1,8,1.260000000000001,3,11,117,18,24,93,5.759999999999949,1.1000000000000008,0.7300000000000004,0.5400000000000003,15,4,4,3,53,7,9,4,2,0,17,7,HL,0.10867924528301888,0.15714285714285717,0.08111111111111112,0.135
1,9,18,1,1,0.7800000000000005,3,8,59,38,57,84,6.129999999999931,0.8600000000000005,0.12999999999999998,0.15,14,5,1,2,44,7,1,2,3,0,16,7,HL,0.13931818181818184,0.12285714285714287,0.12999999999999998,0.075
1,10,19,1,6,0.8900000000000006,3,8,1,8,3,71,6.649999999999922,0.5800000000000003,7.989999999999874,0.38000000000000017,14,4,18,2,59,5,74,2,6,0.5,40,7,HL,0.11271186440677967,0.11600000000000003,0.10797297297297298,0.19000000000000009
1,10,20,1,2,2.020000000000001,7,25,37,41,96,38,6.49999999999995,1.0400000000000007,0.48000000000000026,0.09,20,4,1,1,62,11,1,1,4,0.5,33,7,HL,0.10483870967741936,0.09454545454545456,0.48000000000000026,0.09
1,11,21,1,10,1.280000000000001,2,18,86,88,18,93,4.279999999999981,1.6900000000000013,1.1000000000000008,1.6600000000000013,9,9,5,8,46,21,11,18,3,0.5,24,7,HL,0.09304347826086957,0.08047619047619048,0.10000000000000002,0.09222222222222223
1,11,22,1,9,1.7700000000000014,3,18,64,72,81,11,5.7699999999999605,1.440000000000001,0.3100000000000001,0.7000000000000004,16,5,2,5,58,15,3,6,4,0,17,7,HL,0.09948275862068967,0.09600000000000002,0.10333333333333336,0.11666666666666668
1,12,23,1,6,0.49000000000000027,5,6,4,7,9,26,5.39999999999994,2.5099999999999905,2.6099999999999883,0.07,18,11,15,1,41,29,27,1,6,0.5,41,7,HL,0.13170731707317077,0.08655172413793104,0.09666666666666668,0.07
1,12,24,1,9,1.260000000000001,4,15,67,46,21,65,7.249999999999917,0.8700000000000006,2.3199999999999945,1.1600000000000008,16,5,9,8,78,7,12,12,4,0,19,7,HL,0.09294871794871795,0.12428571428571432,0.19333333333333338,0.09666666666666666
1,13,25,1,1,0.5000000000000002,2,4,84,74,78,58,5.599999999999936,0.3300000000000001,0.9500000000000006,0.21000000000000005,18,2,6,2,53,3,10,2,3,0.5,22,7,HL,0.10566037735849058,0.10999999999999999,0.095,0.10500000000000002
1,13,26,1,8,2.399999999999993,7,30,3,40,68,71,6.829999999999943,0.4200000000000002,0.6800000000000004,0.7500000000000004,17,3,5,4,69,5,8,9,2,0,19,7,HL,0.09898550724637682,0.08399999999999999,0.08500000000000002,0.08333333333333333
1,14,27,1,3,1.1300000000000008,8,15,27,10,67,4,5.209999999999958,2.949999999999981,1.0400000000000007,1.1800000000000008,16,11,5,5,51,24,9,11,5,0,21,7,HL,0.10215686274509805,0.12291666666666669,0.11555555555555556,0.1072727272727273
1,14,28,1,2,1.1500000000000008,2,15,56,45,82,116,6.239999999999936,2.8899999999999824,0.3100000000000001,0.47000000000000025,14,11,1,2,70,28,1,3,4,0,14,7,HL,0.08914285714285715,0.10321428571428572,0.3100000000000001,0.1566666666666667
1,15,29,1,10,1.260000000000001,2,12,89,96,66,6,5.69999999999995,0.9200000000000006,1.1400000000000008,0.3200000000000001,15,6,8,2,53,13,11,2,3,0,16,7,HL,0.10754716981132077,0.07076923076923076,0.10363636363636364,0.16000000000000003
1,15,30,1,2,0.6800000000000004,8,10,111,114,74,15,7.309999999999904,0.7900000000000005,2.2299999999999964,0.02,20,4,9,1,66,7,22,1,4,0,13,7,HL,0.11075757575757578,0.11285714285714286,0.10136363636363638,0.02
1,16,31,1,8,1.9700000000000015,3,15,114,82,44,110,6.629999999999947,0.9500000000000006,0.18000000000000002,0.45000000000000023,16,4,1,3,57,8,1,4,2,0,12,7,HL,0.11631578947368423,0.11875000000000001,0.18000000000000002,0.1125
1,16,32,1,4,0.6600000000000004,6,7,56,107,98,4,5.499999999999941,0.8600000000000005,0.2800000000000001,0.9500000000000006,20,4,2,2,54,5,3,7,2,0,14,7,HL,0.10185185185185187,0.17200000000000004,0.09333333333333335,0.13571428571428576
1,17,33,1,4,0.45000000000000023,5,6,14,72,18,105,11.269999999999815,0.060000000000000005,0.11999999999999998,0.01,20,1,1,1,89,1,1,1,2,0,18,7,HL,0.1266292134831461,0.060000000000000005,0.11999999999999998,0.01
1,17,34,1,10,0.7900000000000005,2,7,2,54,110,119,9.45999999999986,0.01,0.05,0.02,16,1,2,1,83,1,2,1,3,0,14,7,HL,0.11397590361445785,0.01,0.025,0.02
1,18,35,1,8,3.039999999999979,11,34,47,1,67,2,6.909999999999941,1.7100000000000013,0.48000000000000026,0.5800000000000003,20,7,2,3,71,14,5,6,2,0,21,7,HL,0.09732394366197185,0.12214285714285716,0.09600000000000002,0.09666666666666668
1,18,36,1,4,1.6500000000000012,2,13,57,77,36,108,6.6299999999999395,0.26000000000000006,0.7600000000000005,0.2900000000000001,13,2,3,3,56,2,5,5,2,0,14,7,HL,0.11839285714285716,0.13,0.15200000000000002,0.057999999999999996
1,19,37,1,9,1.5900000000000012,2,23,70,6,108,61,4.919999999999974,1.1500000000000008,1.410000000000001,0.3900000000000002,10,4,6,3,51,8,15,7,4,0,16,7,HL,0.09647058823529413,0.14375000000000002,0.09400000000000001,0.055714285714285716
1,19,38,1,2,1.5100000000000011,15,25,16,60,77,57,7.519999999999918,0.18000000000000002,0.3000000000000001,0.3300000000000001,20,1,2,3,73,1,2,5,4,0,17,7,HL,0.103013698630137,0.18000000000000002,0.15000000000000002,0.066
1,20,39,1,7,1.350000000000001,9,12,14,19,28,105,5.919999999999948,5.169999999999934,0.02,0.01,18,13,1,1,50,36,1,1,6,0,19,7,HL,0.11840000000000002,0.14361111111111113,0.02,0.01
1,20,40,1,2,2.3699999999999934,3,26,51,6,59,116,6.97999999999994,0.5400000000000003,0.21000000000000005,0.48000000000000026,15,3,1,2,71,6,1,3,4,0,16,7,HL,0.0983098591549296,0.09,0.21000000000000005,0.16000000000000003
2,1,1,0,6,1.470000000000001,2,21,9,60,6,1,6.459999999999939,0.34000000000000014,0.21000000000000005,3.2199999999999753,10,2,2,12,73,3,2,38,6,0.5,22,7,HL,0.08849315068493152,0.11333333333333333,0.10499999999999998,0.08473684210526317
2,1,2,0,7,0.8800000000000006,2,13,17,16,89,14,4.84999999999996,1.8300000000000014,0.3300000000000001,0.15,14,8,2,3,77,24,5,4,6,0.5,21,7,HL,0.062987012987013,0.07625000000000001,0.066,0.0375
2,2,3,0,1,1.1100000000000008,2,19,74,82,84,83,4.949999999999963,1.260000000000001,0.09999999999999999,0.35000000000000014,12,7,2,4,67,16,2,4,3,1,36,7,HL,0.07388059701492537,0.07875,0.05,0.0875
2,2,4,0,10,1.500000000000001,2,24,93,90,17,89,4.509999999999981,2.489999999999991,0.8500000000000005,0.4000000000000002,12,10,4,7,59,35,10,7,3,0.5,15,7,HL,0.0764406779661017,0.07114285714285715,0.085,0.05714285714285714
2,3,5,0,8,0.19000000000000003,2,4,13,85,49,37,11.099999999999811,0.02,0.01,0.08,16,1,1,2,112,1,1,2,2,0,18,7,HL,0.09910714285714287,0.02,0.01,0.04
2,3,6,0,3,0.9500000000000006,3,13,26,30,8,31,5.43999999999995,1.290000000000001,0.21000000000000005,0.2800000000000001,11,7,1,3,47,18,2,7,5,0.5,21,7,HL,0.11574468085106385,0.07166666666666667,0.105,0.04
2,4,7,0,8,0.9800000000000006,2,14,119,117,16,110,6.35999999999993,0.5900000000000003,0.20000000000000004,0.07,14,5,2,2,74,8,2,2,2,0.5,12,7,HL,0.08594594594594596,0.07375000000000001,0.09999999999999999,0.035
2,4,8,0,4,1.2200000000000009,2,17,97,54,30,2,5.599999999999952,1.9200000000000015,0.2700000000000001,0.08,9,5,2,1,68,18,2,1,2,0,17,7,HL,0.0823529411764706,0.10666666666666669,0.13500000000000004,0.08
2,5,9,0,3,1.450000000000001,2,25,28,34,104,51,5.399999999999961,0.7900000000000005,0.8600000000000005,0.6600000000000004,8,3,2,3,68,11,13,9,5,0,16,7,HL,0.07941176470588236,0.07181818181818181,0.06615384615384616,0.07333333333333333
2,5,10,0,5,0.22000000000000006,2,2,16,22,37,23,4.929999999999944,0.6400000000000003,0.8500000000000005,0.45000000000000023,10,3,4,3,50,5,8,4,5,0.5,23,7,HL,0.09860000000000001,0.12800000000000003,0.10625000000000001,0.1125
2,6,11,0,8,0.5200000000000002,2,6,20,59,118,56,5.659999999999935,0.5000000000000002,0.09,0.21000000000000005,12,3,2,2,74,10,2,5,2,0,16,7,HL,0.0764864864864865,0.05,0.045,0.041999999999999996
2,6,12,0,9,1.320000000000001,16,26,64,69,7,81,5.869999999999949,1.490000000000001,0.5000000000000002,0.7200000000000004,20,6,4,4,78,23,9,6,4,0,17,7,HL,0.07525641025641026,0.06478260869565218,0.05555555555555556,0.12000000000000004
2,7,13,1,10,0.9900000000000007,14,18,91,94,95,47,4.119999999999978,0.24000000000000007,1.300000000000001,1.5100000000000011,19,1,5,5,53,1,6,18,3,0.5,23,7,HL,0.07773584905660377,0.24000000000000007,0.21666666666666673,0.08388888888888889
2,7,14,1,1,1.1000000000000008,2,13,76,97,4,9,4.909999999999964,0.6000000000000003,1.0200000000000007,0.4200000000000002,11,3,2,3,50,7,16,7,3,0,17,7,HL,0.09820000000000001,0.08571428571428573,0.06375,0.06
2,8,15,1,9,0.7800000000000005,2,7,71,72,11,94,3.4999999999999867,2.2299999999999964,0.6900000000000004,0.4100000000000002,5,3,3,4,36,31,5,5,4,0,17,7,HL,0.09722222222222224,0.07193548387096774,0.138,0.082
2,8,16,1,3,2.479999999999991,2,38,35,107,25,49,5.859999999999963,1.0100000000000007,0.6200000000000003,0.16,8,3,2,1,79,8,8,1,5,0,16,7,HL,0.07417721518987343,0.12625000000000003,0.0775,0.16
2,9,17,1,8,0.7600000000000005,2,16,119,18,28,78,3.949999999999976,8.109999999999872,0.01,0.02,5,18,1,2,54,73,1,2,2,0,16,7,HL,0.07314814814814816,0.11109589041095892,0.01,0.01
2,9,18,1,5,0.8700000000000006,4,12,42,43,11,46,4.049999999999977,1.360000000000001,0.7600000000000005,0.13999999999999999,12,4,2,2,48,15,8,3,5,0.5,36,7,HL,0.084375,0.09066666666666667,0.095,0.04666666666666667
2,10,19,1,10,1.310000000000001,2,13,92,49,53,2,4.169999999999984,2.1799999999999975,0.4100000000000002,0.17,5,4,2,3,51,21,5,4,3,0,17,7,HL,0.08176470588235295,0.10380952380952381,0.08199999999999999,0.042499999999999996
2,10,20,1,9,0.6500000000000004,13,15,102,34,103,63,7.749999999999893,0.35000000000000014,0.13999999999999999,0.13999999999999999,20,3,2,3,96,4,4,4,4,0,13,7,HL,0.08072916666666667,0.0875,0.035,0.035
2,11,21,1,2,1.5500000000000012,2,19,56,36,59,116,5.9899999999999505,0.49000000000000027,0.16,0.11999999999999998,9,2,1,2,71,4,1,2,4,0,15,7,HL,0.0843661971830986,0.12250000000000001,0.16,0.06
2,11,22,1,6,1.1200000000000008,13,19,5,87,105,69,5.049999999999961,1.340000000000001,0.15,0.07,18,5,2,1,54,18,3,1,6,0,15,7,HL,0.09351851851851853,0.07444444444444445,0.05,0.07
2,12,23,1,3,1.1900000000000008,3,16,36,28,14,108,3.949999999999986,2.52999999999999,2.1399999999999983,0.03,6,5,7,1,54,31,24,1,5,0,18,7,HL,0.07314814814814814,0.08161290322580646,0.08916666666666669,0.03
2,12,24,1,8,0.5200000000000002,7,10,2,5,66,112,5.849999999999931,0.11999999999999998,0.48000000000000026,0.17,18,1,2,3,70,1,8,6,2,0,18,7,HL,0.08357142857142857,0.11999999999999998,0.06,0.028333333333333335
2,13,25,1,3,1.9300000000000015,2,29,4,32,66,12,6.019999999999959,0.7500000000000004,0.20000000000000004,0.2700000000000001,8,6,2,2,67,8,2,3,5,0,21,7,HL,0.08985074626865672,0.09375000000000001,0.09999999999999999,0.09000000000000001
2,13,26,1,2,1.7800000000000014,2,29,54,56,59,47,4.39999999999999,2.1299999999999986,0.5400000000000003,0.5200000000000002,7,5,3,2,59,30,7,6,4,0.5,29,7,HL,0.07457627118644068,0.07100000000000001,0.07714285714285714,0.08666666666666667
2,14,27,1,6,1.7700000000000014,2,20,6,2,62,83,4.499999999999988,4.689999999999944,0.01,0.02,5,12,1,1,48,45,1,1,6,0,19,7,HL,0.09375,0.10422222222222223,0.01,0.02
2,14,28,1,3,2.109999999999999,2,35,107,60,49,29,7.269999999999934,0.11999999999999998,0.47000000000000025,0.26000000000000006,14,3,2,3,108,3,5,5,5,0,15,7,HL,0.06731481481481481,0.04,0.094,0.052
2,15,29,1,3,1.2000000000000008,2,13,109,78,15,35,4.999999999999964,1.340000000000001,0.8900000000000006,0.2700000000000001,8,3,3,4,52,15,10,4,5,0,16,7,HL,0.09615384615384616,0.08933333333333333,0.089,0.0675
2,15,30,1,10,1.5100000000000011,2,19,86,12,100,65,4.609999999999979,2.149999999999998,0.20000000000000004,0.08,6,5,2,1,55,21,2,1,3,0,15,7,HL,0.08381818181818183,0.10238095238095239,0.1,0.08
2,16,31,1,3,1.9200000000000015,18,40,29,3,117,33,4.49999999999999,2.579999999999989,0.8400000000000005,1.6800000000000013,20,6,6,7,70,26,12,16,5,0,18,7,HL,0.0642857142857143,0.09923076923076925,0.07,0.10500000000000002
2,16,32,1,5,0.3200000000000001,2,7,13,24,43,20,10.589999999999826,0.01,0.02,0.01,19,1,2,1,121,1,2,1,5,0.5,41,7,HL,0.0875206611570248,0.01,0.01,0.01
2,17,33,1,2,1.260000000000001,12,24,27,21,88,32,5.419999999999956,1.7300000000000013,0.3100000000000001,0.3100000000000001,20,7,2,4,68,13,2,7,4,0,19,7,HL,0.07970588235294118,0.1330769230769231,0.15500000000000003,0.04428571428571429
2,17,34,1,8,2.159999999999998,4,31,66,78,83,109,9.549999999999885,0.04,0.09,0.9700000000000006,17,1,2,5,102,1,2,13,2,0,12,7,HL,0.09362745098039217,0.04,0.045,0.07461538461538463
2,18,35,1,5,1.310000000000001,18,26,44,6,3,10,4.979999999999967,3.139999999999977,1.7900000000000014,0.04,20,10,11,1,71,35,29,1,5,0.5,41,7,HL,0.07014084507042254,0.08971428571428572,0.061724137931034484,0.04
2,18,36,1,10,1.320000000000001,6,16,62,89,23,111,5.719999999999952,0.5900000000000003,0.10999999999999999,0.08,13,2,1,1,54,11,1,1,3,0,15,7,HL,0.10592592592592594,0.053636363636363635,0.10999999999999999,0.08
2,19,37,1,4,0.7800000000000005,2,9,104,6,3,60,5.349999999999947,0.8500000000000005,0.22000000000000006,0.3300000000000001,8,5,2,2,64,12,3,2,2,0,18,7,HL,0.08359375000000001,0.07083333333333335,0.07333333333333333,0.16500000000000004
2,19,38,1,7,0.8100000000000005,3,12,16,69,62,24,7.419999999999904,0.04,0.10999999999999999,0.17,15,1,3,2,97,1,4,4,6,0,20,7,HL,0.07649484536082475,0.04,0.0275,0.0425
2,20,39,1,2,1.9300000000000015,3,20,16,26,52,25,5.829999999999963,0.7300000000000004,0.5100000000000002,0.12999999999999998,10,5,2,2,60,11,8,2,4,0,20,7,HL,0.09716666666666668,0.06636363636363637,0.06375,0.065
2,20,40,1,5,1.2400000000000009,4,15,1,2,100,44,7.13999999999992,1.8100000000000014,0.03,0.04,16,5,1,1,70,22,1,1,5,0,19,7,HL,0.10200000000000002,0.08227272727272729,0.03,0.04
2,21,41,1,9,1.6000000000000012,2,22,27,7,4,70,5.319999999999966,0.5300000000000002,3.789999999999963,0.01,11,4,13,1,66,12,51,1,4,0,21,7,HL,0.08060606060606061,0.04416666666666667,0.07431372549019609,0.01
2,21,42,1,4,2.06,19,37,47,108,16,95,5.719999999999966,0.3100000000000001,0.6800000000000004,0.5200000000000002,20,3,4,2,71,4,5,2,2,0,16,7,HL,0.08056338028169015,0.0775,0.136,0.26000000000000006
3,1,1,0,9,1.7900000000000014,2,37,72,87,96,90,10.309999999999864,0.15,0.5100000000000002,0.4200000000000002,20,3,6,3,197,4,8,3,4,0.5,13,7,HL,0.052335025380710665,0.037500000000000006,0.06375000000000001,0.14000000000000004
3,1,2,0,2,2.4599999999999915,2,51,60,49,51,56,5.729999999999966,0.7200000000000004,1.390000000000001,1.0500000000000007,7,5,10,9,120,14,26,22,4,1,48,7,HL,0.04775,0.05142857142857143,0.05346153846153846,0.04772727272727273
3,2,3,0,8,2.0000000000000013,2,47,114,115,58,92,4.479999999999992,0.4200000000000002,2.6899999999999866,0.5000000000000002,4,2,3,2,93,9,56,10,2,0,11,7,HL,0.04817204301075269,0.04666666666666666,0.048035714285714286,0.05
3,2,4,0,4,0.8500000000000005,16,21,84,82,28,13,10.51999999999984,0.09999999999999999,1.2000000000000008,1.320000000000001,20,3,15,12,233,3,27,28,2,0,17,7,HL,0.04515021459227468,0.03333333333333333,0.044444444444444446,0.04714285714285714
3,3,5,0,1,1.1400000000000008,2,30,73,110,78,119,4.409999999999975,2.3799999999999932,0.6800000000000004,0.6000000000000003,9,8,3,5,110,46,12,8,3,0,10,7,HL,0.040090909090909094,0.05173913043478261,0.05666666666666667,0.07500000000000001
3,3,6,0,10,2.3799999999999932,2,56,87,49,6,95,5.279999999999975,3.709999999999965,0.5800000000000003,1.9500000000000015,8,11,4,10,110,66,11,41,3,0,16,7,HL,0.048,0.05621212121212121,0.05272727272727273,0.0475609756097561
3,4,7,0,4,2.149999999999998,3,45,107,102,49,101,5.2299999999999764,1.9100000000000015,0.15,0.24000000000000007,5,6,2,3,107,32,2,5,2,0.5,10,7,HL,0.0488785046728972,0.059687500000000004,0.07499999999999998,0.048
3,4,8,0,9,1.260000000000001,2,20,63,72,113,71,4.669999999999972,0.35000000000000014,1.8300000000000014,0.45000000000000023,4,4,7,4,81,9,36,13,4,0.5,14,7,HL,0.05765432098765432,0.03888888888888889,0.050833333333333335,0.03461538461538462
3,5,9,0,4,1.1500000000000008,19,29,58,87,99,22,6.109999999999939,1.500000000000001,0.45000000000000023,0.5000000000000002,20,8,4,6,131,30,12,12,2,0,15,7,HL,0.046641221374045805,0.05,0.0375,0.041666666666666664
3,5,10,0,9,1.7900000000000014,2,45,66,118,110,82,6.549999999999944,1.460000000000001,0.21000000000000005,0.26000000000000006,13,6,2,4,147,33,5,12,4,0,11,7,HL,0.0445578231292517,0.04424242424242424,0.041999999999999996,0.021666666666666667
3,6,11,0,8,1.8500000000000014,2,41,119,111,116,60,5.729999999999963,0.15,1.0300000000000007,0.13999999999999999,6,2,3,2,115,5,17,3,2,0.5,10,7,HL,0.04982608695652174,0.03,0.060588235294117644,0.04666666666666667
3,6,12,0,4,0.5700000000000003,12,14,20,21,105,24,9.69999999999985,0.02,0.05,0.02,20,1,2,1,202,1,3,1,2,0.5,20,7,HL,0.04801980198019802,0.02,0.016666666666666666,0.02
3,7,13,1,9,1.1200000000000008,3,21,81,120,5,12,7.099999999999918,0.5600000000000003,0.12999999999999998,0.10999999999999999,8,2,2,2,148,12,5,3,4,0,17,7,HL,0.047972972972972976,0.04666666666666667,0.026000000000000002,0.03666666666666667
3,7,14,1,3,1.8700000000000014,12,44,25,97,30,99,7.159999999999933,0.5600000000000003,0.16,0.15,17,2,3,2,159,10,4,3,5,0,14,7,HL,0.0450314465408805,0.056,0.04,0.05
3,8,15,1,4,2.439999999999992,2,50,101,31,28,9,6.779999999999944,1.330000000000001,0.04,0.4000000000000002,13,6,2,3,132,33,2,9,2,0,18,7,HL,0.05136363636363636,0.040303030303030306,0.02,0.044444444444444446
3,8,16,1,5,1.1700000000000008,14,23,18,116,17,69,7.9799999999999,3.1599999999999766,0.47000000000000025,0.03,20,13,9,1,167,62,11,1,5,0,18,7,HL,0.04778443113772455,0.050967741935483875,0.042727272727272725,0.03
3,9,17,1,6,1.310000000000001,19,37,1,9,4,8,6.0199999999999445,0.3900000000000002,0.35000000000000014,0.48000000000000026,20,2,3,2,146,10,7,11,6,1,72,7,HL,0.04123287671232877,0.039,0.049999999999999996,0.04363636363636363
3,9,18,1,9,2.1699999999999977,2,47,65,77,66,73,6.879999999999942,0.7200000000000004,0.46000000000000024,0.3000000000000001,13,4,2,2,146,17,10,9,4,0,14,7,HL,0.047123287671232875,0.042352941176470586,0.046,0.03333333333333333
3,10,19,1,7,1.8000000000000014,7,40,23,21,16,80,5.429999999999968,1.1000000000000008,3.849999999999962,0.8300000000000005,10,4,11,9,124,25,85,16,6,0.5,39,7,HL,0.043790322580645163,0.044,0.045294117647058825,0.051875
3,10,20,1,3,1.460000000000001,2,26,29,35,68,65,5.899999999999951,0.9600000000000006,0.6000000000000003,0.38000000000000017,8,2,3,2,122,27,19,13,5,0,18,7,HL,0.04836065573770492,0.035555555555555556,0.031578947368421054,0.02923076923076923
3,11,21,1,5,1.390000000000001,4,32,38,40,78,45,6.209999999999942,0.5900000000000003,0.5800000000000003,0.4100000000000002,13,4,3,5,128,17,8,10,5,0.5,33,7,HL,0.048515625,0.03470588235294118,0.0725,0.041
3,11,22,1,10,1.7700000000000014,7,36,89,92,14,96,5.2999999999999705,0.6600000000000004,1.2200000000000009,0.10999999999999999,12,2,2,2,98,13,20,2,3,0.5,24,7,HL,0.05408163265306122,0.05076923076923077,0.061,0.055
3,12,23,1,9,2.1799999999999975,2,53,65,63,64,70,5.419999999999972,1.7700000000000014,0.07,0.6500000000000004,7,4,1,2,118,35,1,20,4,1,48,7,HL,0.045932203389830506,0.05057142857142857,0.07,0.0325
3,12,24,1,1,1.1900000000000008,3,29,76,24,83,14,5.5599999999999525,0.4000000000000002,0.10999999999999999,1.5600000000000012,12,2,1,7,117,9,1,32,3,0,18,7,HL,0.04752136752136752,0.044444444444444446,0.10999999999999999,0.04875
3,13,25,1,8,1.6500000000000012,3,32,115,110,117,23,4.249999999999989,1.1700000000000008,0.7600000000000005,0.6700000000000004,5,4,4,4,81,24,24,16,2,0.5,18,7,HL,0.05246913580246913,0.04875,0.03166666666666667,0.041875
3,13,26,1,2,2.07,2,53,51,52,55,53,5.349999999999974,0.9000000000000006,1.2400000000000009,0.7600000000000005,10,5,6,9,135,19,26,15,4,1,48,7,HL,0.03962962962962963,0.04736842105263158,0.047692307692307694,0.05066666666666667
3,14,27,1,5,1.7000000000000013,3,35,47,45,23,24,5.3099999999999685,0.11999999999999998,1.7500000000000013,0.09,5,2,3,1,127,3,31,1,5,0,22,7,HL,0.04181102362204724,0.04,0.056451612903225805,0.09
3,14,28,1,10,1.8600000000000014,2,35,93,91,95,92,4.759999999999984,1.0300000000000007,1.290000000000001,0.46000000000000024,5,6,9,4,99,25,19,15,3,1,36,7,HL,0.04808080808080808,0.0412,0.06789473684210526,0.03066666666666667
3,15,29,1,1,0.5800000000000003,2,15,73,17,80,74,5.8799999999999315,0.48000000000000026,0.05,0.09,10,3,1,2,110,6,1,3,3,0.5,24,7,HL,0.053454545454545456,0.08,0.05,0.03
3,15,30,1,4,1.5300000000000011,2,29,98,99,63,104,4.679999999999978,1.7600000000000013,1.420000000000001,0.20000000000000004,7,3,3,3,97,42,22,6,2,0.5,16,7,HL,0.04824742268041237,0.0419047619047619,0.06454545454545454,0.03333333333333333
3,16,31,1,5,1.9700000000000015,2,38,42,48,79,47,6.809999999999943,0.13999999999999999,0.35000000000000014,0.060000000000000005,9,1,3,1,138,1,10,1,5,0.5,33,7,HL,0.04934782608695652,0.13999999999999999,0.035,0.060000000000000005
3,16,32,1,9,1.5700000000000012,13,39,85,105,1,61,9.079999999999885,1.380000000000001,0.7100000000000004,0.02,20,7,7,2,203,26,13,2,4,0,15,7,HL,0.04472906403940887,0.053076923076923084,0.054615384615384614,0.01
3,17,33,1,10,1.2200000000000009,2,20,96,93,104,6,4.639999999999972,1.5800000000000012,0.5500000000000003,0.12999999999999998,7,5,2,2,88,38,10,3,3,0,14,7,HL,0.05272727272727273,0.041578947368421056,0.05499999999999999,0.043333333333333335
3,17,34,1,7,2.6599999999999873,2,53,23,16,15,61,4.959999999999982,3.1299999999999772,1.5200000000000011,0.05,8,5,4,1,97,68,36,2,6,0.5,40,7,HL,0.0511340206185567,0.04602941176470588,0.042222222222222223,0.025
3,18,35,1,5,1.6000000000000012,3,30,45,74,39,38,4.689999999999979,1.1200000000000008,0.4200000000000002,0.12999999999999998,7,3,2,1,92,23,7,1,5,0.5,33,7,HL,0.050978260869565216,0.04869565217391304,0.06,0.12999999999999998
3,18,36,1,2,1.6800000000000013,2,27,53,54,59,58,4.70999999999998,1.1900000000000008,0.26000000000000006,0.5000000000000002,5,2,2,8,87,30,3,13,4,1,48,7,HL,0.05413793103448276,0.03966666666666667,0.08666666666666667,0.038461538461538464
3,19,37,1,4,1.6200000000000012,5,34,107,61,90,97,6.409999999999943,0.7700000000000005,0.2900000000000001,0.19000000000000003,13,4,2,3,131,16,4,8,2,0,11,7,HL,0.04893129770992366,0.048124999999999994,0.0725,0.02375
3,19,38,1,1,0.3000000000000001,2,6,1,6,30,25,10.289999999999832,0.04,0.01,0.10999999999999999,20,2,1,3,168,2,1,3,3,0,22,7,HL,0.061250000000000006,0.02,0.01,0.03666666666666667
3,20,39,1,9,2.7299999999999858,5,56,69,77,106,107,6.569999999999948,0.09999999999999999,1.9000000000000015,0.26000000000000006,14,1,9,2,144,2,41,6,4,0,11,7,HL,0.045625,0.05,0.046341463414634146,0.043333333333333335
3,20,40,1,8,1.7900000000000014,19,44,113,90,111,13,4.429999999999989,2.7499999999999853,0.060000000000000005,0.38000000000000017,20,10,2,3,99,57,2,12,2,0,13,7,HL,0.04474747474747475,0.048245614035087724,0.03,0.03166666666666666
3,21,41,1,2,1.5800000000000012,5,33,59,23,84,98,6.399999999999943,0.5500000000000003,0.3300000000000001,0.09999999999999999,11,2,2,2,144,9,6,2,4,0,15,7,HL,0.044444444444444446,0.06111111111111111,0.055,0.05
3,21,42,1,8,0.5700000000000003,3,7,110,66,117,116,4.679999999999957,0.47000000000000025,0.4200000000000002,0.09,6,3,5,1,81,8,11,1,2,0.5,16,7,HL,0.05777777777777778,0.058750000000000004,0.038181818181818185,0.09
4,1,1,0,10,0.7000000000000004,2,9,89,60,85,52,3.6599999999999815,0.22000000000000006,0.49000000000000027,1.1500000000000008,8,2,4,8,31,3,7,9,3,0,14,7,HL,0.11806451612903228,0.07333333333333335,0.07,0.1277777777777778
4,1,2,0,8,0.5300000000000002,2,5,112,3,81,12,2.749999999999997,1.6900000000000013,0.3900000000000002,0.09,9,8,3,1,22,16,6,1,2,0,17,7,HL,0.12500000000000003,0.10562500000000002,0.06499999999999999,0.09
4,2,3,0,3,0.4100000000000002,7,8,68,119,82,115,7.2599999999998985,0.02,1.0800000000000007,0.01,20,2,6,1,62,2,7,1,5,0,11,7,HL,0.1170967741935484,0.01,0.15428571428571433,0.01
4,2,4,0,2,1.300000000000001,2,13,60,90,89,49,4.899999999999968,0.5600000000000003,0.20000000000000004,0.11999999999999998,14,6,3,2,41,7,3,3,4,0,14,7,HL,0.11951219512195123,0.08,0.06666666666666667,0.04
4,3,5,0,7,0.6100000000000003,5,8,14,16,19,22,3.539999999999982,0.4400000000000002,1.5800000000000012,0.02,14,2,9,1,29,2,17,1,6,1,72,7,HL,0.12206896551724139,0.22000000000000008,0.09294117647058824,0.02
4,3,6,0,6,1.0300000000000007,3,13,117,4,78,43,4.329999999999974,0.09999999999999999,0.5500000000000003,0.9600000000000006,8,1,3,2,43,1,10,4,6,0,16,7,HL,0.10069767441860467,0.09999999999999999,0.055,0.24000000000000013
4,4,7,0,8,0.9400000000000006,2,8,112,79,76,110,3.549999999999989,0.5300000000000002,0.15,0.47000000000000025,11,3,1,3,29,9,1,4,2,0,10,7,HL,0.1224137931034483,0.058888888888888886,0.15,0.1175
4,4,8,0,7,0.4000000000000002,2,4,70,17,14,62,4.0299999999999665,1.2500000000000009,0.05,0.2800000000000001,12,4,2,2,34,5,2,3,6,0,20,7,HL,0.1185294117647059,0.2500000000000001,0.025,0.09333333333333334
4,5,9,0,3,0.7300000000000004,5,8,36,73,29,17,1.720000000000001,1.6300000000000012,0.8200000000000005,0.21000000000000005,8,6,4,1,12,14,11,1,5,0,19,7,HL,0.14333333333333337,0.11642857142857145,0.07454545454545457,0.21000000000000005
4,5,10,0,5,0.49000000000000027,2,4,67,116,41,47,3.4899999999999802,0.12999999999999998,0.17,0.22000000000000006,9,1,2,2,27,1,4,3,5,0,16,7,HL,0.12925925925925927,0.12999999999999998,0.042499999999999996,0.07333333333333333
4,6,11,0,2,0.7500000000000004,2,9,20,112,59,22,3.7999999999999794,0.37000000000000016,0.22000000000000006,0.10999999999999999,8,3,4,1,34,3,4,1,4,0,18,7,HL,0.11176470588235296,0.12333333333333335,0.055,0.10999999999999999
4,6,12,0,4,0.7600000000000005,9,11,78,106,98,99,2.9399999999999977,0.26000000000000006,1.300000000000001,0.2800000000000001,13,1,5,2,32,1,7,2,2,0.5,9,7,HL,0.091875,0.26000000000000006,0.18571428571428578,0.14000000000000004
4,7,13,1,10,0.6900000000000004,4,11,96,90,56,54,2.720000000000001,0.25000000000000006,0.5600000000000003,1.0300000000000007,8,1,3,5,27,1,5,7,3,0,14,7,HL,0.10074074074074076,0.25000000000000006,0.112,0.14714285714285716
4,7,14,1,3,0.9700000000000006,2,13,64,114,118,26,4.199999999999976,0.47000000000000025,0.16,0.060000000000000005,10,3,2,1,39,7,2,1,5,0,13,7,HL,0.10769230769230771,0.06714285714285714,0.08,0.060000000000000005
4,8,15,1,1,0.24000000000000007,4,4,17,23,75,50,7.209999999999896,0.01,0.01,0.5100000000000002,20,1,1,4,62,1,1,5,3,0,19,7,HL,0.11629032258064519,0.01,0.01,0.10200000000000001
4,8,16,1,6,0.4200000000000002,2,5,3,25,72,27,2.3600000000000017,1.8200000000000014,0.13999999999999999,0.060000000000000005,6,6,1,1,26,20,1,1,6,0,20,7,HL,0.09076923076923078,0.09100000000000001,0.13999999999999999,0.060000000000000005
4,9,17,1,6,0.6100000000000003,3,7,2,12,101,27,3.349999999999986,0.5500000000000003,0.8800000000000006,0.09999999999999999,10,2,2,2,20,2,7,2,6,0,19,7,HL,0.16750000000000004,0.27500000000000013,0.12571428571428572,0.05
4,9,18,1,8,0.9400000000000006,3,7,96,88,111,46,4.4699999999999696,0.3200000000000001,0.08,0.17,12,2,1,1,30,6,1,1,2,0,13,7,HL,0.14900000000000002,0.05333333333333333,0.08,0.17
4,10,19,1,7,0.8100000000000005,2,9,13,18,109,19,1.720000000000001,1.9700000000000015,0.5800000000000003,0.19000000000000003,5,7,4,3,15,14,6,5,6,0.5,38,7,HL,0.1146666666666667,0.14071428571428574,0.09666666666666666,0.038
4,10,20,1,1,0.5300000000000002,2,5,76,81,72,40,1.9300000000000013,1.0000000000000007,0.8300000000000005,0.8700000000000006,5,4,5,3,9,7,7,8,3,0,15,7,HL,0.21444444444444452,0.14285714285714288,0.11857142857142859,0.10875
4,11,21,1,2,0.5000000000000002,3,5,59,57,105,30,2.8299999999999947,1.290000000000001,0.2700000000000001,0.17,9,3,2,1,28,6,3,1,4,0,15,7,HL,0.10107142857142859,0.21500000000000008,0.08999999999999998,0.17
4,11,22,1,7,0.9000000000000006,11,15,79,13,24,19,5.209999999999953,0.6100000000000003,0.02,0.02,17,3,1,1,56,4,1,1,6,0.5,39,7,HL,0.09303571428571429,0.15250000000000002,0.02,0.02
4,12,23,1,10,0.8800000000000006,2,8,91,30,95,26,3.189999999999995,0.36000000000000015,0.15,0.23000000000000007,8,2,1,1,32,3,1,1,3,0,16,7,HL,0.0996875,0.11999999999999998,0.15,0.23000000000000007
4,12,24,1,8,0.5400000000000003,7,7,80,119,72,115,6.559999999999916,0.01,0.08,0.25000000000000006,20,1,2,2,55,1,2,2,2,0,11,7,HL,0.1192727272727273,0.01,0.04,0.12500000000000003
4,13,25,1,6,0.5900000000000003,10,14,39,100,104,2,6.9599999999999085,0.01,0.01,0.01,20,1,1,1,70,1,1,1,6,0,15,7,HL,0.09942857142857145,0.01,0.01,0.01
4,13,26,1,2,0.7900000000000005,2,7,50,20,114,51,3.81999999999998,1.1200000000000008,0.03,0.05,11,6,1,1,35,9,1,1,4,0,16,7,HL,0.10914285714285715,0.12444444444444448,0.03,0.05
4,14,27,1,10,0.8100000000000005,4,8,92,90,110,2,2.9,0.38000000000000017,0.8500000000000005,0.15,10,2,3,1,19,2,9,1,3,0,14,7,HL,0.15263157894736845,0.19,0.09444444444444446,0.15
4,14,28,1,2,0.8700000000000006,11,14,53,55,28,106,2.6300000000000017,1.0900000000000007,0.4200000000000002,0.9400000000000006,15,5,2,4,32,9,5,7,4,0,15,7,HL,0.08218750000000001,0.12111111111111113,0.08400000000000002,0.1342857142857143
4,15,29,1,10,1.2000000000000008,2,11,93,96,95,111,4.329999999999978,0.7600000000000005,0.17,0.26000000000000006,10,3,2,4,36,5,2,5,3,0.5,20,7,HL,0.12027777777777779,0.15200000000000005,0.08499999999999999,0.052
4,15,30,1,2,0.9700000000000006,12,18,60,32,103,57,2.2400000000000015,1.1400000000000008,0.23000000000000007,0.23000000000000007,16,5,1,3,26,6,2,5,4,0,15,7,HL,0.08615384615384616,0.19000000000000006,0.11499999999999999,0.04599999999999999
4,16,31,1,2,0.3000000000000001,2,4,2,75,111,45,5.959999999999924,0.05,0.01,0.09,12,2,1,2,50,2,1,2,4,0,16,7,HL,0.11920000000000001,0.025,0.01,0.045000000000000005
4,16,32,1,7,0.6800000000000004,3,12,104,103,33,29,3.8899999999999757,0.36000000000000015,0.13999999999999999,0.10999999999999999,9,4,1,1,40,5,2,1,6,0,14,7,HL,0.09725000000000002,0.07200000000000001,0.07,0.10999999999999999
4,17,33,1,7,0.3900000000000002,2,4,16,101,82,22,2.839999999999992,0.7000000000000004,0.34000000000000014,0.37000000000000016,12,6,2,3,25,11,4,4,6,0,17,7,HL,0.11360000000000002,0.06363636363636363,0.08500000000000002,0.0925
4,17,34,1,6,0.8600000000000005,9,12,2,1,109,41,4.569999999999966,2.07,0.04,0.01,20,9,1,1,37,20,1,1,6,0,19,7,HL,0.12351351351351354,0.10350000000000001,0.04,0.01
4,18,35,1,2,1.500000000000001,13,20,60,112,56,49,2.880000000000002,1.0800000000000007,0.19000000000000003,0.4300000000000002,15,4,2,5,30,6,2,5,4,0.5,26,7,HL,0.096,0.18000000000000005,0.095,0.08600000000000001
4,18,36,1,1,1.0100000000000007,2,9,108,101,9,102,3.6799999999999877,0.6800000000000004,0.2800000000000001,0.2700000000000001,10,3,2,3,38,4,3,4,3,0.5,18,7,HL,0.09684210526315791,0.17000000000000004,0.09333333333333332,0.0675
4,19,37,1,1,1.0000000000000007,15,22,77,116,66,83,6.129999999999936,0.37000000000000016,0.8700000000000006,0.02,20,4,6,1,58,4,10,1,3,0,12,7,HL,0.10568965517241381,0.09250000000000001,0.08700000000000001,0.02
4,19,38,1,5,0.8200000000000005,2,16,37,98,40,107,4.449999999999967,0.12999999999999998,0.07,0.7900000000000005,13,1,1,4,41,1,1,6,5,0,14,7,HL,0.10853658536585369,0.12999999999999998,0.07,0.13166666666666674
4,20,39,1,10,0.48000000000000026,2,6,7,72,94,93,3.679999999999976,0.2700000000000001,0.05,0.03,11,1,1,1,37,1,1,1,3,0,16,7,HL,0.09945945945945947,0.2700000000000001,0.05,0.03
4,20,40,1,2,0.9000000000000006,15,21,55,79,42,74,1.9300000000000013,1.8400000000000014,1.1300000000000008,0.7700000000000005,17,5,3,3,25,11,6,8,4,0,15,7,HL,0.07720000000000002,0.16727272727272732,0.18833333333333338,0.09625
4,21,41,1,10,0.7900000000000005,2,5,87,39,41,85,2.690000000000002,0.8500000000000005,0.3300000000000001,0.09999999999999999,8,2,2,2,20,8,4,2,3,0,16,7,HL,0.1345,0.10625,0.0825,0.05
4,21,42,1,7,0.6100000000000003,2,9,81,102,58,16,3.4199999999999844,0.7000000000000004,0.5300000000000002,0.5900000000000003,8,5,4,4,19,5,6,5,6,0,15,7,HL,0.18000000000000005,0.14,0.08833333333333333,0.11800000000000001
5,1,1,0,6,0.26000000000000006,2,3,4,3,109,11,2.1800000000000015,19.350000000000225,0.02,0.01,4,16,1,1,5,32,1,1,6,0.5,20,7,HL,0.4360000000000003,0.6046875,0.02,0.01
5,1,2,0,3,0.25000000000000006,2,3,34,29,36,69,4.249999999999959,3.319999999999973,4.629999999999946,1.1100000000000008,7,6,4,3,10,7,5,3,5,0.5,19,7,HL,0.4250000000000002,0.47428571428571453,0.9260000000000006,0.3700000000000002
5,2,3,0,1,0.34000000000000014,2,4,4,83,82,44,5.739999999999929,0.22000000000000006,0.5300000000000002,3.889999999999961,10,1,3,6,18,1,4,7,3,0,17,7,HL,0.318888888888889,0.22000000000000006,0.1325,0.555714285714286
5,2,4,0,9,0.7600000000000005,11,12,28,112,69,35,9.989999999999847,5.209999999999933,1.9200000000000015,3.5899999999999674,20,8,2,6,34,9,2,6,4,0,16,7,HL,0.2938235294117648,0.5788888888888892,0.9600000000000007,0.5983333333333337
5,3,5,0,5,0.26000000000000006,2,3,42,43,44,119,3.229999999999981,0.5200000000000002,3.989999999999959,0.17,7,1,9,1,10,1,10,1,5,0.5,17,7,HL,0.3230000000000002,0.5200000000000002,0.3990000000000002,0.17
5,3,6,0,3,0.22000000000000006,2,3,26,5,4,28,6.169999999999917,1.7700000000000014,0.2900000000000001,3.0299999999999794,11,3,1,6,22,4,1,10,5,0,22,7,HL,0.28045454545454557,0.4425000000000002,0.2900000000000001,0.30300000000000016
5,4,7,0,10,0.21000000000000005,2,3,119,94,115,48,3.109999999999982,0.6100000000000003,1.6800000000000013,1.2300000000000009,6,1,3,3,10,2,6,6,3,0,12,7,HL,0.31100000000000017,0.3050000000000001,0.2800000000000001,0.20500000000000004
5,4,8,0,2,0.35000000000000014,2,3,59,9,53,58,4.909999999999948,1.490000000000001,1.2100000000000009,0.12999999999999998,8,4,4,2,13,4,9,2,4,0.5,18,7,HL,0.3776923076923079,0.37250000000000016,0.13444444444444448,0.065
5,5,9,0,7,0.23000000000000007,2,3,23,13,18,15,3.6199999999999717,1.6700000000000013,1.0100000000000007,2.679999999999987,5,3,3,4,7,5,3,6,6,1,72,7,HL,0.5171428571428573,0.33400000000000013,0.3366666666666668,0.44666666666666693
5,5,10,0,1,0.4000000000000002,2,4,67,63,78,74,6.919999999999906,0.5200000000000002,0.5600000000000003,1.9600000000000015,10,1,2,4,17,1,2,4,3,0,14,7,HL,0.407058823529412,0.5200000000000002,0.2800000000000001,0.49000000000000027
5,6,11,0,3,0.7100000000000004,3,8,36,65,62,71,5.099999999999952,1.6500000000000012,0.7400000000000004,0.3900000000000002,7,3,2,4,16,4,2,4,5,0.5,17,7,HL,0.31875000000000014,0.41250000000000026,0.37000000000000016,0.09750000000000002
5,6,12,0,7,0.26000000000000006,2,3,52,17,16,78,3.559999999999974,4.329999999999952,2.959999999999981,0.09999999999999999,5,5,7,1,7,8,10,1,6,0,19,7,HL,0.5085714285714289,0.5412499999999978,0.29600000000000015,0.09999999999999999
5,7,13,1,5,0.21000000000000005,2,3,48,91,39,16,5.139999999999939,1.8700000000000014,1.1700000000000008,0.34000000000000014,10,2,3,1,19,2,3,1,5,0,19,7,HL,0.2705263157894738,0.9350000000000006,0.3900000000000002,0.34000000000000014
5,7,14,1,8,0.8700000000000006,7,8,10,54,82,26,5.429999999999948,4.389999999999951,0.05,0.17,11,6,1,1,15,6,1,1,2,0,18,7,HL,0.3620000000000002,0.7316666666666665,0.05,0.17
5,8,15,1,5,0.23000000000000007,2,4,46,40,7,44,1.8600000000000012,4.88999999999994,3.0299999999999794,1.7800000000000014,5,7,4,3,8,7,5,3,5,0.5,36,7,HL,0.23250000000000012,0.698571428571429,0.6060000000000003,0.5933333333333337
5,8,16,1,8,0.25000000000000006,2,3,16,17,109,31,5.439999999999934,0.7600000000000005,3.799999999999963,0.8100000000000005,10,1,7,1,12,1,10,1,2,0,19,7,HL,0.4533333333333336,0.7600000000000005,0.37999999999999945,0.8100000000000005
5,9,17,1,5,0.21000000000000005,2,3,43,46,48,39,2.0200000000000014,4.249999999999954,0.7800000000000005,1.1200000000000008,5,7,3,2,6,9,3,2,5,1,60,7,HL,0.33666666666666684,0.4722222222222225,0.2600000000000001,0.5600000000000004
5,9,18,1,9,0.25000000000000006,2,3,91,70,29,96,3.7999999999999683,0.45000000000000023,0.4300000000000002,0.3300000000000001,6,1,2,1,8,1,2,1,4,0,15,7,HL,0.47500000000000026,0.45000000000000023,0.21500000000000005,0.3300000000000001
5,10,19,1,3,0.3000000000000001,1,2,34,117,113,95,5.029999999999943,0.34000000000000014,0.26000000000000006,0.4100000000000002,9,2,3,1,17,2,3,1,5,0,12,7,HL,0.2958823529411766,0.17,0.08666666666666666,0.4100000000000002
5,10,20,1,4,0.3200000000000001,3,4,40,97,104,101,5.829999999999927,0.21000000000000005,0.2800000000000001,0.6800000000000004,8,1,3,2,12,1,3,2,2,0.5,17,7,HL,0.4858333333333335,0.21000000000000005,0.09333333333333334,0.34000000000000014
5,11,21,1,2,0.38000000000000017,2,3,49,4,113,51,2.6299999999999963,1.6700000000000013,1.420000000000001,0.24000000000000007,6,2,2,3,11,3,2,3,4,0,16,7,HL,0.2390909090909092,0.556666666666667,0.7100000000000004,0.08
5,11,22,1,10,0.15,2,3,38,14,24,89,7.609999999999886,0.20000000000000004,1.0300000000000007,0.9900000000000007,10,1,5,4,13,1,5,4,3,0,20,7,HL,0.5853846153846152,0.20000000000000004,0.20600000000000007,0.24750000000000014
5,12,23,1,4,0.3300000000000001,2,3,12,10,80,54,2.9299999999999886,2.020000000000001,0.5900000000000003,1.470000000000001,6,3,1,3,9,3,1,7,2,0,19,7,HL,0.3255555555555557,0.6733333333333338,0.5900000000000003,0.21000000000000008
5,12,24,1,8,0.20000000000000004,2,3,111,118,112,23,6.239999999999916,0.34000000000000014,0.7500000000000004,1.1600000000000008,10,2,2,2,16,2,3,2,2,0.5,18,7,HL,0.39000000000000024,0.17,0.2500000000000001,0.5800000000000004
5,13,25,1,6,0.7800000000000005,9,10,3,1,4,87,3.1199999999999948,11.099999999999808,6.989999999999895,0.01,12,6,8,1,14,14,15,1,6,0.5,39,7,HL,0.22285714285714295,0.7928571428571421,0.46600000000000025,0.01
5,13,26,1,1,4.3099999999999525,5,11,29,36,27,63,8.42999999999991,0.7500000000000004,2.7399999999999856,1.7000000000000013,11,2,5,3,19,2,6,5,3,0.5,34,7,HL,0.443684210526316,0.3750000000000001,0.4566666666666669,0.3400000000000002
5,14,27,1,7,0.2800000000000001,2,3,72,64,22,16,3.9299999999999664,1.7300000000000013,0.25000000000000006,2.4499999999999917,9,5,1,4,16,5,2,5,6,0,20,7,HL,0.2456250000000001,0.34600000000000014,0.12500000000000003,0.49000000000000027
5,14,28,1,2,0.6300000000000003,2,4,1,52,58,115,7.999999999999888,0.3300000000000001,0.22000000000000006,0.12999999999999998,12,2,1,1,23,3,2,1,4,0,16,7,HL,0.3478260869565219,0.11000000000000001,0.11000000000000001,0.12999999999999998
5,15,29,1,7,0.17,2,3,53,24,19,58,1.590000000000001,3.0599999999999787,2.709999999999986,0.2900000000000001,3,5,6,2,4,9,10,2,6,0,20,7,HL,0.39750000000000024,0.34000000000000014,0.27100000000000013,0.145
5,15,30,1,8,0.17,2,3,117,120,9,3,3.399999999999975,7.489999999999885,0.6300000000000003,0.01,7,10,2,1,12,16,2,1,2,0,16,7,HL,0.28333333333333344,0.4681250000000003,0.31500000000000017,0.01
5,16,31,1,4,0.7300000000000004,2,4,105,95,13,92,6.009999999999932,0.8000000000000005,0.3200000000000001,2.1799999999999975,9,2,1,2,17,2,2,2,2,0,14,7,HL,0.35352941176470604,0.4000000000000002,0.16000000000000003,1.0899999999999994
5,16,32,1,9,3.789999999999963,6,10,8,67,6,109,6.179999999999956,0.4000000000000002,0.9200000000000006,2.7899999999999845,9,1,2,6,16,1,2,6,4,0,18,7,HL,0.3862500000000002,0.4000000000000002,0.4600000000000002,0.4650000000000003
5,17,33,1,7,0.46000000000000024,2,3,24,16,23,22,3.1699999999999866,3.429999999999971,0.24000000000000007,0.5600000000000003,5,7,1,4,9,9,1,5,6,1,72,7,HL,0.3522222222222224,0.3811111111111113,0.24000000000000007,0.11199999999999999
5,17,34,1,5,1.420000000000001,4,5,84,60,55,8,4.4099999999999815,0.38000000000000017,0.3300000000000001,0.9000000000000006,8,1,1,3,12,1,1,4,5,0,17,7,HL,0.3675000000000002,0.38000000000000017,0.3300000000000001,0.22500000000000006
5,18,35,1,5,0.25000000000000006,4,4,41,69,70,71,3.6899999999999706,1.440000000000001,0.38000000000000017,0.36000000000000015,9,5,1,1,10,7,1,1,5,0.5,29,7,HL,0.3690000000000002,0.2057142857142858,0.38000000000000017,0.36000000000000015
5,18,36,1,3,0.22000000000000006,2,3,13,24,25,19,7.539999999999888,0.37000000000000016,2.3599999999999937,0.05,10,1,2,1,17,1,2,1,5,0.5,41,7,HL,0.4435294117647061,0.37000000000000016,1.1799999999999968,0.05
5,19,37,1,2,0.7500000000000004,2,7,117,60,120,111,2.9499999999999975,1.0000000000000007,1.480000000000001,5.449999999999928,5,2,3,8,11,3,5,11,4,0.5,16,7,HL,0.2681818181818183,0.33333333333333354,0.2960000000000001,0.49545454545454576
5,19,38,1,4,0.23000000000000007,2,3,43,102,65,99,3.4299999999999757,1.6900000000000013,0.7500000000000004,0.16,4,3,1,1,6,4,1,1,2,0,13,7,HL,0.5716666666666669,0.4225000000000002,0.7500000000000004,0.16
5,20,39,1,4,0.24000000000000007,2,3,74,50,38,97,3.529999999999974,0.7900000000000005,1.480000000000001,0.3300000000000001,7,2,4,1,8,2,6,1,2,0,14,7,HL,0.44125000000000025,0.3950000000000002,0.24666666666666676,0.3300000000000001
5,20,40,1,7,1.7400000000000013,4,5,119,72,111,21,5.2599999999999705,0.6300000000000003,0.2900000000000001,0.38000000000000017,11,1,2,1,13,1,2,1,6,0,14,7,HL,0.4046153846153848,0.6300000000000003,0.14500000000000002,0.38000000000000017
6,1,1,0,9,0.26000000000000006,2,4,46,79,44,67,5.479999999999933,0.48000000000000026,0.3900000000000002,0.7400000000000004,7,1,1,3,13,1,1,3,4,0,17,7,HL,0.42153846153846175,0.48000000000000026,0.3900000000000002,0.24666666666666676
6,1,2,0,8,0.22000000000000006,2,3,33,55,24,95,6.219999999999916,0.6700000000000004,0.8700000000000006,0.21000000000000005,10,3,1,1,14,3,1,1,2,0,18,7,HL,0.4442857142857145,0.2233333333333334,0.8700000000000006,0.21000000000000005
6,2,3,0,3,0.18000000000000002,2,3,32,92,58,95,4.199999999999958,0.5800000000000003,0.3900000000000002,0.11999999999999998,7,2,1,1,13,2,1,1,5,0,15,7,HL,0.32307692307692326,0.2900000000000001,0.3900000000000002,0.11999999999999998
6,2,4,0,9,0.2800000000000001,2,4,65,22,13,20,2.919999999999988,1.460000000000001,0.6100000000000003,0.8500000000000005,5,2,1,3,8,3,1,3,4,0.5,22,7,HL,0.3650000000000002,0.4866666666666669,0.6100000000000003,0.28333333333333344
6,3,5,0,8,0.24000000000000007,2,4,113,109,120,115,4.249999999999959,0.5400000000000003,1.6200000000000012,0.04,5,2,7,1,9,2,8,1,2,1,24,7,HL,0.47222222222222254,0.2700000000000001,0.20250000000000007,0.04
6,3,6,0,5,0.18000000000000002,2,3,46,38,19,17,2.3699999999999974,3.1299999999999772,0.36000000000000015,1.390000000000001,6,7,1,3,9,8,1,4,5,0,22,7,HL,0.2633333333333335,0.3912500000000002,0.36000000000000015,0.34750000000000014
6,4,7,0,4,0.09999999999999999,1,2,104,97,16,43,2.2799999999999976,1.2400000000000009,0.6700000000000004,0.8200000000000005,4,4,1,2,5,6,1,3,2,0,15,7,HL,0.45600000000000024,0.20666666666666672,0.6700000000000004,0.27333333333333343
6,4,8,0,2,0.18000000000000002,2,3,29,57,55,35,4.939999999999943,0.20000000000000004,0.7700000000000005,0.15,10,2,2,1,14,2,2,1,4,0,18,7,HL,0.35285714285714304,0.09999999999999999,0.38500000000000023,0.15
6,5,9,0,9,0.3300000000000001,2,3,71,13,68,87,3.32999999999998,0.9000000000000006,1.7600000000000013,0.5600000000000003,7,3,4,2,11,4,4,2,4,0,17,7,HL,0.30272727272727284,0.2250000000000001,0.4400000000000002,0.28000000000000014
6,5,10,0,6,1.8400000000000014,7,11,12,26,33,60,3.0400000000000023,0.8400000000000005,1.5300000000000011,3.4399999999999706,8,1,4,6,12,1,6,10,6,0,20,7,HL,0.25333333333333347,0.8400000000000005,0.25500000000000006,0.3440000000000001
6,6,11,0,2,3.0699999999999785,9,12,9,55,35,27,8.339999999999911,0.03,3.2499999999999747,0.01,14,1,4,1,19,1,8,1,4,0,20,7,HL,0.4389473684210526,0.03,0.40624999999999994,0.01
6,6,12,0,10,0.45000000000000023,2,3,87,40,106,24,5.529999999999936,0.19000000000000003,0.3200000000000001,0.7100000000000004,7,2,1,2,12,2,1,2,3,0,16,7,HL,0.4608333333333336,0.095,0.3200000000000001,0.3550000000000002
6,7,13,1,4,0.24000000000000007,2,4,108,33,9,62,2.7699999999999902,0.48000000000000026,3.2999999999999736,0.11999999999999998,5,1,5,1,8,1,5,1,2,0,17,7,HL,0.34625000000000017,0.48000000000000026,0.6600000000000004,0.11999999999999998
6,7,14,1,2,1.5100000000000011,10,13,43,15,94,13,4.1199999999999894,9.849999999999834,0.01,11.95999999999979,13,10,1,14,16,16,1,22,4,0,20,7,HL,0.2575000000000001,0.6156250000000004,0.01,0.5436363636363636
6,8,15,1,4,0.13999999999999999,2,3,16,40,41,95,2.729999999999989,0.8700000000000006,0.7100000000000004,0.20000000000000004,5,1,1,1,6,2,1,1,2,0,19,7,HL,0.4550000000000003,0.4350000000000002,0.7100000000000004,0.20000000000000004
6,8,16,1,6,1.8000000000000014,3,4,63,68,26,25,3.610000000000003,2.1199999999999988,0.09999999999999999,0.6100000000000003,6,5,1,4,7,7,1,5,6,0,18,7,HL,0.515714285714286,0.302857142857143,0.09999999999999999,0.12200000000000001
6,9,17,1,7,1.7100000000000013,3,4,36,18,22,57,4.399999999999988,1.6500000000000012,0.46000000000000024,6.829999999999899,8,4,2,5,12,4,2,9,6,0,21,7,HL,0.36666666666666686,0.41250000000000026,0.23000000000000004,0.7588888888888894
6,9,18,1,5,0.9200000000000006,2,3,119,96,45,93,6.089999999999935,0.21000000000000005,0.47000000000000025,0.09999999999999999,6,1,2,2,9,1,2,2,5,0,13,7,HL,0.6766666666666671,0.21000000000000005,0.23500000000000004,0.05
6,10,19,1,7,0.4000000000000002,5,5,14,41,40,72,1.9500000000000013,1.1800000000000008,2.1799999999999975,0.6000000000000003,6,2,5,1,6,2,7,1,6,0,20,7,HL,0.3250000000000002,0.5900000000000003,0.31142857142857155,0.6000000000000003
6,10,20,1,8,0.3300000000000001,2,4,112,59,35,114,2.5999999999999956,2.0799999999999996,1.380000000000001,0.8300000000000005,5,4,4,3,9,6,4,3,2,0,13,7,HL,0.28888888888888903,0.34666666666666685,0.34500000000000014,0.2766666666666668
6,11,21,1,10,0.23000000000000007,2,4,96,38,88,90,3.4499999999999753,1.8500000000000014,1.0100000000000007,0.060000000000000005,8,3,3,1,13,3,3,1,3,0.5,23,7,HL,0.2653846153846155,0.616666666666667,0.33666666666666684,0.060000000000000005
6,11,22,1,4,1.1300000000000008,11,12,21,82,15,80,3.5299999999999936,3.0299999999999794,3.1999999999999758,3.569999999999968,16,5,7,9,19,7,11,11,2,0,18,7,HL,0.1857894736842106,0.4328571428571431,0.29090909090909106,0.3245454545454547
6,12,23,1,3,0.48000000000000026,3,4,119,17,25,14,3.449999999999981,0.5700000000000003,0.6600000000000004,0.4400000000000002,7,2,2,2,11,3,2,2,5,0,19,7,HL,0.31363636363636377,0.19000000000000006,0.3300000000000001,0.22000000000000006
6,12,24,1,2,0.2900000000000001,3,4,49,51,38,41,2.7599999999999913,2.9899999999999802,0.3900000000000002,0.19000000000000003,6,5,2,1,9,5,2,1,4,0,18,7,HL,0.3066666666666668,0.5980000000000004,0.19500000000000003,0.19000000000000003
6,13,25,1,3,0.16,2,2,3,54,5,28,10.579999999999822,0.01,0.01,0.01,14,1,1,1,25,1,1,1,5,0,21,7,HL,0.42320000000000024,0.01,0.01,0.01
6,13,26,1,9,0.21000000000000005,2,3,72,13,37,40,9.919999999999838,5.659999999999924,0.01,0.01,15,7,1,1,30,12,1,1,4,0,20,7,HL,0.33066666666666683,0.47166666666666696,0.01,0.01
6,14,27,1,8,0.6700000000000004,7,8,50,57,95,109,4.019999999999973,0.8400000000000005,0.6700000000000004,0.48000000000000026,12,2,4,2,16,2,4,3,2,0,13,7,HL,0.25125000000000014,0.4200000000000002,0.16750000000000007,0.16000000000000003
6,14,28,1,4,0.20000000000000004,3,4,108,106,101,64,4.739999999999948,2.339999999999994,0.36000000000000015,1.7800000000000014,7,3,3,3,9,3,3,3,2,0.5,16,7,HL,0.5266666666666671,0.7800000000000005,0.12000000000000002,0.5933333333333337
6,15,29,1,5,2.909999999999982,5,11,37,112,115,43,4.199999999999983,1.5500000000000012,1.8600000000000014,0.9300000000000006,7,4,4,4,15,11,4,4,5,0,14,7,HL,0.28000000000000014,0.14090909090909096,0.46500000000000025,0.2325000000000001
6,15,30,1,4,0.24000000000000007,2,3,102,107,1,89,3.199999999999981,0.4100000000000002,2.9699999999999807,0.24000000000000007,6,2,2,1,7,2,4,1,2,0,13,7,HL,0.4571428571428574,0.20500000000000002,0.7425000000000005,0.24000000000000007
6,16,31,1,7,0.3300000000000001,2,4,18,24,80,21,2.1300000000000017,1.1800000000000008,1.6100000000000012,0.6800000000000004,4,3,2,4,8,4,3,5,6,0.5,39,7,HL,0.26625000000000015,0.2950000000000001,0.536666666666667,0.13600000000000004
6,16,32,1,3,0.08,2,3,7,26,69,72,3.0999999999999797,0.23000000000000007,0.7200000000000004,0.18000000000000002,7,1,6,2,13,1,8,2,5,0,19,7,HL,0.23846153846153856,0.23000000000000007,0.09000000000000001,0.09
6,17,33,1,1,0.4000000000000002,3,3,68,116,80,71,23.260000000000773,0.01,0.01,1.5100000000000011,20,1,1,2,55,1,1,2,3,0,13,7,HL,0.42290909090909085,0.01,0.01,0.7550000000000004
6,17,34,1,4,0.09,2,3,100,98,35,17,3.459999999999972,5.799999999999921,0.03,0.01,6,10,1,1,7,14,1,1,2,0,15,7,HL,0.4942857142857146,0.41428571428571453,0.03,0.01
6,18,35,1,10,0.34000000000000014,4,4,109,87,39,92,2.839999999999991,0.21000000000000005,1.320000000000001,0.10999999999999999,8,1,3,1,9,1,3,1,3,0,13,7,HL,0.3155555555555557,0.21000000000000005,0.4400000000000002,0.10999999999999999
6,18,36,1,3,0.7500000000000004,10,10,4,3,100,27,5.589999999999941,5.289999999999932,0.01,0.05,16,5,1,1,19,10,1,1,5,0,19,7,HL,0.29421052631578964,0.5290000000000004,0.01,0.05
6,19,37,1,2,0.16,2,3,57,52,24,15,2.4999999999999942,1.6600000000000013,0.8100000000000005,0.09999999999999999,6,3,3,1,9,3,3,1,4,0,20,7,HL,0.2777777777777779,0.5533333333333337,0.2700000000000001,0.09999999999999999
6,19,38,1,3,0.37000000000000016,2,4,35,87,88,36,3.1199999999999855,0.3900000000000002,1.2000000000000008,0.6900000000000004,7,1,5,3,9,1,5,5,5,0,16,7,HL,0.34666666666666685,0.3900000000000002,0.24000000000000007,0.13800000000000007
6,20,39,1,8,0.09999999999999999,2,3,119,65,111,109,2.2299999999999986,2.9299999999999815,0.24000000000000007,0.07,5,5,2,1,6,6,3,1,2,0.5,16,7,HL,0.37166666666666687,0.48833333333333356,0.08,0.07
6,20,40,1,7,0.4200000000000002,2,3,49,18,14,58,3.4099999999999806,4.509999999999948,1.2300000000000009,0.03,7,4,2,1,9,5,2,1,6,0,20,7,HL,0.37888888888888905,0.9019999999999968,0.6150000000000004,0.03
6,21,41,1,3,0.12999999999999998,2,3,25,29,35,106,2.4099999999999953,0.3200000000000001,1.2400000000000009,1.1600000000000008,7,1,3,3,12,1,3,5,5,0.5,32,7,HL,0.20083333333333342,0.3200000000000001,0.41333333333333355,0.2320000000000001
6,21,42,1,5,0.7200000000000004,4,5,94,39,62,45,3.7499999999999796,0.9200000000000006,0.6700000000000004,0.4100000000000002,8,2,2,2,11,2,3,3,5,0,17,7,HL,0.3409090909090911,0.4600000000000002,0.2233333333333334,0.1366666666666667
7,1,1,0,3,0.3200000000000001,2,4,29,6,103,98,2.809999999999991,1.6800000000000013,0.6400000000000003,0.8300000000000005,6,3,1,3,8,3,1,3,5,0,15,7,HL,0.3512500000000002,0.5600000000000003,0.6400000000000003,0.2766666666666668
7,1,2,0,5,0.24000000000000007,2,3,94,48,93,56,4.309999999999958,0.09,0.47000000000000025,0.19000000000000003,7,1,2,1,16,1,3,1,5,0,15,7,HL,0.26937500000000014,0.09,0.1566666666666667,0.19000000000000003
7,2,3,0,2,0.3100000000000001,2,3,82,84,1,51,4.049999999999964,0.7900000000000005,0.24000000000000007,0.05,6,3,2,1,9,4,2,1,4,0,16,7,HL,0.45000000000000023,0.19750000000000004,0.12000000000000001,0.05
7,2,4,0,3,0.5600000000000003,8,9,35,30,96,26,2.0900000000000016,3.9199999999999604,2.289999999999995,0.01,10,5,4,1,11,7,4,1,5,0.5,18,7,HL,0.19000000000000009,0.5600000000000004,0.5725000000000003,0.01
7,3,5,0,8,0.2700000000000001,2,4,12,6,120,45,2.669999999999993,0.35000000000000014,0.26000000000000006,1.5500000000000012,6,1,1,3,9,1,1,3,2,0,19,7,HL,0.2966666666666668,0.35000000000000014,0.26000000000000006,0.5166666666666669
7,3,6,0,2,0.09999999999999999,1,2,52,35,96,91,2.4199999999999946,0.6700000000000004,1.5200000000000011,0.8200000000000005,6,1,3,3,7,1,3,3,4,0,15,7,HL,0.34571428571428586,0.6700000000000004,0.5066666666666669,0.27333333333333343
7,4,7,0,5,0.26000000000000006,2,2,2,64,100,77,22.76000000000072,0.4400000000000002,1.2500000000000009,0.01,20,2,2,1,46,2,4,1,5,0,15,7,HL,0.49478260869565244,0.2200000000000001,0.31250000000000017,0.01
7,4,8,0,3,0.11999999999999998,2,3,31,32,34,55,2.3599999999999963,1.490000000000001,0.35000000000000014,0.09999999999999999,6,5,2,1,8,5,2,1,5,0.5,19,7,HL,0.29500000000000015,0.2980000000000001,0.17500000000000004,0.09999999999999999
7,5,9,0,10,0.3000000000000001,6,7,88,95,39,48,1.8100000000000012,1.2100000000000009,1.410000000000001,0.46000000000000024,9,4,2,1,11,5,2,1,3,0,16,7,HL,0.1645454545454546,0.24200000000000008,0.7050000000000004,0.46000000000000024
7,5,10,0,9,0.2700000000000001,2,3,111,115,69,11,6.029999999999922,0.11999999999999998,0.02,0.02,9,2,1,1,15,2,1,1,4,0,14,7,HL,0.4019999999999994,0.060000000000000005,0.02,0.02
7,6,11,0,10,0.20000000000000004,2,3,43,93,48,11,2.7999999999999887,0.23000000000000007,0.4400000000000002,3.039999999999979,7,1,1,3,9,1,1,3,3,0,19,7,HL,0.3111111111111113,0.23000000000000007,0.4400000000000002,1.013333333333328
7,6,12,0,9,0.38000000000000017,2,4,64,31,68,71,2.7199999999999944,0.5800000000000003,1.480000000000001,0.07,6,1,3,2,11,1,3,2,4,0.5,17,7,HL,0.24727272727272737,0.5800000000000003,0.4933333333333336,0.035
7,7,13,1,10,0.20000000000000004,2,3,47,57,87,111,2.3899999999999975,0.4100000000000002,0.2800000000000001,1.1000000000000008,6,2,1,2,8,3,1,2,3,0,14,7,HL,0.2987500000000001,0.1366666666666667,0.2800000000000001,0.5500000000000003
7,7,14,1,4,0.22000000000000006,2,3,76,99,19,97,4.7099999999999485,1.300000000000001,0.7100000000000004,1.6100000000000012,7,3,1,2,12,4,2,2,2,0,13,7,HL,0.39250000000000024,0.3250000000000002,0.35500000000000015,0.8050000000000006
7,8,15,1,1,0.7000000000000004,2,4,76,80,60,74,3.2899999999999894,0.3900000000000002,1.0600000000000007,1.0300000000000007,5,1,4,2,8,1,6,3,3,0.5,22,7,HL,0.4112500000000002,0.3900000000000002,0.1766666666666667,0.3433333333333335
7,8,16,1,10,0.4400000000000002,8,8,92,93,18,109,3.6299999999999764,1.9000000000000015,0.11999999999999998,1.8500000000000014,11,4,1,5,15,7,1,7,3,0,14,7,HL,0.24200000000000013,0.2714285714285716,0.11999999999999998,0.2642857142857144
7,9,17,1,4,0.15,2,3,82,105,79,81,3.1299999999999804,0.17,0.3100000000000001,0.26000000000000006,4,2,1,1,10,2,1,2,2,0.5,20,7,HL,0.31300000000000017,0.08499999999999999,0.3100000000000001,0.13
7,9,18,1,2,0.9500000000000006,7,7,37,53,52,45,13.569999999999776,0.3100000000000001,0.01,0.01,20,3,1,1,30,3,1,1,4,0,18,7,HL,0.4523333333333336,0.10333333333333335,0.01,0.01
7,10,19,1,7,0.19000000000000003,2,3,76,82,45,97,2.8399999999999874,0.8600000000000005,1.2500000000000009,0.16,7,3,2,1,11,3,2,1,6,0,13,7,HL,0.2581818181818183,0.28666666666666674,0.6250000000000003,0.16
7,10,20,1,3,0.6400000000000003,8,9,36,33,85,96,3.5399999999999823,4.679999999999945,2.4499999999999917,0.01,12,6,4,1,14,7,4,1,5,0,16,7,HL,0.252857142857143,0.668571428571429,0.6125000000000004,0.01
7,11,21,1,5,0.2800000000000001,2,4,38,63,96,61,6.4799999999999125,0.6900000000000004,0.02,1.0000000000000007,12,6,1,3,21,6,1,3,5,0,16,7,HL,0.3085714285714287,0.115,0.02,0.3333333333333335
7,11,22,1,6,0.16,2,3,8,119,29,35,2.2999999999999985,1.480000000000001,0.5000000000000002,0.7500000000000004,5,2,2,2,6,3,2,2,6,0,18,7,HL,0.3833333333333335,0.4933333333333336,0.2500000000000001,0.37500000000000017
7,12,23,1,3,0.4200000000000002,2,4,92,87,31,114,3.0399999999999885,0.8600000000000005,0.5300000000000002,0.12999999999999998,7,2,2,1,10,2,3,1,5,0,13,7,HL,0.30400000000000016,0.4300000000000002,0.17666666666666667,0.12999999999999998
7,12,24,1,5,0.07,2,3,39,75,40,81,1.1100000000000008,2.1399999999999983,0.5100000000000002,0.24000000000000007,4,4,2,1,5,7,2,1,5,0,16,7,HL,0.22200000000000011,0.3057142857142858,0.2550000000000001,0.24000000000000007
7,13,25,1,9,0.2700000000000001,2,4,12,61,45,71,3.419999999999977,0.10999999999999999,4.259999999999954,0.19000000000000003,6,1,4,1,10,1,5,1,4,0,19,7,HL,0.3420000000000002,0.10999999999999999,0.8520000000000006,0.19000000000000003
7,13,26,1,4,0.7100000000000004,12,13,102,36,103,19,1.570000000000001,1.400000000000001,0.15,8.849999999999856,13,2,1,7,14,3,1,12,2,0,15,7,HL,0.11214285714285718,0.4666666666666669,0.15,0.737499999999997
7,14,27,1,6,0.26000000000000006,2,3,6,47,43,111,2.709999999999992,0.3100000000000001,2.06,0.4000000000000002,5,2,3,1,15,2,6,1,6,0,18,7,HL,0.18066666666666673,0.155,0.3433333333333335,0.4000000000000002
7,14,28,1,1,0.45000000000000023,2,2,15,79,60,56,21.480000000000487,0.01,1.5100000000000011,0.01,17,1,2,1,28,1,2,1,3,0,17,7,HL,0.7671428571428558,0.01,0.7550000000000006,0.01
7,15,29,1,4,0.35000000000000014,2,2,2,25,33,101,7.9699999999998825,0.01,0.01,0.34000000000000014,12,1,1,2,18,1,1,2,2,0,18,7,HL,0.442777777777778,0.01,0.01,0.17000000000000007
7,15,30,1,2,0.24000000000000007,2,3,54,44,46,17,2.7699999999999902,0.7800000000000005,0.11999999999999998,0.35000000000000014,6,2,1,2,7,3,1,2,4,0,20,7,HL,0.3957142857142859,0.26000000000000006,0.11999999999999998,0.17500000000000002
7,16,31,1,8,3.7799999999999634,10,19,33,119,26,120,5.229999999999965,2.010000000000001,0.23000000000000007,0.7300000000000004,12,4,1,1,21,5,1,1,2,0,14,7,HL,0.24904761904761916,0.40200000000000025,0.23000000000000007,0.7300000000000004
7,16,32,1,4,1.1700000000000008,4,4,3,80,107,41,2.5500000000000016,1.330000000000001,0.48000000000000026,0.24000000000000007,7,4,2,2,7,4,2,3,2,0,16,7,HL,0.3642857142857145,0.33250000000000013,0.24000000000000005,0.07999999999999999
7,17,33,1,8,0.38000000000000017,5,6,88,59,52,117,3.309999999999982,0.46000000000000024,0.7100000000000004,2.0899999999999994,9,3,2,4,11,3,2,4,2,0,13,7,HL,0.30090909090909107,0.15333333333333338,0.35500000000000015,0.5225000000000003
7,17,34,1,9,0.10999999999999999,2,2,2,82,36,4,13.179999999999765,0.03,0.10999999999999999,0.03,20,1,2,1,35,1,2,1,4,0,20,7,HL,0.3765714285714288,0.03,0.05499999999999999,0.03
7,18,35,1,4,0.09999999999999999,2,3,100,99,102,83,1.360000000000001,1.270000000000001,0.15,2.6099999999999883,6,4,1,4,9,4,1,5,2,0.5,15,7,HL,0.15111111111111117,0.3175000000000001,0.15,0.5219999999999988
7,18,36,1,8,0.45000000000000023,2,5,114,69,32,90,2.2200000000000015,2.769999999999985,0.23000000000000007,1.0400000000000007,4,6,2,2,7,7,2,3,2,0,14,7,HL,0.3171428571428573,0.3957142857142859,0.11500000000000002,0.34666666666666685
7,19,37,1,4,0.2700000000000001,2,4,104,103,95,100,3.1499999999999826,2.3599999999999937,0.07,0.08,6,5,1,1,11,5,1,1,2,0.5,15,7,HL,0.2863636363636365,0.4720000000000003,0.07,0.08
7,19,38,1,2,0.3000000000000001,3,4,46,78,57,109,3.0599999999999854,0.4200000000000002,3.519999999999969,0.25000000000000006,8,2,7,1,11,2,7,1,4,0,14,7,HL,0.2781818181818183,0.21000000000000002,0.5028571428571431,0.25000000000000006
7,20,39,1,10,0.09999999999999999,1,2,88,72,71,116,1.0300000000000007,4.239999999999954,1.2100000000000009,0.02,3,6,4,1,4,7,5,1,3,0,13,7,HL,0.2575000000000001,0.6057142857142861,0.2420000000000001,0.02
7,20,40,1,5,0.3300000000000001,2,3,45,103,59,19,2.6999999999999935,1.2000000000000008,0.20000000000000004,0.4300000000000002,6,3,1,1,7,3,1,1,5,0,17,7,HL,0.3857142857142859,0.4000000000000002,0.20000000000000004,0.4300000000000002
7,21,41,1,5,0.4000000000000002,2,3,98,49,99,108,3.4499999999999793,0.48000000000000026,0.24000000000000007,1.2500000000000009,9,2,1,3,13,2,1,5,5,0.5,16,7,HL,0.2653846153846155,0.24000000000000005,0.24000000000000007,0.2500000000000001
7,21,42,1,9,0.6700000000000004,11,13,70,3,33,27,1.8700000000000012,2.109999999999999,0.3000000000000001,0.21000000000000005,12,4,1,1,14,5,1,1,4,0,20,7,HL,0.13357142857142865,0.4220000000000002,0.3000000000000001,0.21000000000000005
8,1,1,0,3,0.26000000000000006,2,5,26,33,30,102,3.309999999999979,2.2799999999999954,1.440000000000001,0.23000000000000007,8,7,4,1,13,9,6,1,5,0.5,17,7,HL,0.25461538461538474,0.2533333333333334,0.2400000000000001,0.23000000000000007
8,1,2,0,6,0.24000000000000007,2,3,4,1,3,77,1.610000000000001,3.5899999999999674,7.839999999999877,0.01,4,6,7,1,5,8,12,1,6,0.5,21,7,HL,0.3220000000000002,0.44875000000000026,0.6533333333333327,0.01
8,2,3,0,4,0.3300000000000001,2,6,98,78,81,74,4.669999999999952,0.8400000000000005,0.3000000000000001,0.6300000000000003,12,2,1,2,24,2,1,2,2,0.5,11,7,HL,0.1945833333333334,0.4200000000000002,0.3000000000000001,0.3150000000000001
8,2,4,0,9,0.25000000000000006,2,4,67,94,21,31,1.4000000000000008,3.4999999999999694,2.4499999999999917,0.48000000000000026,4,7,3,2,6,9,3,2,4,0,18,7,HL,0.23333333333333348,0.38888888888888906,0.8166666666666672,0.24000000000000005
8,3,5,0,5,0.22000000000000006,2,3,4,45,12,6,5.229999999999937,0.8400000000000005,0.46000000000000024,0.8300000000000005,10,3,3,2,14,3,3,3,5,0.5,23,7,HL,0.37357142857142817,0.28000000000000014,0.15333333333333338,0.2766666666666668
8,3,6,0,7,0.37000000000000016,2,3,31,26,20,85,3.699999999999973,2.429999999999992,0.060000000000000005,0.24000000000000007,6,4,1,1,12,4,1,2,6,0,19,7,HL,0.30833333333333346,0.6075000000000004,0.060000000000000005,0.12000000000000001
8,4,7,0,4,0.2900000000000001,2,3,93,64,106,11,2.2500000000000018,2.1299999999999986,0.10999999999999999,0.2700000000000001,5,4,1,1,7,5,1,1,2,0,15,7,HL,0.32142857142857156,0.4260000000000002,0.10999999999999999,0.2700000000000001
8,4,8,0,5,0.37000000000000016,2,3,38,13,46,44,2.350000000000002,3.8299999999999623,0.03,2.769999999999985,5,5,1,6,7,7,1,6,5,0.5,21,7,HL,0.33571428571428585,0.5471428571428575,0.03,0.4616666666666669
8,5,9,0,8,0.20000000000000004,2,3,120,8,45,77,2.27,35.74000000000146,0.01,0.01,4,19,1,1,7,78,1,1,2,0,16,7,HL,0.32428571428571445,0.45820512820512843,0.01,0.01
8,5,10,0,3,0.48000000000000026,7,8,94,68,22,29,3.6599999999999766,1.320000000000001,0.2900000000000001,0.04,12,3,1,1,14,5,1,1,5,0,18,7,HL,0.26142857142857157,0.26400000000000007,0.2900000000000001,0.04
8,6,11,0,1,0.7700000000000005,2,5,73,31,3,57,3.0099999999999967,1.7600000000000013,1.380000000000001,3.47999999999997,5,5,4,5,9,5,4,7,3,0,18,7,HL,0.3344444444444446,0.35200000000000015,0.34500000000000014,0.49714285714285744
8,6,12,0,7,0.19000000000000003,2,3,40,37,22,17,4.389999999999955,3.7799999999999634,0.5500000000000003,1.8400000000000014,9,4,4,3,13,5,4,3,6,0,22,7,HL,0.33769230769230785,0.7560000000000006,0.1375,0.6133333333333338
8,7,13,1,1,0.6500000000000004,2,3,4,70,74,12,12.019999999999802,0.01,0.01,0.05,15,1,1,1,31,1,1,1,3,0,19,7,HL,0.38774193548387115,0.01,0.01,0.05
8,7,14,1,3,0.25000000000000006,2,4,15,36,49,24,18.109999999999992,0.01,0.01,0.01,15,1,1,1,39,1,1,1,5,0,21,7,HL,0.4643589743589746,0.01,0.01,0.01
8,8,15,1,9,0.10999999999999999,2,2,1,35,76,78,12.139999999999787,0.01,0.01,0.01,16,1,1,1,29,1,1,1,4,0,17,7,HL,0.41862068965517263,0.01,0.01,0.01
8,8,16,1,7,1.1300000000000008,4,7,49,41,51,24,2.650000000000002,2.909999999999982,0.07,1.0900000000000007,7,5,1,3,10,6,1,5,6,0,19,7,HL,0.2650000000000001,0.48500000000000026,0.07,0.21800000000000005
8,9,17,1,9,0.3100000000000001,2,4,89,66,61,71,2.599999999999995,0.3000000000000001,0.2800000000000001,0.3100000000000001,5,1,1,2,13,1,1,2,4,0.5,27,7,HL,0.20000000000000007,0.3000000000000001,0.2800000000000001,0.15500000000000003
8,9,18,1,5,0.45000000000000023,2,3,42,41,77,39,3.3999999999999813,0.26000000000000006,0.3100000000000001,0.3900000000000002,7,2,1,2,11,2,1,2,5,0.5,33,7,HL,0.30909090909090925,0.13000000000000003,0.3100000000000001,0.19500000000000003
8,10,19,1,7,0.17,2,3,21,20,58,82,2.5699999999999927,2.0799999999999996,2.389999999999993,0.10999999999999999,6,7,3,1,8,8,4,1,6,0,19,7,HL,0.32125000000000015,0.2600000000000001,0.5975000000000004,0.10999999999999999
8,10,20,1,9,0.18000000000000002,2,3,11,28,61,97,5.6999999999999265,0.07,0.03,0.34000000000000014,8,1,1,1,10,1,1,1,4,0,17,7,HL,0.5700000000000001,0.07,0.03,0.34000000000000014
8,11,21,1,5,0.22000000000000006,2,3,37,84,53,43,3.0599999999999836,1.0500000000000007,0.3100000000000001,0.10999999999999999,8,1,2,1,12,1,2,1,5,0,17,7,HL,0.2550000000000001,1.0500000000000007,0.155,0.10999999999999999
8,11,22,1,10,0.9800000000000006,4,7,68,62,96,67,3.749999999999986,0.23000000000000007,0.18000000000000002,0.2800000000000001,7,1,1,1,13,1,1,1,3,0.5,27,7,HL,0.2884615384615386,0.23000000000000007,0.18000000000000002,0.2800000000000001
8,12,23,1,4,0.46000000000000024,2,3,68,70,71,32,4.729999999999953,0.4400000000000002,0.3000000000000001,0.11999999999999998,9,1,1,1,14,1,1,1,2,0.5,29,7,HL,0.337857142857143,0.4400000000000002,0.3000000000000001,0.11999999999999998
8,12,24,1,10,0.08,2,2,15,39,91,24,17.259999999999884,0.01,0.01,0.01,16,1,1,1,27,1,1,1,3,0,20,7,HL,0.6392592592592593,0.01,0.01,0.01
8,13,25,1,5,0.25000000000000006,2,3,45,103,106,86,3.4999999999999747,0.3300000000000001,0.35000000000000014,0.19000000000000003,8,1,2,1,15,1,2,1,5,0,12,7,HL,0.23333333333333342,0.3300000000000001,0.17500000000000002,0.19000000000000003
8,13,26,1,2,4.089999999999957,7,14,16,13,109,83,5.229999999999958,0.5200000000000002,1.6300000000000012,0.38000000000000017,10,1,3,2,18,1,6,2,4,0,17,7,HL,0.29055555555555573,0.5200000000000002,0.2716666666666668,0.19000000000000003
8,14,27,1,2,0.6500000000000004,2,3,60,31,78,79,4.029999999999973,0.38000000000000017,0.5100000000000002,0.8100000000000005,7,1,2,2,9,1,2,2,4,0,15,7,HL,0.44777777777777805,0.38000000000000017,0.2550000000000001,0.40500000000000025
8,14,28,1,10,0.46000000000000024,2,3,118,2,94,89,4.499999999999958,0.15,0.22000000000000006,0.22000000000000006,7,1,1,1,13,1,1,1,3,0,14,7,HL,0.3461538461538463,0.15,0.22000000000000006,0.22000000000000006
8,15,29,1,4,0.11999999999999998,2,3,61,97,99,101,2.8799999999999852,0.12999999999999998,0.4400000000000002,2.0799999999999996,5,1,2,5,8,1,3,5,2,0.5,16,7,HL,0.3600000000000002,0.12999999999999998,0.14666666666666667,0.4160000000000002
8,15,30,1,5,0.26000000000000006,2,3,5,38,4,88,3.5399999999999743,1.470000000000001,8.839999999999856,0.01,8,3,9,1,11,3,15,1,5,0,20,7,HL,0.32181818181818195,0.49000000000000027,0.5893333333333337,0.01
8,16,31,1,6,0.13999999999999999,2,3,43,6,42,40,1.570000000000001,0.8500000000000005,1.340000000000001,2.669999999999987,4,3,3,6,5,4,4,7,6,0.5,36,7,HL,0.31400000000000017,0.21250000000000008,0.33500000000000013,0.3814285714285716
8,16,32,1,9,3.7199999999999647,5,11,94,64,22,20,4.819999999999966,0.6000000000000003,0.3900000000000002,2.52999999999999,7,1,1,6,13,1,1,7,4,0,19,7,HL,0.37076923076923096,0.6000000000000003,0.3900000000000002,0.3614285714285716
8,17,33,1,2,0.4000000000000002,2,3,32,25,115,110,8.649999999999869,0.01,0.060000000000000005,0.09,14,1,1,1,19,1,1,1,4,0,14,7,HL,0.4552631578947371,0.01,0.060000000000000005,0.09
8,17,34,1,1,0.2900000000000001,3,4,102,82,108,41,5.8699999999999255,0.04,0.05,0.36000000000000015,10,1,1,1,14,1,1,1,3,0,12,7,HL,0.41928571428571215,0.04,0.05,0.36000000000000015
8,18,35,1,2,0.19000000000000003,2,3,105,50,18,59,5.029999999999942,0.16,0.02,0.04,6,1,1,1,10,1,1,1,4,0,16,7,HL,0.5030000000000001,0.16,0.02,0.04
8,18,36,1,6,0.8100000000000005,9,10,10,9,6,12,6.499999999999924,0.05,2.53999999999999,2.1299999999999986,17,1,10,7,20,1,11,10,6,1,72,7,HL,0.3250000000000002,0.05,0.23090909090909098,0.21300000000000008
8,19,37,1,9,0.23000000000000007,2,5,106,98,69,72,2.4199999999999973,0.7100000000000004,0.3000000000000001,0.36000000000000015,5,2,1,1,9,2,1,1,4,0,12,7,HL,0.268888888888889,0.35500000000000015,0.3000000000000001,0.36000000000000015
8,19,38,1,5,0.6700000000000004,3,4,74,81,116,120,2.4300000000000015,1.9300000000000015,0.2700000000000001,0.3000000000000001,6,3,2,1,8,5,2,1,5,0,10,7,HL,0.30375000000000013,0.3860000000000002,0.13500000000000004,0.3000000000000001
8,20,39,1,4,1.410000000000001,8,12,104,79,97,80,2.1400000000000015,2.239999999999996,0.15,0.15,10,3,1,2,16,4,1,2,2,0,10,7,HL,0.13375000000000004,0.5600000000000003,0.15,0.07499999999999998
8,20,40,1,6,0.5900000000000003,3,4,4,49,9,8,11.999999999999801,0.01,0.12999999999999998,0.3100000000000001,18,1,1,2,28,1,1,2,6,0.5,40,7,HL,0.42857142857142877,0.01,0.12999999999999998,0.15500000000000005
8,21,41,1,3,0.2700000000000001,2,3,31,26,62,72,1.610000000000001,0.9000000000000006,0.38000000000000017,3.47999999999997,4,2,2,5,5,3,2,5,5,0,18,7,HL,0.3220000000000002,0.3000000000000001,0.19000000000000006,0.6960000000000004
8,21,42,1,7,0.23000000000000007,2,3,15,14,20,40,0.7800000000000004,0.6700000000000004,0.24000000000000007,1.330000000000001,4,2,1,3,5,2,1,5,6,0.5,41,7,HL,0.15600000000000006,0.33500000000000013,0.24000000000000007,0.26600000000000007
9,1,1,0,6,0.2700000000000001,2,3,4,2,66,105,1.670000000000001,8.19999999999987,0.8700000000000006,0.3100000000000001,5,15,4,1,8,27,5,1,6,0,18,7,HL,0.20875000000000007,0.30370370370370386,0.17400000000000004,0.3100000000000001
9,1,2,0,8,0.26000000000000006,2,3,109,111,49,24,3.699999999999971,0.5000000000000002,0.6400000000000003,1.9800000000000015,10,2,2,1,15,3,2,1,2,0,14,7,HL,0.24666666666666676,0.1666666666666667,0.3200000000000001,1.9800000000000015
9,2,3,0,2,0.2900000000000001,2,4,49,60,14,89,2.5599999999999956,1.7300000000000013,3.2699999999999743,0.2800000000000001,5,3,4,1,8,9,10,1,4,0,17,7,HL,0.3200000000000002,0.19222222222222227,0.3270000000000001,0.2800000000000001
9,2,4,0,6,0.2900000000000001,2,3,7,8,4,98,2.1700000000000017,0.7900000000000005,1.410000000000001,2.5199999999999902,5,2,3,5,7,2,5,6,6,0.5,20,7,HL,0.31000000000000016,0.3950000000000002,0.2820000000000001,0.4200000000000002
9,3,5,0,5,0.5200000000000002,2,5,43,117,44,47,2.4200000000000017,2.099999999999999,1.1400000000000008,0.09,5,5,2,1,9,6,4,1,5,0.5,17,7,HL,0.268888888888889,0.35000000000000014,0.28500000000000014,0.09
9,3,6,0,9,0.26000000000000006,2,3,62,100,64,71,2.4999999999999964,1.9900000000000015,0.5500000000000003,1.6700000000000013,5,3,2,3,15,7,6,6,4,0.5,14,7,HL,0.1666666666666667,0.2842857142857144,0.09166666666666669,0.2783333333333335
9,4,7,0,2,0.3100000000000001,2,3,49,116,48,45,1.3200000000000007,3.419999999999971,0.5700000000000003,0.22000000000000006,3,4,2,1,4,8,3,1,4,0,16,7,HL,0.3300000000000002,0.4275000000000002,0.19000000000000006,0.22000000000000006
9,4,8,0,9,0.5400000000000003,8,8,64,69,65,1,2.540000000000002,1.270000000000001,1.7900000000000014,1.1400000000000008,11,2,4,3,15,7,7,4,4,0.5,18,7,HL,0.1693333333333334,0.18142857142857147,0.25571428571428584,0.2850000000000001
9,5,9,0,10,0.25000000000000006,2,3,61,2,47,37,3.679999999999971,1.400000000000001,0.26000000000000006,0.2900000000000001,8,2,2,2,11,3,2,2,3,0,20,7,HL,0.3345454545454547,0.4666666666666669,0.13,0.145
9,5,10,0,4,0.9100000000000006,17,19,106,104,82,77,2.0500000000000016,1.0700000000000007,2.7799999999999847,1.1200000000000008,20,3,2,4,22,4,2,6,2,0,10,7,HL,0.09318181818181821,0.2675000000000001,1.390000000000001,0.18666666666666673
9,6,11,0,9,0.5000000000000002,2,4,90,1,68,95,3.5499999999999794,1.330000000000001,0.3100000000000001,0.6200000000000003,6,3,2,3,10,4,2,3,4,0,16,7,HL,0.35500000000000015,0.33250000000000013,0.15500000000000003,0.20666666666666675
9,6,12,0,1,0.8000000000000005,7,8,77,44,80,37,3.6599999999999833,0.8300000000000005,0.6600000000000004,0.46000000000000024,13,1,3,1,16,1,4,1,3,0,16,7,HL,0.2287500000000001,0.8300000000000005,0.16500000000000004,0.46000000000000024
9,7,13,1,2,0.34000000000000014,5,7,38,37,50,54,1.9100000000000013,1.6600000000000013,0.8000000000000005,0.24000000000000007,7,3,2,2,14,4,2,2,4,0,18,7,HL,0.13642857142857148,0.41500000000000026,0.40000000000000024,0.12000000000000001
9,7,14,1,4,0.09999999999999999,2,2,14,99,107,24,6.649999999999904,0.03,0.02,1.270000000000001,10,1,1,3,28,1,1,3,2,0,16,7,HL,0.23750000000000007,0.03,0.02,0.4233333333333336
9,8,15,1,2,0.18000000000000002,1,2,51,102,50,98,4.349999999999955,0.49000000000000027,0.47000000000000025,0.21000000000000005,8,1,3,1,15,1,3,1,4,0,12,7,HL,0.29000000000000015,0.49000000000000027,0.15666666666666668,0.21000000000000005
9,8,16,1,10,0.4400000000000002,2,6,96,91,43,94,1.9500000000000013,0.6400000000000003,1.400000000000001,0.25000000000000006,5,1,4,1,10,1,4,1,3,0.5,23,7,HL,0.19500000000000006,0.6400000000000003,0.35000000000000014,0.25000000000000006
9,9,17,1,10,0.38000000000000017,2,3,89,97,12,85,4.119999999999965,1.8900000000000015,1.1600000000000008,0.05,10,4,4,2,14,9,4,2,3,0,14,7,HL,0.29428571428571443,0.21000000000000008,0.29000000000000015,0.025
9,9,18,1,9,0.3900000000000002,2,5,65,23,69,16,1.5000000000000009,1.6400000000000012,1.2200000000000009,0.46000000000000024,4,2,6,2,7,4,6,3,4,0,20,7,HL,0.21428571428571436,0.41000000000000025,0.2033333333333334,0.15333333333333335
9,10,19,1,8,0.2700000000000001,2,4,120,46,117,41,2.569999999999995,2.2699999999999956,0.16,0.8500000000000005,6,4,3,3,11,6,3,4,2,0,14,7,HL,0.23363636363636373,0.3783333333333335,0.05333333333333333,0.21250000000000008
9,10,20,1,3,0.26000000000000006,2,3,102,98,31,103,4.569999999999952,1.2000000000000008,0.2900000000000001,0.20000000000000004,11,2,2,1,18,2,2,1,5,0.5,17,7,HL,0.253888888888889,0.6000000000000003,0.14500000000000005,0.20000000000000004
9,11,21,1,2,0.25000000000000006,2,3,57,50,60,58,2.1500000000000017,2.199999999999997,0.38000000000000017,1.6200000000000012,6,4,3,6,11,6,4,7,4,1,48,7,HL,0.1954545454545455,0.36666666666666686,0.095,0.2314285714285715
9,11,22,1,1,0.24000000000000007,2,4,80,63,84,75,1.8800000000000012,1.390000000000001,2.2799999999999954,0.13999999999999999,5,2,3,2,10,4,4,2,3,0.5,22,7,HL,0.18800000000000008,0.34750000000000014,0.57,0.07
9,12,23,1,2,0.19000000000000003,3,4,58,43,44,112,1.2900000000000007,2.7999999999999843,2.4499999999999917,0.7000000000000004,5,3,6,3,7,7,6,3,4,0,16,7,HL,0.18428571428571436,0.4000000000000002,0.40833333333333355,0.23333333333333345
9,12,24,1,1,0.20000000000000004,1,2,84,74,61,63,2.5399999999999943,0.9200000000000006,0.4400000000000002,0.5700000000000003,5,4,2,3,10,6,4,4,3,0,14,7,HL,0.2540000000000001,0.15333333333333338,0.10999999999999999,0.14250000000000002
9,13,25,1,4,0.46000000000000024,2,3,33,81,20,102,6.989999999999905,0.47000000000000025,3.279999999999974,0.01,9,2,5,1,23,2,6,1,2,0,16,7,HL,0.30391304347826104,0.2350000000000001,0.546666666666667,0.01
9,13,26,1,10,0.17,2,3,93,86,89,111,2.5699999999999927,0.9500000000000006,0.4000000000000002,1.2000000000000008,7,3,2,2,15,4,3,2,3,0.5,20,7,HL,0.1713333333333334,0.23750000000000004,0.13333333333333336,0.6000000000000003
9,14,27,1,6,0.07,2,2,4,76,8,10,17.689999999999955,0.02,0.01,0.6100000000000003,18,1,1,2,43,1,1,3,6,0.5,39,7,HL,0.41139534883720946,0.02,0.01,0.20333333333333342
9,14,28,1,2,0.3100000000000001,2,3,47,19,56,58,3.869999999999968,1.0400000000000007,0.15,0.08,7,2,2,1,15,5,2,1,4,0,19,7,HL,0.2580000000000001,0.20800000000000007,0.075,0.08
9,15,29,1,1,0.7100000000000004,3,5,67,79,20,82,2.879999999999998,2.759999999999985,0.3900000000000002,0.12999999999999998,8,5,2,1,13,8,3,1,3,0,16,7,HL,0.22153846153846163,0.34500000000000014,0.13000000000000003,0.12999999999999998
9,15,30,1,2,0.45000000000000023,2,3,41,49,59,56,1.8100000000000012,0.7700000000000005,1.2500000000000009,0.3000000000000001,4,1,4,1,7,1,6,1,4,0.5,29,7,HL,0.2585714285714287,0.7700000000000005,0.2083333333333334,0.3000000000000001
9,16,31,1,4,0.20000000000000004,2,3,66,106,4,64,2.8599999999999874,1.7800000000000014,0.3200000000000001,0.3200000000000001,7,7,2,2,12,8,3,2,2,0,16,7,HL,0.23833333333333342,0.2225000000000001,0.10666666666666666,0.16
9,16,32,1,1,0.46000000000000024,2,3,82,74,39,55,4.839999999999951,0.18000000000000002,0.3000000000000001,0.4100000000000002,10,1,2,2,13,1,4,2,3,0,15,7,HL,0.3723076923076925,0.18000000000000002,0.075,0.20500000000000007
9,17,33,1,6,1.1700000000000008,2,4,2,1,40,11,10.669999999999842,10.359999999999824,0.01,0.02,13,13,1,1,30,22,1,1,6,0.5,41,7,HL,0.35566666666666624,0.47090909090909117,0.01,0.02
9,17,34,1,8,0.25000000000000006,3,5,111,85,118,86,3.9799999999999645,0.6000000000000003,0.7200000000000004,1.1600000000000008,11,2,3,2,18,5,5,2,2,0,10,7,HL,0.2211111111111112,0.12000000000000002,0.14400000000000004,0.5800000000000004
9,18,35,1,6,0.49000000000000027,2,3,109,11,115,8,5.809999999999931,0.7300000000000004,1.300000000000001,2.0799999999999996,6,5,4,7,13,5,7,9,6,0,16,7,HL,0.4469230769230772,0.14600000000000002,0.18571428571428578,0.23111111111111118
9,18,36,1,7,0.3000000000000001,2,3,91,86,53,25,1.8100000000000012,1.5300000000000011,1.450000000000001,0.8800000000000006,4,4,3,2,6,4,4,4,6,0,15,7,HL,0.3016666666666668,0.3825000000000002,0.3625000000000002,0.22000000000000006
9,19,37,1,1,0.24000000000000007,2,3,19,81,60,77,3.4499999999999758,0.34000000000000014,1.7400000000000013,0.07,9,2,4,1,11,4,6,1,3,0,16,7,HL,0.3136363636363638,0.085,0.29000000000000015,0.07
9,19,38,1,9,0.22000000000000006,3,4,71,39,63,10,2.709999999999991,2.2299999999999964,1.6500000000000012,1.2400000000000009,8,4,3,4,13,9,3,4,4,0,19,7,HL,0.20846153846153856,0.24777777777777787,0.5500000000000004,0.3100000000000001
9,20,39,1,2,0.2900000000000001,2,3,29,83,17,34,5.16999999999994,0.15,0.8100000000000005,0.22000000000000006,6,1,3,1,13,2,6,1,4,0,19,7,HL,0.3976923076923072,0.07500000000000001,0.135,0.22000000000000006
9,20,40,1,5,0.3300000000000001,2,5,37,10,3,39,3.1799999999999833,1.9100000000000015,0.8100000000000005,1.8800000000000014,7,2,4,4,10,2,4,5,5,0,22,7,HL,0.31800000000000017,0.9550000000000006,0.20250000000000007,0.3760000000000002
9,21,41,1,3,0.4000000000000002,7,7,32,103,63,96,6.459999999999916,4.229999999999954,2.1199999999999988,2.0899999999999994,15,5,5,4,25,6,7,4,5,0,14,7,HL,0.25840000000000013,0.7050000000000005,0.302857142857143,0.5225000000000003
9,21,42,1,6,1.0700000000000007,2,5,11,39,42,4,5.50999999999995,0.4000000000000002,0.37000000000000016,7.439999999999886,10,2,2,9,17,2,5,20,6,0,22,7,HL,0.3241176470588237,0.20000000000000004,0.074,0.37200000000000016
10,1,1,0,4,0.26000000000000006,2,3,101,98,80,99,9.919999999999838,3.759999999999964,2.7999999999999843,0.12999999999999998,11,7,4,1,31,10,5,1,2,0.5,9,6,HL,0.32000000000000006,0.37600000000000017,0.5600000000000003,0.12999999999999998
10,1,2,0,3,0.2900000000000001,2,3,26,51,28,36,8.259999999999875,1.0700000000000007,2.6899999999999866,0.2900000000000001,9,1,5,1,15,1,8,1,5,0.5,19,6,HL,0.5506666666666659,1.0700000000000007,0.33625000000000016,0.2900000000000001
10,2,3,0,1,0.3100000000000001,2,3,77,78,116,110,4.999999999999945,8.799999999999857,9.639999999999839,5.479999999999928,7,11,10,8,13,19,25,15,3,0,10,6,HL,0.3846153846153848,0.4631578947368423,0.3856000000000002,0.3653333333333335
10,2,4,0,7,0.3900000000000002,2,4,16,22,105,21,13.27999999999977,0.8000000000000005,11.559999999999798,2.099999999999999,15,3,11,4,36,3,31,10,6,0.5,20,6,HL,0.36888888888888904,0.2666666666666668,0.3729032258064518,0.21000000000000008
10,3,5,0,9,0.35000000000000014,2,4,66,33,71,72,8.899999999999862,3.8699999999999615,3.089999999999978,0.21000000000000005,11,4,6,2,32,12,11,2,4,0.5,17,6,HL,0.2781250000000001,0.3225000000000002,0.280909090909091,0.105
10,3,6,0,4,0.6900000000000004,8,9,102,99,101,95,9.199999999999864,3.749999999999964,5.429999999999929,2.569999999999989,20,9,11,4,40,9,16,4,2,0.5,9,6,HL,0.2300000000000001,0.41666666666666685,0.33937500000000015,0.6425000000000004
10,4,7,0,8,0.2800000000000001,3,4,27,120,83,84,11.769999999999799,1.1000000000000008,3.2499999999999747,0.5100000000000002,13,3,4,1,23,4,7,1,2,0,13,6,HL,0.5117391304347825,0.2750000000000001,0.4642857142857145,0.5100000000000002
10,4,8,0,7,0.2900000000000001,2,3,21,19,64,96,6.839999999999905,1.7100000000000013,11.059999999999809,2.489999999999991,11,3,13,5,17,4,33,8,6,0,19,6,HL,0.4023529411764708,0.4275000000000002,0.3351515151515153,0.31125000000000014
10,5,9,0,1,0.38000000000000017,2,3,74,19,79,17,12.77999999999978,0.8100000000000005,0.2900000000000001,1.0900000000000007,13,4,1,3,31,5,1,4,3,0,18,6,HL,0.4122580645161289,0.16200000000000006,0.2900000000000001,0.2725000000000001
10,5,10,0,6,0.23000000000000007,2,3,4,5,90,2,9.82999999999984,0.3300000000000001,2.4199999999999924,3.5799999999999677,11,1,3,5,25,1,3,9,6,0.5,21,6,HL,0.3932000000000002,0.3300000000000001,0.8066666666666672,0.39777777777777795
10,6,11,1,9,0.8000000000000005,9,9,87,65,67,4,13.979999999999764,5.81999999999992,0.07,4.089999999999957,20,7,1,7,40,17,1,9,4,0,17,6,HL,0.34950000000000014,0.34235294117647075,0.07,0.4544444444444447
10,6,12,1,7,0.5100000000000002,2,3,14,79,24,17,11.299999999999814,2.5199999999999902,1.1500000000000008,0.8500000000000005,12,5,2,3,35,6,2,7,6,0.5,39,6,HL,0.322857142857143,0.4200000000000002,0.5750000000000003,0.12142857142857144
10,7,13,1,5,0.25000000000000006,2,4,45,39,37,77,7.589999999999888,0.7400000000000004,3.039999999999979,0.5000000000000002,13,2,8,2,23,2,12,2,5,0.5,33,6,HL,0.3300000000000002,0.37000000000000016,0.2533333333333334,0.2500000000000001
10,7,14,1,3,0.3900000000000002,2,6,31,34,28,26,10.629999999999827,0.5200000000000002,1.0400000000000007,7.979999999999874,15,1,3,12,29,1,4,24,5,1,60,6,HL,0.36655172413793125,0.5200000000000002,0.26000000000000006,0.33250000000000013
10,8,15,1,9,0.11999999999999998,2,2,2,65,68,84,23.440000000000847,0.38000000000000017,0.04,1.390000000000001,20,2,1,4,66,2,1,5,4,0,17,6,HL,0.35515151515151533,0.19000000000000006,0.04,0.27800000000000014
10,8,16,1,10,0.2800000000000001,2,4,93,96,13,46,9.80999999999984,1.5900000000000012,2.0899999999999994,1.8700000000000014,11,4,2,4,26,4,2,5,3,0,17,6,HL,0.3773076923076925,0.3975000000000002,1.0450000000000008,0.37400000000000017
10,9,17,1,7,0.8000000000000005,2,4,46,44,80,43,9.719999999999855,5.299999999999931,5.5799999999999255,0.08,13,5,7,1,30,12,14,1,6,0.5,33,6,HL,0.3240000000000002,0.44166666666666693,0.39857142857142874,0.08
10,9,18,1,10,0.47000000000000025,2,5,89,12,5,117,8.66999999999987,13.669999999999753,1.430000000000001,0.060000000000000005,14,15,3,1,24,31,3,1,3,0,17,6,HL,0.3612500000000002,0.4409677419354841,0.4766666666666669,0.060000000000000005
10,10,19,1,4,0.4100000000000002,2,5,101,103,91,98,6.999999999999904,12.549999999999777,0.9400000000000006,3.0199999999999796,11,13,3,7,24,39,4,11,2,0.5,15,6,HL,0.2916666666666668,0.32179487179487193,0.23500000000000007,0.27454545454545465
10,10,20,1,5,0.2700000000000001,3,4,45,113,111,61,2.4499999999999975,1.1400000000000008,5.5799999999999255,1.0800000000000007,5,1,6,2,6,2,12,2,5,0,13,6,HL,0.4083333333333331,0.5700000000000003,0.46500000000000025,0.5400000000000004
10,11,21,1,8,0.7700000000000005,2,3,70,43,109,45,10.88999999999983,4.839999999999941,1.6400000000000012,0.7800000000000005,12,9,4,4,21,17,5,4,2,0,16,6,HL,0.5185714285714289,0.2847058823529413,0.3280000000000002,0.19500000000000006
10,11,22,1,3,0.2700000000000001,2,3,36,28,102,33,8.059999999999878,1.1900000000000008,5.169999999999934,2.9299999999999815,14,3,5,9,30,3,11,12,5,0.5,32,6,HL,0.2686666666666668,0.39666666666666683,0.47000000000000025,0.24416666666666678
10,12,23,1,1,0.22000000000000006,2,5,74,35,82,29,2.8299999999999885,11.259999999999804,1.5500000000000012,0.5000000000000002,5,10,5,2,9,27,5,2,3,0,16,6,HL,0.31444444444444464,0.4170370370370364,0.3100000000000001,0.25000000000000006
10,12,24,1,2,0.26000000000000006,4,4,16,23,90,24,23.120000000000775,0.5500000000000003,1.6000000000000012,0.09999999999999999,20,1,3,1,62,1,3,1,4,0.5,39,6,HL,0.3729032258064518,0.5500000000000003,0.5333333333333337,0.09999999999999999
10,13,25,1,9,0.7900000000000005,6,8,63,70,28,27,3.1399999999999944,10.239999999999826,1.1000000000000008,4.289999999999953,9,12,3,8,14,28,4,10,4,0,18,6,HL,0.22428571428571437,0.3657142857142859,0.27500000000000013,0.4290000000000002
10,13,26,1,4,0.25000000000000006,2,4,107,101,103,105,7.999999999999879,7.099999999999893,0.4300000000000002,6.439999999999907,13,13,3,11,33,25,3,17,2,1,24,6,HL,0.24242424242424251,0.28400000000000014,0.14333333333333334,0.3788235294117649
10,14,27,1,7,0.26000000000000006,2,4,22,17,64,92,2.79999999999999,1.9000000000000015,32.20000000000216,0.04,5,3,18,1,8,7,69,1,6,0,19,6,HL,0.3500000000000002,0.2714285714285715,0.46666666666666684,0.04
10,14,28,1,5,0.3300000000000001,2,3,42,45,4,11,6.869999999999905,4.139999999999956,5.659999999999924,0.6900000000000004,12,8,6,1,22,8,12,1,5,0,22,6,HL,0.3122727272727274,0.5175000000000003,0.4716666666666669,0.6900000000000004
10,15,29,1,2,0.16,2,2,15,92,30,34,52.279999999998196,0.01,0.01,0.03,20,1,1,1,142,1,1,1,4,0,19,6,HL,0.3681690140845072,0.01,0.01,0.03
10,15,30,1,1,0.45000000000000023,2,4,84,74,43,66,10.859999999999824,1.1300000000000008,1.5400000000000011,1.8200000000000014,13,2,4,3,33,5,5,3,3,0,15,6,HL,0.32909090909090927,0.22600000000000006,0.3080000000000001,0.606666666666667
10,16,31,1,6,0.13999999999999999,2,3,3,10,63,47,55.73999999999751,0.01,0.01,0.01,20,1,1,1,141,1,1,1,6,0,21,6,HL,0.39531914893617026,0.01,0.01,0.01
10,16,32,1,7,0.15,1,2,13,74,107,108,30.720000000001978,0.02,0.13999999999999999,0.03,20,1,1,1,78,1,1,1,6,0,13,6,HL,0.393846153846154,0.02,0.13999999999999999,0.03
10,17,33,1,9,0.22000000000000006,2,3,61,67,5,70,11.159999999999812,1.1500000000000008,1.8700000000000014,0.3900000000000002,9,4,5,2,28,5,7,2,4,0.5,30,6,HL,0.3985714285714288,0.2300000000000001,0.26714285714285724,0.19500000000000003
10,17,34,1,2,0.26000000000000006,2,4,50,57,92,51,14.309999999999745,0.5100000000000002,1.400000000000001,2.2699999999999956,16,2,4,4,38,2,6,6,4,0.5,27,6,HL,0.3765789473684205,0.25500000000000006,0.23333333333333342,0.3783333333333335
10,18,35,1,1,0.45000000000000023,3,4,31,25,111,118,8.539999999999873,0.45000000000000023,4.469999999999949,0.2700000000000001,11,1,5,1,33,1,17,1,3,0,14,6,HL,0.2587878787878789,0.45000000000000023,0.26294117647058834,0.2700000000000001
10,18,36,1,7,0.4000000000000002,2,4,14,37,20,22,20.270000000000305,2.719999999999986,2.479999999999991,2.06,18,7,7,5,49,8,8,6,6,0.5,41,6,HL,0.4136734693877553,0.34000000000000014,0.31000000000000016,0.34333333333333355
11,1,1,0,9,0.2700000000000001,2,3,65,62,14,95,1.9700000000000013,2.6599999999999873,1.7300000000000013,0.03,8,6,2,1,16,8,3,1,4,0,17,7,HL,0.12312500000000001,0.33250000000000013,0.576666666666667,0.03
11,1,2,0,3,0.26000000000000006,2,4,29,6,57,4,3.139999999999983,0.6400000000000003,0.9000000000000006,1.340000000000001,8,1,4,4,18,1,6,7,5,0,21,7,HL,0.17444444444444449,0.6400000000000003,0.15000000000000002,0.19142857142857148
11,2,3,0,8,0.6200000000000003,7,8,112,86,50,116,1.9100000000000013,1.300000000000001,1.340000000000001,0.4300000000000002,9,2,5,2,12,4,13,4,2,0,11,7,HL,0.1591666666666667,0.3250000000000001,0.1030769230769231,0.10750000000000001
11,2,4,0,3,0.37000000000000016,2,5,32,35,18,74,3.2599999999999825,0.18000000000000002,4.019999999999959,0.13999999999999999,10,1,6,1,19,1,9,2,5,0,19,7,HL,0.1715789473684211,0.18000000000000002,0.4466666666666669,0.07
11,3,5,0,6,0.22000000000000006,2,3,52,8,60,75,3.039999999999984,1.9700000000000015,0.6800000000000004,0.17,6,5,1,1,9,12,1,1,6,0,17,7,HL,0.33777777777777795,0.1641666666666667,0.6800000000000004,0.17
11,3,6,0,8,0.23000000000000007,2,3,110,85,20,87,3.0699999999999834,0.3000000000000001,0.7700000000000005,0.16,10,1,2,1,14,1,2,1,2,0,14,7,HL,0.21928571428571436,0.3000000000000001,0.3850000000000002,0.16
11,4,7,0,6,0.36000000000000015,2,4,60,3,109,77,2.4999999999999987,3.429999999999971,0.22000000000000006,0.4400000000000002,6,5,1,1,11,11,1,1,6,0,15,7,HL,0.22727272727272735,0.311818181818182,0.22000000000000006,0.4400000000000002
11,4,8,0,3,0.3000000000000001,2,3,17,95,20,13,2.5299999999999967,0.46000000000000024,1.2000000000000008,0.6700000000000004,7,2,5,2,17,2,6,2,5,0.5,21,7,HL,0.14882352941176474,0.2300000000000001,0.20000000000000007,0.3350000000000002
11,5,9,0,6,0.3900000000000002,2,3,112,2,8,3,2.7699999999999934,0.6800000000000004,0.23000000000000007,5.689999999999923,7,2,2,11,14,6,2,14,6,0.5,20,7,HL,0.1978571428571429,0.11333333333333334,0.11500000000000002,0.40642857142857164
11,5,10,0,4,0.21000000000000005,2,3,16,15,96,90,3.439999999999975,0.2800000000000001,0.3200000000000001,0.8800000000000006,7,1,2,4,15,1,3,4,2,0,18,7,HL,0.22933333333333342,0.2800000000000001,0.10666666666666667,0.22000000000000008
11,6,11,0,7,0.23000000000000007,2,4,118,93,19,96,1.680000000000001,2.339999999999994,0.38000000000000017,0.3000000000000001,6,5,2,2,9,6,2,3,6,0,14,7,HL,0.18666666666666673,0.39000000000000024,0.19000000000000006,0.1
11,6,12,0,4,0.22000000000000006,2,4,107,73,101,97,1.9500000000000013,2.1899999999999973,0.7500000000000004,0.4200000000000002,5,7,4,3,7,11,4,3,2,0.5,9,7,HL,0.2785714285714287,0.19909090909090915,0.18750000000000008,0.14000000000000004
11,7,13,1,4,0.3200000000000001,3,5,105,84,27,97,1.3100000000000007,2.4499999999999917,1.6500000000000012,0.45000000000000023,5,5,4,2,7,7,6,3,2,0,12,7,HL,0.18714285714285722,0.35000000000000014,0.27500000000000013,0.15000000000000002
11,7,14,1,6,0.19000000000000003,2,3,7,117,8,6,3.509999999999973,0.060000000000000005,0.21000000000000005,6.689999999999902,9,1,2,9,19,1,2,17,6,0.5,38,7,HL,0.18473684210526323,0.060000000000000005,0.10499999999999998,0.3935294117647061
11,8,15,1,4,1.1300000000000008,2,7,32,108,88,34,2.5100000000000016,0.7600000000000005,1.6000000000000012,0.25000000000000006,5,1,4,2,13,1,5,2,2,0,15,7,HL,0.19307692307692315,0.7600000000000005,0.3200000000000002,0.125
11,8,16,1,2,0.23000000000000007,2,4,51,110,54,8,1.1000000000000005,0.8200000000000005,0.7000000000000004,0.36000000000000015,4,2,3,1,7,2,3,1,4,0,16,7,HL,0.15714285714285717,0.4100000000000002,0.23333333333333342,0.36000000000000015
11,9,17,1,10,0.26000000000000006,2,3,96,99,91,108,2.2000000000000015,1.480000000000001,0.18000000000000002,0.6700000000000004,5,6,1,2,8,6,1,2,3,0,10,7,HL,0.27500000000000013,0.24666666666666676,0.18000000000000002,0.3350000000000002
11,9,18,1,1,0.25000000000000006,2,3,27,79,59,115,1.9500000000000013,0.2900000000000001,0.2900000000000001,0.5200000000000002,5,1,1,2,9,1,1,2,3,0,14,7,HL,0.21666666666666673,0.2900000000000001,0.2900000000000001,0.2600000000000001
11,10,19,1,10,0.24000000000000007,2,4,10,120,35,27,3.7399999999999696,0.7900000000000005,0.19000000000000003,0.08,7,4,1,1,15,4,1,1,3,0,18,7,HL,0.24933333333333343,0.19750000000000006,0.19000000000000003,0.08
11,10,20,1,7,0.6400000000000003,8,9,60,14,75,80,2.0200000000000014,2.7999999999999843,0.12999999999999998,2.6399999999999877,11,7,1,5,13,15,1,5,6,0,16,7,HL,0.15538461538461543,0.18666666666666673,0.12999999999999998,0.5280000000000004
11,11,21,1,4,0.4400000000000002,2,4,78,73,106,33,3.6199999999999766,0.09999999999999999,0.6200000000000003,0.05,11,1,2,1,17,1,2,1,2,0,13,7,HL,0.2129411764705883,0.09999999999999999,0.31000000000000016,0.05
11,11,22,1,7,1.1400000000000008,19,24,86,94,18,42,3.6099999999999923,0.34000000000000014,0.22000000000000006,3.6899999999999653,20,2,2,7,33,2,3,9,6,0,17,7,HL,0.10939393939393942,0.17,0.07333333333333333,0.41000000000000025
11,12,23,1,4,1.1200000000000008,11,15,96,50,9,8,5.539999999999951,0.4400000000000002,4.599999999999946,14.479999999999736,19,2,6,17,32,2,9,52,2,0,19,7,HL,0.17312500000000006,0.2200000000000001,0.5111111111111114,0.2784615384615386
11,12,24,1,9,0.8000000000000005,4,6,110,67,27,78,2.3600000000000017,1.1500000000000008,0.4300000000000002,0.35000000000000014,6,2,2,1,10,3,2,1,4,0,14,7,HL,0.2360000000000001,0.3833333333333335,0.21500000000000008,0.35000000000000014
11,13,25,1,4,0.3100000000000001,3,4,71,100,11,69,2.739999999999992,0.36000000000000015,0.24000000000000007,0.21000000000000005,7,2,1,2,11,4,1,2,2,0,16,7,HL,0.2490909090909092,0.09,0.24000000000000007,0.10499999999999998
11,13,26,1,5,0.4300000000000002,6,6,20,16,91,58,8.019999999999882,22.57000000000073,0.01,0.8700000000000006,16,18,1,2,33,65,1,2,5,0,19,7,HL,0.24303030303030312,0.3472307692307694,0.01,0.4350000000000003
11,14,27,1,5,0.3000000000000001,2,3,47,118,46,43,1.9700000000000013,0.5900000000000003,0.5600000000000003,0.21000000000000005,4,2,2,1,10,2,2,1,5,0.5,32,7,HL,0.19700000000000004,0.2950000000000001,0.2800000000000001,0.21000000000000005
11,14,28,1,3,0.5300000000000002,6,6,2,51,26,55,1.670000000000001,1.5600000000000012,0.3000000000000001,0.35000000000000014,7,2,2,2,7,3,3,3,5,0,19,7,HL,0.23857142857142868,0.5200000000000002,0.09999999999999999,0.11666666666666667
11,15,29,1,9,0.3900000000000002,2,3,117,45,69,38,1.9500000000000013,1.6200000000000012,0.18000000000000002,0.21000000000000005,5,3,2,1,6,9,2,1,4,0,16,7,HL,0.3250000000000002,0.18000000000000005,0.09,0.21000000000000005
11,15,30,1,4,0.26000000000000006,2,4,102,54,58,35,1.4100000000000008,0.8000000000000005,0.48000000000000026,0.18000000000000002,4,2,2,1,10,4,2,1,2,0,15,7,HL,0.14100000000000001,0.20000000000000004,0.24000000000000005,0.18000000000000002
11,16,31,1,5,0.3900000000000002,2,3,101,44,99,48,3.6999999999999735,0.19000000000000003,0.18000000000000002,0.47000000000000025,9,1,2,3,15,1,2,3,5,0,14,7,HL,0.24666666666666676,0.19000000000000003,0.09,0.15666666666666668
11,16,32,1,2,0.4200000000000002,4,5,7,117,55,9,2.96999999999999,1.1700000000000008,0.17,0.3000000000000001,7,3,1,2,10,6,1,2,4,0,18,7,HL,0.29700000000000015,0.19500000000000006,0.17,0.15000000000000002
11,17,33,1,1,0.5800000000000003,2,8,4,120,79,77,8.239999999999881,0.01,0.04,0.01,15,1,1,1,30,1,1,1,3,0,14,7,HL,0.2746666666666668,0.01,0.04,0.01
11,17,34,1,10,0.4400000000000002,6,7,88,97,43,89,1.8100000000000012,0.35000000000000014,1.320000000000001,0.7700000000000005,10,1,4,4,12,1,6,5,3,0,13,7,HL,0.15083333333333337,0.35000000000000014,0.22000000000000006,0.15400000000000005
11,18,35,1,4,0.6000000000000003,8,10,97,69,35,34,2.070000000000001,2.0899999999999994,1.6200000000000012,0.08,12,5,5,1,16,9,5,1,2,0,16,7,HL,0.12937500000000005,0.2322222222222223,0.3240000000000002,0.08
11,18,36,1,2,0.2900000000000001,2,5,51,111,14,77,2.489999999999997,0.4300000000000002,0.8500000000000005,0.2700000000000001,5,2,2,2,15,4,3,2,4,0,15,7,HL,0.16600000000000004,0.10750000000000001,0.28333333333333344,0.135
11,19,37,1,7,0.25000000000000006,4,5,14,65,62,75,2.0500000000000016,0.4300000000000002,1.6400000000000012,0.3000000000000001,6,1,7,2,10,1,11,2,6,0,17,7,HL,0.20500000000000007,0.4300000000000002,0.1490909090909091,0.15000000000000002
11,19,38,1,2,0.8700000000000006,8,11,56,117,51,2,1.4300000000000008,1.500000000000001,0.3100000000000001,0.9700000000000006,10,2,2,2,13,5,4,3,4,0,16,7,HL,0.11000000000000003,0.3000000000000001,0.0775,0.3233333333333335
11,20,39,1,9,0.9200000000000006,13,14,8,62,41,1,3.01,0.2800000000000001,1.450000000000001,0.46000000000000024,17,2,3,2,21,3,5,2,4,0,21,7,HL,0.14333333333333337,0.09333333333333334,0.2900000000000001,0.23000000000000007
11,20,40,1,3,0.8700000000000006,4,6,56,13,109,17,2.330000000000002,0.5600000000000003,0.7400000000000004,0.16,6,2,2,2,9,2,4,2,5,0,18,7,HL,0.258888888888889,0.28000000000000014,0.18500000000000005,0.07999999999999999
11,21,41,1,4,0.6700000000000004,15,17,56,99,37,48,6.119999999999928,0.01,2.5099999999999905,0.01,19,1,3,1,33,1,3,1,2,0,16,7,HL,0.18545454545454554,0.01,0.8366666666666666,0.01
11,21,42,1,1,0.2900000000000001,2,5,84,114,35,25,1.4600000000000009,1.6400000000000012,0.5700000000000003,0.34000000000000014,4,3,3,2,9,9,3,3,3,0,15,7,HL,0.16222222222222227,0.18222222222222226,0.19000000000000006,0.11333333333333333
12,1,1,0,1,0.35000000000000014,2,4,73,117,74,11,3.129999999999985,5.5799999999999255,0.03,0.08,7,8,1,1,18,12,1,1,3,0,14,7,HL,0.17388888888888893,0.46500000000000025,0.03,0.08
12,1,2,0,4,0.13999999999999999,2,3,15,23,89,43,19.820000000000277,0.01,0.01,0.01,18,1,1,1,68,1,1,1,2,0,20,7,HL,0.29147058823529426,0.01,0.01,0.01
12,2,3,0,6,0.2700000000000001,1,2,1,42,39,60,4.9799999999999445,0.4100000000000002,0.4400000000000002,0.9600000000000006,5,2,2,2,19,2,2,8,6,0,20,7,HL,0.26210526315789484,0.2050000000000001,0.22000000000000006,0.12
12,2,4,0,7,0.23000000000000007,2,3,13,86,24,111,13.939999999999753,0.01,0.01,0.02,15,1,1,1,39,1,1,1,6,0,17,7,HL,0.3574358974358976,0.01,0.01,0.02
12,3,5,0,9,0.2700000000000001,2,3,69,6,87,1,4.8399999999999475,0.2800000000000001,1.470000000000001,0.8300000000000005,5,1,2,2,17,1,4,2,4,0,19,7,HL,0.2847058823529413,0.2800000000000001,0.36750000000000016,0.4150000000000002
12,3,6,0,8,0.38000000000000017,4,4,22,39,84,109,9.419999999999852,0.05,0.3300000000000001,0.7600000000000005,12,2,2,2,27,2,2,2,2,0,16,7,HL,0.3488888888888891,0.025,0.16500000000000004,0.3800000000000002
12,4,7,0,8,0.38000000000000017,2,5,110,112,9,43,3.0099999999999882,0.9900000000000007,0.6400000000000003,0.9000000000000006,6,2,2,2,17,6,3,5,2,0,15,7,HL,0.17705882352941182,0.16500000000000004,0.2133333333333334,0.18000000000000005
12,4,8,0,7,0.17,2,2,13,87,14,64,5.459999999999932,0.18000000000000002,0.3300000000000001,0.17,6,2,2,1,20,2,3,1,6,0,19,7,HL,0.27300000000000013,0.09,0.11000000000000001,0.17
12,5,9,0,6,0.26000000000000006,3,4,10,4,113,94,2.529999999999996,2.53999999999999,0.6700000000000004,0.08,10,6,2,1,11,9,3,1,6,0,17,7,HL,0.2300000000000001,0.2822222222222224,0.2233333333333334,0.08
12,5,10,0,7,1.320000000000001,2,4,21,13,77,19,4.289999999999981,7.109999999999893,1.2200000000000009,0.8500000000000005,8,11,3,4,17,30,3,4,6,0.5,21,7,HL,0.25235294117647067,0.2370000000000001,0.40666666666666684,0.21250000000000008
12,6,11,0,7,0.24000000000000007,2,3,79,114,53,49,4.899999999999945,0.22000000000000006,1.2400000000000009,2.4199999999999924,10,1,4,3,19,1,7,3,6,0,13,7,HL,0.25789473684210534,0.22000000000000006,0.17714285714285719,0.8066666666666672
12,6,12,0,6,0.38000000000000017,2,4,5,93,86,44,2.549999999999998,2.6499999999999875,0.3000000000000001,0.2800000000000001,6,5,2,2,10,7,3,3,6,0,17,7,HL,0.2550000000000001,0.3785714285714288,0.10000000000000003,0.09333333333333332
12,7,13,1,8,0.3900000000000002,2,5,2,61,8,92,15.069999999999732,0.03,0.01,0.01,18,2,1,1,50,2,1,1,2,0,19,7,HL,0.30140000000000006,0.015,0.01,0.01
12,7,14,1,2,0.3000000000000001,2,4,52,23,19,53,3.069999999999985,5.1099999999999355,0.4400000000000002,0.9200000000000006,6,9,2,4,14,19,2,8,4,0,20,7,HL,0.21928571428571436,0.26894736842105277,0.22000000000000008,0.11500000000000002
12,8,15,1,2,0.13999999999999999,2,2,19,82,83,46,9.079999999999854,0.01,0.01,0.02,15,1,1,1,34,1,1,1,4,0,17,7,HL,0.2670588235294119,0.01,0.01,0.02
12,8,16,1,8,0.5500000000000003,5,7,64,117,65,118,3.979999999999971,1.0100000000000007,0.37000000000000016,1.1500000000000008,11,4,2,2,17,10,5,3,2,0,12,7,HL,0.23411764705882362,0.101,0.074,0.3833333333333335
12,9,17,1,1,0.2700000000000001,2,2,1,56,117,50,17.199999999999847,0.01,0.01,0.02,20,1,1,1,59,1,1,1,3,0,16,7,HL,0.2915254237288137,0.01,0.01,0.02
