Subject,Round,Phase,afterbreak,Schema,Schema_RT,Schema_OB,Schema_AS,Cho_1,Cho_2,Cho_3,Cho_4,RT_1,RT_2,RT_3,RT_4,OB_1,OB_2,OB_3,OB_4,AS_1,AS_2,AS_3,AS_4,schema_payoff,AC,performance,breakR,type,dwellmean_1,dwellmean_2,dwellmean_3,dwellmean_4
1,1,1,0,9,0.10999999999999999,2,3,71,40,107,101,0.13999999999999999,0.09,0.21000000000000005,0.03,4,1,2,1,5,1,2,1,4,0,13,7,LH,0.028,0.09,0.10500000000000001,0.03
1,1,2,0,6,0.07,2,2,55,59,95,19,0.11000000000000001,0.05,0.2900000000000001,0.05,3,1,2,1,3,1,2,1,4,0,17,7,LH,0.03666666666666667,0.05,0.14500000000000005,0.05
1,2,3,0,10,0.08,1,2,21,24,15,115,0.16,0.11999999999999998,0.03,0.11999999999999998,3,2,1,2,4,2,1,3,6,0.5,38,7,LH,0.04,0.06,0.03,0.04
1,2,4,0,3,0.35000000000000014,2,3,38,70,85,108,0.4500000000000001,0.12999999999999998,0.02,0.02,3,2,1,1,4,2,1,1,5,0,14,7,LH,0.11250000000000002,0.065,0.02,0.02
1,3,5,0,5,0.11999999999999998,2,3,9,64,34,3,0.18,0.09,0.20000000000000004,0.01,4,1,1,1,5,1,1,1,6,0,21,7,LH,0.036000000000000004,0.09,0.20000000000000004,0.01
1,3,6,0,3,0.11999999999999998,2,3,38,24,115,59,0.15999999999999998,0.24000000000000007,0.10999999999999999,0.02,3,4,2,1,4,4,2,1,5,0,17,7,LH,0.04,0.06,0.055,0.02
1,4,7,0,1,0.13999999999999999,2,4,19,32,30,58,0.21999999999999997,0.07,0.04,0.09,3,1,1,1,5,1,1,1,5,0,20,7,LH,0.044,0.07,0.04,0.09
1,4,8,0,7,0.10999999999999999,3,3,88,85,109,61,0.18,0.03,0.09,0.04,5,1,1,2,5,1,1,2,3,0,12,7,LH,0.036000000000000004,0.03,0.09,0.02
1,5,9,0,1,0.12999999999999998,2,2,15,71,21,81,2.759999999999988,0.04,0.02,0.01,12,1,1,1,14,1,2,1,5,0,19,7,LH,0.1971428571428572,0.04,0.01,0.01
1,5,10,0,4,0.16,2,3,88,99,44,85,0.24,0.01,0.09,0.34000000000000014,3,1,2,2,4,1,2,2,2,0,13,7,LH,0.06,0.01,0.045000000000000005,0.17000000000000007
1,6,11,0,2,0.11999999999999998,2,3,75,79,104,23,0.22999999999999998,0.05,0.24000000000000007,0.01,3,1,3,1,4,1,3,1,3,0,14,7,LH,0.057499999999999996,0.05,0.08000000000000002,0.01
1,6,12,0,7,0.12999999999999998,3,4,90,6,92,4,0.23999999999999996,0.19000000000000003,0.01,0.46000000000000024,5,3,1,2,6,3,1,2,3,0,18,7,LH,0.04,0.06333333333333332,0.01,0.23000000000000012
1,7,13,1,3,4.789999999999942,6,30,13,15,54,45,5.559999999999943,0.03,0.02,0.3200000000000001,11,1,1,3,35,1,1,3,5,0,21,7,LH,0.1588571428571429,0.03,0.02,0.10666666666666666
1,7,14,1,1,0.08,3,3,33,35,91,64,0.12,0.060000000000000005,0.15,0.04,4,2,2,1,4,3,2,1,5,0,17,7,LH,0.03,0.02,0.075,0.04
1,8,15,1,6,0.24000000000000007,3,4,21,60,20,104,0.32000000000000006,0.04,0.03,0.03,4,1,1,1,5,1,1,1,4,0,18,7,LH,0.064,0.04,0.03,0.03
1,8,16,1,2,0.10999999999999999,2,4,110,74,76,63,0.20999999999999996,0.02,0.04,0.09999999999999999,3,1,1,3,5,1,1,3,3,0,12,7,LH,0.041999999999999996,0.02,0.04,0.03333333333333333
1,9,17,1,2,0.12999999999999998,4,4,80,84,77,118,0.21999999999999997,0.02,0.11999999999999998,0.03,6,1,2,1,6,1,2,1,3,0.5,11,7,LH,0.03666666666666667,0.02,0.06,0.03
1,9,18,1,3,0.16,3,4,16,43,21,37,0.25,0.04,0.11999999999999998,0.04,4,1,3,2,5,1,3,2,5,0,22,7,LH,0.049999999999999996,0.04,0.04,0.02
1,10,19,1,5,0.24000000000000007,6,6,2,4,53,34,0.3000000000000001,0.2700000000000001,0.03,0.10999999999999999,8,2,1,1,8,2,1,1,6,0,21,7,LH,0.037500000000000006,0.13500000000000004,0.03,0.10999999999999999
1,10,20,1,3,1.270000000000001,4,7,15,44,23,42,7.559999999999912,0.01,0.01,0.01,19,1,1,1,30,1,1,1,5,0,22,7,LH,0.2520000000000001,0.01,0.01,0.01
1,11,21,1,10,0.10999999999999999,2,3,37,20,53,42,0.31000000000000005,3.509999999999969,0.13999999999999999,0.07,4,6,1,1,5,10,1,1,6,0,20,7,LH,0.062,0.3510000000000002,0.13999999999999999,0.07
1,11,22,1,2,0.12999999999999998,2,3,68,74,33,115,0.18999999999999997,0.02,0.17,0.01,3,1,2,1,4,1,3,1,3,0,14,7,LH,0.0475,0.02,0.05666666666666667,0.01
1,12,23,1,2,0.09999999999999999,2,3,61,77,22,14,0.16999999999999998,0.01,0.04,0.11999999999999998,3,1,1,2,4,1,1,2,3,0,19,7,LH,0.0425,0.01,0.04,0.06
1,12,24,1,5,0.09999999999999999,2,2,4,1,56,95,0.16,0.060000000000000005,0.04,0.07,3,1,1,2,3,1,1,3,6,0,19,7,LH,0.05333333333333334,0.060000000000000005,0.04,0.023333333333333334
1,13,25,1,9,0.09999999999999999,2,3,65,69,96,27,0.13999999999999999,0.01,0.18000000000000002,0.23000000000000007,4,1,1,1,5,1,1,1,4,0,16,7,LH,0.028,0.01,0.18000000000000002,0.23000000000000007
1,13,26,1,10,0.10999999999999999,2,3,54,56,42,16,0.3500000000000001,0.03,0.08,0.18000000000000002,4,1,1,2,5,1,1,2,6,0,19,7,LH,0.07,0.03,0.08,0.09
1,14,27,1,9,0.09,2,3,62,70,112,69,0.12,0.01,0.2900000000000001,0.01,3,1,3,1,4,1,3,1,4,0.5,14,7,LH,0.03,0.01,0.09666666666666668,0.01
1,14,28,1,3,0.18000000000000002,3,3,37,57,49,84,0.28,0.07,0.09999999999999999,0.01,4,1,2,1,4,1,2,1,5,0,16,7,LH,0.06999999999999999,0.07,0.049999999999999996,0.01
1,15,29,1,4,0.34000000000000014,3,4,102,103,54,105,0.3800000000000001,0.01,0.48000000000000026,0.01,4,1,2,1,5,1,3,1,2,0.5,10,7,LH,0.07600000000000001,0.01,0.1600000000000001,0.01
1,15,30,1,9,0.38000000000000017,3,4,66,70,75,83,0.4700000000000002,0.07,0.20000000000000004,0.03,4,1,1,1,5,1,1,1,4,0,14,7,LH,0.09400000000000001,0.07,0.20000000000000004,0.03
1,16,31,1,7,0.08,2,3,96,24,51,95,0.25,0.04,0.04,0.23000000000000007,4,2,1,2,5,2,1,2,3,0,16,7,LH,0.05,0.02,0.04,0.11500000000000003
1,16,32,1,4,0.12999999999999998,3,4,97,48,45,6,0.15999999999999998,0.07,0.05,0.3300000000000001,4,1,1,3,5,1,1,3,2,0,18,7,LH,0.032,0.07,0.05,0.11
1,17,33,1,6,0.17,6,6,56,58,7,4,0.29,0.02,0.36000000000000015,0.6400000000000003,8,1,3,1,8,1,3,1,4,0,20,7,LH,0.036250000000000004,0.02,0.12000000000000002,0.6400000000000003
1,17,34,1,9,0.08,2,4,67,48,44,99,0.18,0.24000000000000007,0.04,0.01,4,2,2,1,6,2,2,1,4,0,16,7,LH,0.030000000000000002,0.12000000000000004,0.02,0.01
1,18,35,1,8,0.15,3,3,112,120,73,8,0.22,0.060000000000000005,0.09,0.02,4,1,2,1,4,1,2,1,2,0,13,7,LH,0.05500000000000001,0.060000000000000005,0.045,0.02
1,18,36,1,4,0.13999999999999999,1,2,91,102,58,89,0.21999999999999997,0.09999999999999999,0.060000000000000005,0.060000000000000005,2,1,1,1,3,1,1,1,2,0,12,7,LH,0.07333333333333332,0.09999999999999999,0.060000000000000005,0.060000000000000005
1,19,37,1,9,0.49000000000000027,3,3,68,117,48,15,0.7000000000000003,0.04,0.01,0.05,5,1,1,2,5,1,1,2,4,0,17,7,LH,0.14000000000000004,0.04,0.01,0.025
1,19,38,1,5,0.15,3,4,3,25,58,74,1.8900000000000012,0.2700000000000001,0.01,0.02,9,2,1,1,11,2,1,1,6,0,18,7,LH,0.1718181818181819,0.13500000000000004,0.01,0.02
1,20,39,1,8,0.08,2,2,114,110,57,93,0.13,0.060000000000000005,0.46000000000000024,0.01,3,1,2,1,3,1,3,1,2,0,11,7,LH,0.043333333333333335,0.060000000000000005,0.15333333333333338,0.01
1,20,40,1,9,0.12999999999999998,2,3,31,64,104,26,0.20999999999999996,0.01,0.09,0.02,3,1,1,1,4,1,1,1,4,0,16,7,LH,0.052500000000000005,0.01,0.09,0.02
1,21,41,1,3,0.13999999999999999,2,3,2,44,11,47,7.649999999999884,0.01,0.01,0.01,18,1,1,1,45,1,1,1,5,0,22,7,LH,0.17000000000000007,0.01,0.01,0.01
1,21,42,1,8,0.38000000000000017,6,8,55,115,112,22,0.43000000000000016,0.08,0.05,0.04,7,2,2,1,9,2,2,1,2,0,14,7,LH,0.04777777777777778,0.04,0.025,0.04
1,22,43,1,1,0.11999999999999998,2,3,2,9,63,81,6.599999999999906,0.02,0.01,0.01,20,1,1,1,32,1,1,1,5,0,19,7,LH,0.20625000000000007,0.02,0.01,0.01
1,22,44,1,10,0.12999999999999998,2,2,24,92,112,39,0.19999999999999998,0.17,0.35000000000000014,0.03,3,1,2,1,3,1,2,1,6,0,16,7,LH,0.06666666666666667,0.17,0.17500000000000007,0.03
2,1,1,0,7,0.26000000000000006,2,5,96,24,89,106,0.7000000000000003,0.8000000000000005,0.02,0.060000000000000005,4,2,1,1,7,2,1,2,3,0,14,7,LH,0.10000000000000002,0.4000000000000002,0.02,0.030000000000000002
2,1,2,0,6,0.24000000000000007,2,3,114,53,1,7,1.510000000000001,0.060000000000000005,0.20000000000000004,0.25000000000000006,6,3,2,3,9,4,2,3,4,0,18,7,LH,0.16777777777777783,0.015,0.1,0.08333333333333333
2,2,3,0,3,2.5099999999999905,10,18,101,104,43,59,3.9099999999999913,0.5800000000000003,0.09,0.01,15,2,3,1,28,2,3,1,5,0,13,7,LH,0.13964285714285718,0.29000000000000015,0.030000000000000002,0.01
2,2,4,0,5,0.4200000000000002,2,4,35,2,90,116,1.4900000000000009,0.4100000000000002,1.8900000000000015,0.03,5,3,9,2,12,4,9,2,6,0,16,7,LH,0.12416666666666669,0.10250000000000002,0.21000000000000008,0.015
2,3,5,0,1,0.5200000000000002,13,16,33,23,29,20,1.3100000000000007,0.16,0.02,0.7400000000000004,15,3,1,5,22,4,1,5,5,0,22,7,LH,0.05954545454545455,0.04,0.02,0.14800000000000005
2,3,6,0,3,0.48000000000000026,10,12,37,3,45,85,1.0500000000000005,0.9400000000000006,0.10999999999999999,0.01,12,4,1,1,17,7,1,1,5,0,19,7,LH,0.061764705882352944,0.1342857142857143,0.10999999999999999,0.01
2,4,7,0,3,0.25000000000000006,3,5,81,14,22,80,1.5000000000000009,0.07,0.05,0.08,8,2,2,1,14,2,2,1,5,0,18,7,LH,0.10714285714285716,0.035,0.025,0.08
2,4,8,0,6,0.38000000000000017,2,8,58,88,9,26,1.0700000000000005,0.07,0.34000000000000014,0.03,4,1,2,1,12,1,5,1,4,0,18,7,LH,0.08916666666666669,0.07,0.068,0.03
2,5,9,0,4,0.24000000000000007,7,7,98,106,100,53,0.8800000000000004,0.05,1.310000000000001,0.3900000000000002,9,1,7,4,12,1,10,4,2,0.5,16,7,LH,0.07333333333333333,0.05,0.13100000000000003,0.0975
2,5,10,0,3,0.26000000000000006,2,4,44,42,79,80,0.7400000000000003,0.23000000000000007,0.34000000000000014,0.10999999999999999,4,2,2,2,8,3,4,3,5,0,16,7,LH,0.0925,0.07666666666666666,0.08499999999999999,0.03666666666666667
2,6,11,0,5,0.21000000000000005,2,3,79,10,64,37,0.7800000000000004,0.08,0.2800000000000001,0.08,4,1,2,1,8,2,2,1,6,0,18,7,LH,0.0975,0.04,0.14000000000000004,0.08
2,6,12,0,6,0.20000000000000004,2,3,60,109,53,59,0.5600000000000002,0.2800000000000001,0.15,0.07,4,3,2,2,5,4,2,2,4,0.5,26,7,LH,0.112,0.07,0.07500000000000001,0.035
2,7,13,1,9,0.10999999999999999,2,2,2,66,28,119,5.169999999999937,0.01,0.01,0.01,14,1,1,1,17,1,1,1,4,0,17,7,LH,0.30411764705882366,0.01,0.01,0.01
2,7,14,1,3,0.3200000000000001,10,10,37,100,43,24,0.9400000000000004,0.15,0.07,1.5500000000000012,12,2,1,3,17,2,1,4,5,0,18,7,LH,0.05529411764705883,0.075,0.07,0.38750000000000023
2,8,15,1,10,0.24000000000000007,2,4,24,44,40,18,0.5400000000000001,0.5200000000000002,0.16,2.619999999999988,3,2,2,8,5,3,3,13,6,0,22,7,LH,0.10800000000000001,0.1733333333333334,0.05333333333333333,0.20153846153846158
2,8,16,1,5,0.4400000000000002,15,16,4,8,72,9,0.8200000000000004,0.15,0.21000000000000005,0.8600000000000005,17,1,1,3,18,1,1,4,6,0.5,22,7,LH,0.045555555555555564,0.15,0.21000000000000005,0.21500000000000008
2,9,17,1,9,0.9200000000000006,4,6,62,39,47,69,1.0200000000000007,0.49000000000000027,0.10999999999999999,0.23000000000000007,6,5,1,2,8,5,1,2,4,0,18,7,LH,0.12750000000000006,0.09800000000000002,0.10999999999999999,0.11500000000000003
2,9,18,1,1,0.24000000000000007,2,3,28,35,24,85,0.7800000000000004,0.3900000000000002,0.09,0.060000000000000005,4,3,2,1,9,5,2,1,5,0,19,7,LH,0.08666666666666666,0.07800000000000001,0.045000000000000005,0.060000000000000005
2,10,19,1,6,0.22000000000000006,2,4,46,53,76,51,1.0500000000000005,0.08,0.22000000000000006,0.02,6,2,1,1,8,2,2,1,4,0,16,7,LH,0.13125000000000003,0.04,0.11000000000000001,0.02
2,10,20,1,9,0.23000000000000007,2,3,66,111,70,114,0.6600000000000003,0.45000000000000023,0.18000000000000002,0.02,4,2,2,1,5,3,2,1,4,0,12,7,LH,0.132,0.15,0.09,0.02
2,11,21,1,8,0.20000000000000004,2,3,113,109,55,119,0.7800000000000004,0.13999999999999999,0.25000000000000006,0.08,4,2,2,2,7,3,2,2,2,0.5,10,7,LH,0.11142857142857143,0.04666666666666666,0.125,0.04
2,11,22,1,4,2.5599999999999894,10,22,64,105,39,38,2.5799999999999894,0.01,0.3100000000000001,0.3100000000000001,11,1,2,2,23,1,2,4,2,0,16,7,LH,0.1121739130434783,0.01,0.15500000000000005,0.0775
2,12,23,1,7,0.35000000000000014,2,3,95,90,72,89,0.7000000000000003,0.35000000000000014,0.19000000000000003,0.18000000000000002,4,3,3,2,6,5,3,3,3,0.5,13,7,LH,0.11666666666666668,0.06999999999999999,0.06333333333333332,0.06
2,12,24,1,5,0.24000000000000007,3,6,9,73,5,103,0.6900000000000003,0.5600000000000003,0.5900000000000003,0.01,5,3,4,1,8,6,6,1,6,0,17,7,LH,0.08625000000000002,0.09333333333333335,0.09833333333333336,0.01
2,13,25,1,8,0.34000000000000014,2,4,57,111,112,119,1.0400000000000005,0.21000000000000005,0.04,0.02,5,2,1,1,9,3,1,1,2,0.5,10,7,LH,0.11555555555555558,0.06999999999999999,0.04,0.02
2,13,26,1,2,0.2700000000000001,2,3,83,17,68,99,0.8600000000000003,0.23000000000000007,0.04,0.22000000000000006,4,2,1,2,9,6,1,2,3,0,15,7,LH,0.09555555555555556,0.03833333333333333,0.04,0.11000000000000001
2,14,27,1,8,0.9200000000000006,7,10,87,88,92,119,4.219999999999974,0.12999999999999998,0.01,0.19000000000000003,20,3,1,2,34,3,1,2,2,0.5,11,7,LH,0.12411764705882355,0.043333333333333335,0.01,0.09500000000000001
2,14,28,1,2,0.17,2,4,106,55,84,7,1.700000000000001,0.02,0.09,0.01,10,1,2,1,14,1,2,1,3,0,15,7,LH,0.12142857142857144,0.02,0.045,0.01
2,15,29,1,8,0.2700000000000001,2,3,15,90,25,109,1.2500000000000007,0.20000000000000004,0.2900000000000001,0.02,5,2,2,1,8,2,2,1,2,0,16,7,LH,0.15625000000000003,0.1,0.14500000000000005,0.02
2,15,30,1,6,0.6200000000000003,3,4,3,58,8,73,4.329999999999965,0.01,0.01,0.01,17,1,1,1,30,1,1,1,4,0,19,7,LH,0.14433333333333337,0.01,0.01,0.01
2,16,31,1,9,0.26000000000000006,2,5,69,68,96,62,0.7700000000000002,0.12999999999999998,0.09,0.21000000000000005,5,1,1,3,8,1,2,3,4,0.5,15,7,LH,0.09625000000000002,0.12999999999999998,0.045,0.06999999999999999
2,16,32,1,3,0.20000000000000004,4,5,3,40,9,5,0.7400000000000003,0.07,0.22000000000000006,0.060000000000000005,7,1,3,1,9,1,3,1,5,0.5,23,7,LH,0.08222222222222224,0.07,0.07333333333333333,0.060000000000000005
2,17,33,1,4,0.34000000000000014,3,5,104,105,24,25,0.6700000000000003,0.07,0.3000000000000001,0.3900000000000002,4,1,3,3,6,1,4,4,2,0,15,7,LH,0.1116666666666667,0.07,0.075,0.0975
2,17,34,1,8,0.5500000000000003,15,18,113,114,71,65,1.2200000000000006,0.05,0.17,0.02,17,1,2,1,25,1,3,1,2,0,12,7,LH,0.0488,0.05,0.05666666666666667,0.02
2,18,35,1,6,0.2900000000000001,2,4,51,58,49,119,0.7300000000000003,0.17,0.11999999999999998,0.19000000000000003,4,1,1,2,6,1,1,2,4,0.5,14,7,LH,0.12166666666666669,0.17,0.11999999999999998,0.095
2,18,36,1,4,0.3100000000000001,2,3,68,100,108,83,1.0400000000000005,0.03,0.4400000000000002,0.5100000000000002,4,1,3,2,8,1,3,2,2,0,11,7,LH,0.13,0.03,0.14666666666666672,0.2550000000000001
2,19,37,1,1,0.07,2,2,13,71,26,69,3.769999999999965,0.02,0.01,0.01,12,2,1,1,32,2,1,1,5,0,19,7,LH,0.11781250000000003,0.01,0.01,0.01
2,19,38,1,8,0.6300000000000003,8,8,1,4,6,120,3.219999999999989,2.8399999999999834,0.03,0.22000000000000006,18,9,1,2,29,14,1,3,2,0.5,20,7,LH,0.11103448275862071,0.20285714285714293,0.03,0.07333333333333333
2,20,39,1,3,0.23000000000000007,2,3,41,39,70,112,0.8000000000000004,0.11999999999999998,0.24000000000000007,0.04,4,2,2,2,11,3,2,2,5,0,16,7,LH,0.07272727272727272,0.04,0.12,0.02
2,20,40,1,10,3.239999999999975,9,22,15,19,33,106,3.539999999999975,0.4100000000000002,0.08,0.4400000000000002,10,3,1,3,23,7,1,4,6,0,19,7,LH,0.15391304347826093,0.058571428571428566,0.08,0.11000000000000003
2,21,41,1,2,1.0000000000000007,5,10,110,78,51,81,1.690000000000001,0.26000000000000006,0.3100000000000001,0.01,8,2,1,1,13,2,1,1,3,0,12,7,LH,0.13000000000000003,0.13000000000000003,0.3100000000000001,0.01
2,21,42,1,4,0.22000000000000006,2,3,101,18,96,21,0.8900000000000005,1.290000000000001,0.01,0.01,4,5,1,1,8,6,1,1,2,0,17,7,LH,0.11125,0.21500000000000005,0.01,0.01
2,22,43,1,8,0.2800000000000001,4,6,110,85,87,5,0.5700000000000002,0.25000000000000006,0.13999999999999999,0.04,6,1,1,1,10,1,1,1,2,0,14,7,LH,0.057,0.25000000000000006,0.13999999999999999,0.04
2,22,44,1,1,0.2700000000000001,3,5,36,21,25,53,0.5900000000000002,0.36000000000000015,0.17,0.19000000000000003,5,2,1,3,7,2,1,5,5,0,20,7,LH,0.0842857142857143,0.18000000000000002,0.17,0.038
3,1,1,0,3,0.2900000000000001,2,5,41,7,38,45,0.7900000000000003,0.38000000000000017,0.04,0.3100000000000001,4,2,1,3,7,2,1,3,5,0.5,36,7,LH,0.11285714285714288,0.19000000000000006,0.04,0.10333333333333336
3,1,2,0,1,0.18000000000000002,2,3,21,87,29,24,0.8500000000000004,0.17,0.04,0.12999999999999998,4,1,1,1,6,1,1,1,5,0,20,7,LH,0.14166666666666672,0.17,0.04,0.12999999999999998
3,2,3,0,3,0.26000000000000006,2,4,48,46,39,8,0.7300000000000003,0.19000000000000003,0.22000000000000006,0.24000000000000007,4,1,2,2,6,1,3,2,5,0.5,36,7,LH,0.12166666666666669,0.19000000000000003,0.07333333333333333,0.12000000000000002
3,2,4,0,4,0.25000000000000006,2,3,104,108,32,96,0.6900000000000003,0.12999999999999998,0.23000000000000007,0.12999999999999998,4,1,1,1,5,1,2,1,2,0,12,7,LH,0.138,0.12999999999999998,0.11500000000000002,0.12999999999999998
3,3,5,0,5,0.25000000000000006,2,3,12,38,50,47,0.5900000000000002,0.5100000000000002,0.3100000000000001,1.0400000000000007,4,1,1,3,5,1,1,3,6,0,20,7,LH,0.11800000000000001,0.5100000000000002,0.3100000000000001,0.3466666666666668
3,3,6,0,1,0.38000000000000017,13,13,35,116,61,13,0.7800000000000004,0.6300000000000003,0.18000000000000002,1.1100000000000008,14,3,2,4,14,4,2,4,5,0,17,7,LH,0.05571428571428573,0.15750000000000003,0.09,0.27750000000000014
3,4,7,0,6,0.24000000000000007,2,3,112,116,111,96,1.5000000000000009,0.08,0.02,0.01,4,1,1,1,6,1,1,1,4,0.5,15,7,LH,0.2500000000000001,0.08,0.02,0.01
3,4,8,0,2,0.16,1,2,73,23,66,24,0.7500000000000003,0.20000000000000004,0.20000000000000004,0.04,3,2,1,1,6,2,1,1,3,0,19,7,LH,0.12500000000000003,0.09999999999999999,0.20000000000000004,0.04
3,5,9,0,10,0.2700000000000001,2,3,16,14,24,52,0.7300000000000003,4.90999999999994,0.01,0.02,5,11,1,1,7,15,1,1,6,0.5,40,7,LH,0.10428571428571429,0.3273333333333335,0.01,0.02
3,5,10,0,3,0.21000000000000005,2,3,41,3,79,97,0.6800000000000003,0.15,0.16,0.07,4,1,2,1,7,1,2,1,5,0,16,7,LH,0.09714285714285716,0.15,0.08,0.07
3,6,11,0,9,0.19000000000000003,2,4,72,64,71,16,0.5800000000000002,0.11999999999999998,0.15,0.20000000000000004,3,1,2,1,5,1,3,1,4,0.5,30,7,LH,0.11600000000000003,0.11999999999999998,0.05,0.20000000000000004
3,6,12,0,5,0.26000000000000006,2,3,8,4,29,51,0.8000000000000003,2.2199999999999966,0.15,0.3000000000000001,3,6,3,2,4,7,3,2,6,0,21,7,LH,0.20000000000000007,0.3171428571428573,0.05,0.15000000000000002
3,7,13,1,4,0.4000000000000002,2,3,100,35,68,26,0.5800000000000002,1.1200000000000008,0.01,0.01,3,2,1,1,4,2,1,1,2,0,16,7,LH,0.14500000000000002,0.5600000000000004,0.01,0.01
3,7,14,1,6,0.45000000000000023,14,14,42,57,79,58,1.2900000000000007,0.37000000000000016,0.7700000000000005,0.03,17,2,2,1,19,2,2,1,4,0,16,7,LH,0.06789473684210527,0.18500000000000008,0.38500000000000023,0.03
3,8,15,1,8,0.2900000000000001,2,4,32,73,34,27,0.7400000000000003,0.18000000000000002,0.4400000000000002,0.01,4,2,3,1,7,2,3,1,2,0.5,18,7,LH,0.10571428571428573,0.09,0.14666666666666672,0.01
3,8,16,1,6,0.36000000000000015,2,3,51,99,93,58,0.9300000000000004,0.16,0.17,0.09,3,1,1,2,4,1,1,2,4,0,13,7,LH,0.23250000000000007,0.16,0.17,0.045
3,9,17,1,4,0.3000000000000001,2,4,64,99,83,74,0.9300000000000004,0.2700000000000001,0.060000000000000005,0.2800000000000001,4,3,1,2,7,4,1,2,2,0,12,7,LH,0.13285714285714287,0.0675,0.060000000000000005,0.14000000000000004
3,9,18,1,5,0.24000000000000007,3,5,6,7,54,114,0.6200000000000002,0.10999999999999999,0.19000000000000003,0.20000000000000004,4,1,1,1,6,1,1,2,6,0,18,7,LH,0.10333333333333336,0.10999999999999999,0.19000000000000003,0.1
3,10,19,1,10,0.23000000000000007,2,3,16,14,54,119,0.8000000000000004,17.249999999999897,0.01,0.01,4,19,1,1,7,46,1,1,6,0,18,7,LH,0.1142857142857143,0.37500000000000017,0.01,0.01
3,10,20,1,2,0.26000000000000006,3,4,104,75,69,61,0.6400000000000002,0.10999999999999999,0.26000000000000006,0.08,4,1,2,1,5,1,2,1,3,0,13,7,LH,0.12800000000000003,0.10999999999999999,0.13,0.08
3,11,21,1,1,0.7200000000000004,2,5,35,31,88,57,1.0700000000000005,0.09999999999999999,0.48000000000000026,0.03,3,2,1,1,6,2,1,1,5,0,17,7,LH,0.17833333333333337,0.049999999999999996,0.48000000000000026,0.03
3,11,22,1,3,0.18000000000000002,3,3,118,119,16,72,19.090000000000156,3.46999999999997,12.499999999999778,0.01,19,11,13,1,37,14,20,1,5,0,14,7,LH,0.5159459459459462,0.24785714285714297,0.6250000000000003,0.01
3,12,23,1,1,0.21000000000000005,2,3,26,71,64,85,0.9200000000000005,0.09,0.060000000000000005,0.07,4,1,1,1,5,1,1,1,5,0,16,7,LH,0.18400000000000005,0.09,0.060000000000000005,0.07
3,12,24,1,3,0.18000000000000002,2,2,13,115,52,48,3.6799999999999695,0.01,0.01,0.01,13,1,1,1,17,1,1,1,5,0,17,7,LH,0.2164705882352942,0.01,0.01,0.01
3,13,25,1,5,0.2900000000000001,2,3,63,6,88,96,0.9200000000000004,0.04,0.46000000000000024,0.9300000000000006,4,1,3,1,6,1,4,1,6,0,16,7,LH,0.15333333333333335,0.04,0.115,0.9300000000000006
3,13,26,1,4,0.25000000000000006,2,3,105,18,82,19,0.6900000000000003,0.07,0.35000000000000014,0.02,4,1,2,1,5,1,2,1,2,0,17,7,LH,0.13800000000000004,0.07,0.17500000000000002,0.02
3,14,27,1,2,0.3100000000000001,2,4,119,79,109,77,0.9600000000000004,0.16,0.04,0.11999999999999998,5,1,1,1,7,1,1,1,3,0,10,7,LH,0.13714285714285715,0.16,0.04,0.11999999999999998
3,14,28,1,4,0.17,1,2,16,103,59,91,0.7200000000000003,0.07,0.18000000000000002,0.13999999999999999,4,1,1,2,5,1,1,2,2,0,15,7,LH,0.14400000000000004,0.07,0.18000000000000002,0.06999999999999999
3,15,29,1,8,0.2800000000000001,2,3,67,63,116,3,0.7300000000000003,1.0500000000000007,0.16,0.01,3,3,1,1,4,3,1,1,2,0,16,7,LH,0.18250000000000005,0.35000000000000026,0.16,0.01
3,15,30,1,3,0.17,2,3,45,46,51,16,0.4800000000000001,0.15,0.2800000000000001,0.05,4,1,2,1,5,1,3,1,5,0,20,7,LH,0.09600000000000002,0.15,0.09333333333333334,0.05
3,16,31,1,7,0.2800000000000001,2,4,85,4,93,91,0.7200000000000003,2.53999999999999,0.01,0.01,4,3,1,1,6,6,1,1,3,0.5,15,7,LH,0.12000000000000001,0.42333333333333356,0.01,0.01
3,16,32,1,4,0.21000000000000005,2,3,97,108,21,52,0.5500000000000002,0.11999999999999998,0.3200000000000001,0.13999999999999999,3,1,2,1,4,1,3,1,2,0,14,7,LH,0.13750000000000004,0.11999999999999998,0.10666666666666669,0.13999999999999999
3,17,33,1,9,0.2700000000000001,2,3,68,64,105,84,0.7900000000000003,0.18000000000000002,0.08,0.060000000000000005,4,2,2,1,5,2,2,1,4,0,13,7,LH,0.15800000000000003,0.09,0.04,0.060000000000000005
3,17,34,1,8,0.23000000000000007,2,3,111,53,120,9,0.6600000000000003,0.2800000000000001,0.07,0.05,4,1,1,1,5,1,1,1,2,0,14,7,LH,0.132,0.2800000000000001,0.07,0.05
3,18,35,1,10,0.20000000000000004,2,5,72,13,65,21,1.0500000000000005,0.04,1.9400000000000015,0.26000000000000006,4,1,5,3,7,1,5,3,6,0,20,7,LH,0.15000000000000008,0.04,0.38800000000000023,0.08666666666666667
3,18,36,1,5,0.25000000000000006,1,2,2,93,3,33,0.8000000000000003,0.18000000000000002,0.060000000000000005,0.12999999999999998,3,1,1,1,4,1,1,1,6,0,20,7,LH,0.20000000000000007,0.18000000000000002,0.060000000000000005,0.12999999999999998
3,19,37,1,9,0.20000000000000004,2,4,68,71,61,109,0.5600000000000002,0.10999999999999999,0.11999999999999998,0.23000000000000007,4,1,1,1,7,1,1,1,4,0.5,14,7,LH,0.08,0.10999999999999999,0.11999999999999998,0.23000000000000007
3,19,38,1,6,0.3100000000000001,2,3,51,50,32,108,0.7700000000000004,0.11999999999999998,0.36000000000000015,0.05,4,1,2,2,5,1,3,2,4,0,15,7,LH,0.15400000000000003,0.11999999999999998,0.12,0.025
3,20,39,1,3,0.2700000000000001,3,4,39,42,79,48,0.6600000000000003,0.09999999999999999,0.5300000000000002,1.430000000000001,4,1,1,3,5,1,2,3,5,0.5,18,7,LH,0.13200000000000003,0.09999999999999999,0.2650000000000001,0.47666666666666696
3,20,40,1,8,0.2800000000000001,2,4,111,94,7,88,0.6800000000000003,0.22000000000000006,0.3000000000000001,1.2300000000000009,4,1,2,2,6,1,2,2,2,0,14,7,LH,0.11333333333333334,0.22000000000000006,0.15000000000000005,0.6150000000000004
3,21,41,1,2,0.11999999999999998,2,2,15,82,75,73,15.819999999999709,0.02,0.01,0.01,18,1,1,1,34,1,1,1,3,0.5,15,7,LH,0.46529411764705897,0.02,0.01,0.01
3,21,42,1,3,0.2700000000000001,2,3,40,45,113,94,1.0300000000000005,0.02,0.5900000000000003,0.01,4,1,3,1,5,1,3,1,5,0,15,7,LH,0.20600000000000007,0.02,0.19666666666666674,0.01
3,22,43,1,9,0.4200000000000002,14,15,67,43,24,111,0.8000000000000004,1.9000000000000015,1.6900000000000013,0.34000000000000014,16,4,6,1,18,6,8,1,4,0,17,7,LH,0.044444444444444446,0.3166666666666668,0.21125000000000008,0.34000000000000014
3,22,44,1,5,0.22000000000000006,2,4,7,35,6,29,0.6400000000000002,0.34000000000000014,0.09,0.05,4,2,2,2,6,2,2,2,6,0,22,7,LH,0.10666666666666669,0.17000000000000004,0.045,0.025
4,1,1,0,8,0.22000000000000006,2,4,95,7,41,91,1.0000000000000004,0.13999999999999999,0.04,0.060000000000000005,6,1,2,1,8,1,2,1,2,0,17,7,LH,0.12500000000000003,0.13999999999999999,0.02,0.060000000000000005
4,1,2,0,1,0.12999999999999998,1,2,32,15,31,100,0.5400000000000001,0.6600000000000004,0.01,0.02,3,3,1,1,4,3,1,1,5,0,18,7,LH,0.13500000000000004,0.22000000000000008,0.01,0.02
4,2,3,0,8,0.19000000000000003,2,3,111,113,115,120,0.6100000000000002,0.09,0.10999999999999999,0.17,4,1,1,2,6,1,1,2,2,1,24,7,LH,0.10166666666666668,0.09,0.10999999999999999,0.08499999999999999
4,2,4,0,2,0.11999999999999998,2,2,14,46,38,101,13.289999999999763,0.01,0.02,0.01,20,1,1,1,48,1,1,1,3,0,18,7,LH,0.27687500000000015,0.01,0.02,0.01
4,3,5,0,9,0.12999999999999998,1,2,64,90,68,40,0.39,0.34000000000000014,0.07,0.11999999999999998,2,1,1,1,3,1,1,1,4,0,16,7,LH,0.13000000000000003,0.34000000000000014,0.07,0.11999999999999998
4,3,6,0,4,0.26000000000000006,2,3,107,17,102,101,0.6400000000000002,0.23000000000000007,0.25000000000000006,0.05,4,2,2,1,5,2,2,1,2,0.5,18,7,LH,0.12800000000000003,0.11500000000000003,0.125,0.05
4,4,7,0,1,0.4200000000000002,15,15,27,73,49,51,0.9200000000000004,0.8000000000000005,0.12999999999999998,0.18000000000000002,17,2,2,3,22,2,2,4,5,0,16,7,LH,0.041818181818181824,0.40000000000000024,0.06499999999999999,0.045
4,4,8,0,4,0.22000000000000006,2,5,100,4,98,8,0.5700000000000002,0.36000000000000015,0.07,0.10999999999999999,4,2,1,1,7,3,1,1,2,0,16,7,LH,0.08142857142857145,0.12000000000000004,0.07,0.10999999999999999
4,5,9,0,8,0.34000000000000014,11,11,118,110,112,31,1.0000000000000004,0.9700000000000006,0.01,0.02,13,4,1,1,14,6,1,1,2,0.5,17,7,LH,0.07142857142857144,0.1616666666666667,0.01,0.02
4,5,10,0,5,0.3900000000000002,10,10,81,99,100,74,2.2200000000000015,0.01,0.01,0.2700000000000001,15,1,1,3,15,1,1,3,6,0,10,7,LH,0.14800000000000008,0.01,0.01,0.09000000000000001
4,6,11,0,2,0.19000000000000003,2,3,76,115,9,70,0.7500000000000003,0.3200000000000001,0.10999999999999999,0.11999999999999998,4,2,2,1,5,3,2,1,3,0,15,7,LH,0.15000000000000005,0.10666666666666666,0.05500000000000001,0.11999999999999998
4,6,12,0,10,0.19000000000000003,2,4,15,13,32,89,0.45000000000000007,6.179999999999913,0.01,0.01,4,13,1,1,6,22,1,1,6,0,20,7,LH,0.07500000000000001,0.280909090909091,0.01,0.01
4,7,13,1,9,0.21000000000000005,2,4,42,62,22,101,0.8600000000000004,0.060000000000000005,0.08,0.12999999999999998,3,1,1,1,5,1,1,1,4,0,17,7,LH,0.17200000000000007,0.060000000000000005,0.08,0.12999999999999998
4,7,14,1,7,0.37000000000000016,11,11,85,6,95,113,0.6800000000000003,2.0799999999999996,0.19000000000000003,2.9399999999999813,13,6,2,5,14,9,2,7,3,0,14,7,LH,0.04857142857142857,0.23111111111111118,0.095,0.4200000000000002
4,8,15,1,9,0.21000000000000005,2,4,64,85,107,37,0.4700000000000001,0.36000000000000015,0.22000000000000006,0.03,3,1,2,1,5,1,2,1,4,0,14,7,LH,0.09400000000000001,0.36000000000000015,0.11000000000000001,0.03
4,8,16,1,8,0.23000000000000007,2,5,4,31,6,120,5.729999999999928,0.01,0.01,0.02,15,1,1,2,24,1,1,2,2,0,19,7,LH,0.2387500000000001,0.01,0.01,0.01
4,9,17,1,1,0.19000000000000003,2,3,20,111,64,93,0.7600000000000003,0.3100000000000001,0.07,0.07,4,1,1,1,6,1,1,1,5,0,15,7,LH,0.1266666666666667,0.3100000000000001,0.07,0.07
4,9,18,1,5,0.5400000000000003,17,18,7,60,6,77,0.9200000000000004,1.1800000000000008,0.01,0.18000000000000002,19,4,1,2,20,5,1,2,6,0,19,7,LH,0.046000000000000006,0.23600000000000007,0.01,0.09
4,10,19,1,2,0.11999999999999998,1,2,77,73,80,28,0.5200000000000001,0.13999999999999999,0.09,0.12999999999999998,4,1,1,1,6,1,1,1,3,0.5,14,7,LH,0.08666666666666667,0.13999999999999999,0.09,0.12999999999999998
4,10,20,1,5,0.19000000000000003,2,4,115,113,48,6,0.5500000000000002,0.20000000000000004,0.12999999999999998,1.350000000000001,3,1,1,3,5,1,1,3,6,0,15,7,LH,0.11000000000000003,0.20000000000000004,0.12999999999999998,0.4500000000000003
4,11,21,1,8,0.21000000000000005,2,3,119,35,93,29,0.6200000000000002,0.37000000000000016,0.10999999999999999,0.02,4,3,1,1,7,3,1,1,2,0,15,7,LH,0.08857142857142856,0.12333333333333334,0.10999999999999999,0.02
4,11,22,1,4,0.23000000000000007,7,8,99,101,53,81,0.4300000000000001,0.16,0.4400000000000002,0.13999999999999999,9,2,2,1,10,3,2,2,2,0,11,7,LH,0.043000000000000003,0.05333333333333334,0.22000000000000006,0.07
4,12,23,1,3,0.19000000000000003,2,3,42,109,78,47,0.5800000000000002,0.4100000000000002,0.09,0.02,4,1,1,1,5,1,1,1,5,0,15,7,LH,0.11600000000000002,0.4100000000000002,0.09,0.02
4,12,24,1,4,0.22000000000000006,4,4,32,34,86,95,6.589999999999908,0.01,0.01,0.01,11,1,1,1,14,1,1,1,2,0,16,7,LH,0.4707142857142855,0.01,0.01,0.01
4,13,25,1,9,0.37000000000000016,10,10,62,69,25,61,0.6200000000000002,0.3100000000000001,3.1099999999999777,0.5400000000000003,11,2,3,3,11,3,3,3,4,0.5,17,7,LH,0.05636363636363637,0.10333333333333332,1.0366666666666657,0.18000000000000008
4,13,26,1,8,0.25000000000000006,2,3,46,120,90,47,0.7500000000000002,0.11999999999999998,0.12999999999999998,0.18000000000000002,3,1,2,1,4,1,3,1,2,0,15,7,LH,0.18750000000000006,0.11999999999999998,0.043333333333333335,0.18000000000000002
4,14,27,1,1,0.3300000000000001,8,8,59,82,21,51,2.779999999999992,0.01,1.390000000000001,0.4000000000000002,13,1,5,3,14,1,5,3,5,0,17,7,LH,0.19857142857142868,0.01,0.27800000000000014,0.13333333333333336
4,14,28,1,8,0.23000000000000007,2,3,117,8,95,114,0.5700000000000002,0.6100000000000003,0.05,0.19000000000000003,4,2,1,2,5,2,1,2,2,0,13,7,LH,0.11400000000000002,0.3050000000000001,0.05,0.09500000000000001
4,15,29,1,7,0.24000000000000007,2,4,94,103,1,41,0.6100000000000002,1.8100000000000014,0.9100000000000006,0.01,4,4,4,1,6,6,4,1,3,0,16,7,LH,0.10166666666666667,0.3016666666666668,0.2275000000000001,0.01
4,15,30,1,1,0.48000000000000026,12,13,36,25,109,21,0.8500000000000004,0.17,0.6200000000000003,0.02,13,2,3,1,14,2,3,1,5,0,18,7,LH,0.06071428571428573,0.08499999999999999,0.20666666666666675,0.02
4,16,31,1,2,0.10999999999999999,1,2,80,97,25,107,0.46000000000000013,0.3200000000000001,0.060000000000000005,0.10999999999999999,3,2,1,1,4,2,1,1,3,0,12,7,LH,0.11500000000000002,0.16,0.060000000000000005,0.10999999999999999
4,16,32,1,3,0.18000000000000002,3,3,15,90,51,110,5.249999999999936,0.01,0.02,0.01,15,1,1,1,17,1,1,1,5,0,15,7,LH,0.30882352941176483,0.01,0.02,0.01
4,17,33,1,10,0.2700000000000001,2,3,19,14,20,115,0.6600000000000003,5.489999999999927,4.8299999999999415,0.01,3,10,10,1,4,12,14,1,6,0.5,20,7,LH,0.16500000000000004,0.45750000000000024,0.3450000000000002,0.01
4,17,34,1,2,0.35000000000000014,7,8,80,77,11,36,0.6100000000000002,0.2800000000000001,0.12999999999999998,0.15,8,2,1,2,9,2,1,2,3,0,17,7,LH,0.06777777777777778,0.14,0.12999999999999998,0.07499999999999998
4,18,35,1,10,0.26000000000000006,2,5,64,38,17,69,1.4700000000000009,0.15,0.01,2.5499999999999896,7,2,1,5,10,2,1,8,6,0,19,7,LH,0.14700000000000005,0.075,0.01,0.31875000000000014
4,18,36,1,6,0.3300000000000001,5,6,52,32,7,106,0.7300000000000003,3.4499999999999704,0.01,0.19000000000000003,7,6,1,1,9,8,1,1,4,0,17,7,LH,0.08111111111111112,0.43125000000000024,0.01,0.19000000000000003
4,19,37,1,6,0.23000000000000007,2,3,111,18,22,40,0.8700000000000004,0.11999999999999998,0.09999999999999999,1.0000000000000007,4,1,1,1,5,1,1,1,4,0,19,7,LH,0.17400000000000004,0.11999999999999998,0.09999999999999999,1.0000000000000007
4,19,38,1,4,0.17,2,3,102,106,64,29,0.7600000000000003,0.05,0.08,0.04,4,1,2,1,7,1,2,1,2,0,13,7,LH,0.10857142857142857,0.05,0.04,0.04
4,20,39,1,7,0.4000000000000002,8,8,29,119,66,95,2.2000000000000015,0.02,0.07,0.01,13,1,1,1,13,1,1,1,3,0,14,7,LH,0.16923076923076932,0.02,0.07,0.01
4,20,40,1,6,0.5600000000000003,14,15,59,48,40,8,0.9300000000000004,2.0300000000000007,1.0800000000000007,0.02,15,3,3,1,16,3,3,1,4,0,20,7,LH,0.05812500000000001,0.6766666666666671,0.3600000000000002,0.02
4,21,41,1,3,0.36000000000000015,8,9,86,114,119,52,0.9400000000000004,0.04,0.08,0.04,9,1,1,1,10,1,1,1,5,0,11,7,LH,0.09400000000000003,0.04,0.08,0.04
4,21,42,1,4,0.2700000000000001,2,3,106,7,3,33,0.6500000000000002,0.17,0.09,0.04,4,2,1,1,5,3,1,1,2,0,19,7,LH,0.13,0.05666666666666666,0.09,0.04
4,22,43,1,5,0.3000000000000001,4,5,99,105,69,37,0.6400000000000002,0.21000000000000005,0.2800000000000001,0.47000000000000025,5,1,2,3,6,1,2,3,6,0,13,7,LH,0.10666666666666669,0.21000000000000005,0.14,0.15666666666666673
4,22,44,1,6,0.23000000000000007,2,3,58,50,119,73,0.6200000000000002,0.09,0.2700000000000001,0.09,4,1,2,1,5,1,2,1,4,0,13,7,LH,0.12400000000000001,0.09,0.135,0.09
5,1,1,0,1,0.22000000000000006,2,4,30,26,16,23,0.6600000000000003,0.34000000000000014,0.9500000000000006,0.2800000000000001,4,2,3,3,9,3,4,4,5,0,22,7,LH,0.07333333333333333,0.11333333333333334,0.23750000000000007,0.07
5,1,2,0,2,0.26000000000000006,2,4,80,77,10,11,0.8000000000000003,0.3200000000000001,0.7700000000000005,0.03,5,2,2,1,8,3,5,1,3,0,18,7,LH,0.1,0.10666666666666666,0.15400000000000003,0.03
5,2,3,0,8,0.25000000000000006,2,4,117,12,109,91,0.7200000000000003,0.6500000000000004,0.3300000000000001,0.07,5,2,2,1,8,8,4,1,2,0,13,7,LH,0.09000000000000001,0.08125,0.08250000000000002,0.07
5,2,4,0,2,0.34000000000000014,2,8,74,77,21,28,0.8100000000000004,0.2800000000000001,0.3900000000000002,0.2800000000000001,4,2,2,2,13,3,3,2,3,0,17,7,LH,0.06230769230769231,0.09333333333333332,0.13,0.14000000000000004
5,3,5,0,2,0.11999999999999998,2,3,84,13,34,82,2.5899999999999914,1.2400000000000009,0.2800000000000001,0.01,8,7,5,1,16,12,5,1,3,0,17,7,LH,0.16187500000000005,0.10333333333333335,0.055999999999999994,0.01
5,3,6,0,8,0.26000000000000006,2,5,117,89,56,49,0.7200000000000003,0.9400000000000006,0.36000000000000015,0.20000000000000004,4,2,2,2,11,6,3,2,2,0,13,7,LH,0.06545454545454545,0.1566666666666667,0.12000000000000002,0.1
5,4,7,0,4,0.3300000000000001,3,5,107,22,15,104,0.7300000000000003,0.4300000000000002,0.20000000000000004,0.7600000000000005,5,2,2,2,7,3,2,6,2,0,16,7,LH,0.1042857142857143,0.14333333333333337,0.1,0.12666666666666668
5,4,8,0,8,0.36000000000000015,4,6,111,8,91,5,0.9200000000000004,0.4400000000000002,0.15,0.12999999999999998,6,2,1,2,10,3,1,2,2,0,17,7,LH,0.09200000000000001,0.14666666666666667,0.15,0.065
5,5,9,0,9,0.24000000000000007,2,3,72,31,8,35,0.6500000000000002,0.4300000000000002,0.19000000000000003,0.05,4,2,2,2,7,5,2,3,4,0,20,7,LH,0.09285714285714287,0.08600000000000001,0.095,0.016666666666666666
5,5,10,0,10,0.4100000000000002,2,4,20,54,57,91,1.2200000000000006,1.9300000000000015,0.01,1.0800000000000007,4,2,1,5,7,9,1,6,6,0,17,7,LH,0.17428571428571435,0.21444444444444452,0.01,0.18000000000000008
5,6,11,0,7,0.4100000000000002,2,9,92,72,10,93,0.8100000000000004,0.2700000000000001,0.4000000000000002,0.22000000000000006,4,2,2,3,14,3,3,3,3,0,16,7,LH,0.05785714285714286,0.09,0.13333333333333336,0.07333333333333333
5,6,12,0,1,0.22000000000000006,2,3,27,82,17,28,0.6300000000000002,0.6700000000000004,0.19000000000000003,0.05,4,2,2,2,7,4,3,3,5,0,19,7,LH,0.09,0.16750000000000007,0.06333333333333332,0.016666666666666666
5,7,13,1,9,0.5600000000000003,2,7,68,78,9,38,1.590000000000001,0.5700000000000003,0.07,0.05,5,3,2,1,13,4,2,1,4,0,18,7,LH,0.12230769230769233,0.14250000000000002,0.035,0.05
5,7,14,1,7,0.25000000000000006,3,5,95,26,90,93,0.8500000000000003,0.3200000000000001,0.060000000000000005,0.09999999999999999,5,2,1,1,9,5,1,1,3,0.5,14,7,LH,0.09444444444444447,0.064,0.060000000000000005,0.09999999999999999
5,8,15,1,6,0.35000000000000014,2,5,55,85,43,19,0.9800000000000004,0.16,0.3200000000000001,0.060000000000000005,6,1,2,1,13,1,2,2,4,0,18,7,LH,0.07538461538461538,0.16,0.16,0.030000000000000002
5,8,16,1,5,0.7700000000000005,9,11,6,12,3,5,1.3700000000000008,0.09,0.4300000000000002,0.34000000000000014,11,2,2,2,16,3,3,2,6,1,72,7,LH,0.085625,0.03,0.14333333333333337,0.17
5,9,17,1,6,0.37000000000000016,4,9,51,50,4,29,0.8600000000000004,0.3000000000000001,0.3900000000000002,0.16,6,2,3,2,11,3,4,2,4,0,19,7,LH,0.07818181818181819,0.1,0.0975,0.07999999999999999
5,9,18,1,9,0.21000000000000005,2,3,70,114,82,13,0.7400000000000003,1.290000000000001,0.45000000000000023,0.04,4,2,2,2,7,9,3,2,4,0,15,7,LH,0.10571428571428572,0.14333333333333334,0.15000000000000002,0.02
5,10,19,1,7,0.4100000000000002,2,3,89,95,68,45,1.0500000000000005,0.21000000000000005,0.18000000000000002,0.060000000000000005,4,1,1,1,6,1,1,1,3,0,15,7,LH,0.17500000000000004,0.21000000000000005,0.18000000000000002,0.060000000000000005
5,10,20,1,5,0.24000000000000007,2,5,6,35,81,4,0.5600000000000002,1.2500000000000009,0.6500000000000004,0.05,4,2,2,1,7,10,4,1,6,0,20,7,LH,0.08000000000000002,0.12500000000000003,0.16250000000000003,0.05
5,11,21,1,8,0.22000000000000006,2,4,119,112,109,76,0.6300000000000002,0.19000000000000003,0.24000000000000007,0.2900000000000001,3,1,2,2,5,1,2,3,2,0.5,9,7,LH,0.12600000000000003,0.19000000000000003,0.12000000000000002,0.09666666666666666
5,11,22,1,5,0.3900000000000002,2,6,8,88,51,107,0.8700000000000004,0.5000000000000002,0.22000000000000006,0.3000000000000001,4,3,2,2,11,7,2,3,6,0,15,7,LH,0.0790909090909091,0.07142857142857142,0.11,0.10000000000000002
5,12,23,1,8,0.2900000000000001,3,5,109,37,4,11,0.7600000000000003,0.6200000000000003,0.19000000000000003,0.24000000000000007,6,2,1,2,11,7,1,2,2,0,19,7,LH,0.06909090909090909,0.08857142857142858,0.19000000000000003,0.11999999999999998
5,12,24,1,4,0.21000000000000005,2,4,100,97,63,34,0.7300000000000003,0.07,0.2900000000000001,0.3200000000000001,4,1,1,2,9,1,2,2,2,0,13,7,LH,0.08111111111111112,0.07,0.145,0.16000000000000003
5,13,25,1,1,0.5200000000000002,2,4,15,111,31,35,1.4100000000000008,0.18000000000000002,0.08,0.10999999999999999,4,2,1,2,8,3,1,3,5,0,18,7,LH,0.17625000000000005,0.060000000000000005,0.08,0.03666666666666667
5,13,26,1,5,0.37000000000000016,3,6,5,4,72,37,0.9500000000000004,3.9099999999999606,0.01,0.02,5,11,1,1,13,23,1,2,6,0,21,7,LH,0.07307692307692308,0.17000000000000004,0.01,0.01
5,14,27,1,5,0.2800000000000001,2,6,5,1,74,42,0.6500000000000002,2.6999999999999864,0.09999999999999999,0.01,4,6,2,1,8,15,2,1,6,0,20,7,LH,0.08125000000000002,0.18000000000000005,0.049999999999999996,0.01
5,14,28,1,8,0.2800000000000001,2,5,116,86,117,65,0.5900000000000002,0.2900000000000001,0.6000000000000003,0.060000000000000005,4,1,2,1,9,1,5,1,2,0,11,7,LH,0.06555555555555556,0.2900000000000001,0.12000000000000005,0.060000000000000005
5,15,29,1,6,0.19000000000000003,2,3,53,59,56,82,0.5600000000000002,0.5900000000000003,0.24000000000000007,0.3300000000000001,4,2,2,2,5,3,3,2,4,0.5,15,7,LH,0.112,0.19666666666666674,0.08000000000000002,0.16500000000000004
5,15,30,1,9,0.4000000000000002,4,6,65,69,72,21,0.9900000000000004,0.2700000000000001,0.25000000000000006,0.02,6,2,2,1,13,4,2,1,4,0.5,18,7,LH,0.07615384615384616,0.0675,0.125,0.02
5,16,31,1,5,0.18000000000000002,2,5,11,47,60,56,0.6200000000000002,0.48000000000000026,0.08,0.3900000000000002,5,3,2,2,9,6,3,3,6,0,19,7,LH,0.06888888888888889,0.08,0.02666666666666667,0.13000000000000003
5,16,32,1,1,0.34000000000000014,2,5,31,61,70,26,0.8200000000000004,0.37000000000000016,0.17,0.11999999999999998,4,2,1,1,11,3,1,1,5,0,18,7,LH,0.07454545454545455,0.12333333333333335,0.17,0.11999999999999998
5,17,33,1,1,0.34000000000000014,9,9,28,14,63,22,1.0600000000000005,2.259999999999996,0.26000000000000006,0.02,11,4,3,1,14,14,3,1,5,0,21,7,LH,0.07571428571428572,0.16142857142857148,0.08666666666666666,0.02
5,17,34,1,5,1.260000000000001,4,8,8,59,45,6,1.5000000000000009,0.3300000000000001,0.4000000000000002,0.7200000000000004,6,2,2,4,13,3,3,6,6,0,21,7,LH,0.1153846153846154,0.10999999999999999,0.13333333333333336,0.12000000000000002
5,18,35,1,4,0.19000000000000003,3,4,106,38,65,67,0.5700000000000002,0.34000000000000014,0.6800000000000004,0.17,4,2,2,1,5,3,4,1,2,0,15,7,LH,0.11400000000000003,0.11333333333333334,0.17000000000000007,0.17
5,18,36,1,10,0.4100000000000002,3,5,24,16,120,20,0.8200000000000004,0.3300000000000001,0.17,0.16,5,1,1,2,7,1,2,3,6,0.5,20,7,LH,0.11714285714285716,0.3300000000000001,0.08499999999999999,0.05333333333333334
5,19,37,1,9,0.19000000000000003,2,3,72,62,77,83,0.5100000000000001,0.5300000000000002,0.09999999999999999,0.8700000000000006,4,2,1,5,5,3,1,5,4,0,14,7,LH,0.10200000000000002,0.17666666666666672,0.09999999999999999,0.17400000000000004
5,19,38,1,6,0.2900000000000001,9,9,54,57,59,56,0.7000000000000003,0.2700000000000001,0.5900000000000003,0.2800000000000001,11,2,2,3,12,4,2,5,4,1,48,7,LH,0.05833333333333334,0.06749999999999999,0.29500000000000015,0.055999999999999994
5,20,39,1,5,0.7000000000000004,6,9,2,1,3,38,1.1900000000000006,2.149999999999998,0.01,0.15,8,8,1,1,12,14,1,1,6,0.5,23,7,LH,0.0991666666666667,0.15357142857142864,0.01,0.15
5,20,40,1,7,0.26000000000000006,2,5,91,95,89,21,0.7500000000000003,0.34000000000000014,0.04,0.16,4,2,1,1,8,3,1,1,3,0.5,15,7,LH,0.09375000000000003,0.11333333333333336,0.04,0.16
5,21,41,1,2,0.19000000000000003,2,3,77,75,40,116,0.6500000000000002,0.09999999999999999,1.380000000000001,0.5100000000000002,4,1,8,2,5,1,10,3,3,0,13,7,LH,0.13,0.09999999999999999,0.13800000000000004,0.17000000000000004
5,21,42,1,1,0.2900000000000001,2,6,36,56,96,103,0.9200000000000004,0.3100000000000001,0.15,0.09999999999999999,4,1,2,1,8,2,3,1,5,0,14,7,LH,0.11500000000000003,0.155,0.05,0.09999999999999999
5,22,43,1,7,0.4100000000000002,12,12,90,19,14,106,0.8500000000000004,3.3999999999999715,0.25000000000000006,0.24000000000000007,14,10,3,3,15,20,3,3,3,0,17,7,LH,0.05666666666666668,0.17000000000000007,0.08333333333333336,0.08
5,22,44,1,3,0.34000000000000014,3,6,47,6,63,72,1.1100000000000005,0.36000000000000015,0.08,0.09999999999999999,6,2,2,2,10,2,2,2,5,0,19,7,LH,0.11100000000000003,0.18000000000000005,0.04,0.05
6,1,1,0,9,0.3100000000000001,2,4,5,61,28,65,1.2700000000000007,0.34000000000000014,0.12999999999999998,0.15,3,2,1,2,5,2,1,2,4,0,19,7,LH,0.2540000000000001,0.17000000000000004,0.12999999999999998,0.07499999999999998
6,1,2,0,8,0.25000000000000006,2,3,43,95,119,89,1.5000000000000009,0.3200000000000001,0.13999999999999999,0.02,6,2,2,1,11,3,2,1,2,0,13,7,LH,0.1363636363636364,0.10666666666666666,0.06999999999999999,0.02
6,2,3,0,9,0.26000000000000006,2,4,61,112,113,10,0.9700000000000004,0.2700000000000001,0.6800000000000004,0.04,6,1,2,1,10,1,4,1,4,0,14,7,LH,0.097,0.2700000000000001,0.17000000000000007,0.04
6,2,4,0,10,0.25000000000000006,2,4,13,90,30,54,4.939999999999944,0.01,0.01,0.20000000000000004,13,1,1,1,31,1,1,1,6,0,18,7,LH,0.15935483870967748,0.01,0.01,0.20000000000000004
6,3,5,0,3,0.2900000000000001,2,3,47,41,116,15,1.0500000000000005,0.19000000000000003,0.2800000000000001,0.2700000000000001,4,1,2,1,7,1,2,1,5,0,18,7,LH,0.15000000000000002,0.19000000000000003,0.13999999999999999,0.2700000000000001
6,3,6,0,9,0.2800000000000001,2,3,67,1,61,88,1.0000000000000004,0.7100000000000004,0.03,0.10999999999999999,4,2,1,1,7,2,1,1,4,0,17,7,LH,0.14285714285714288,0.3550000000000002,0.03,0.10999999999999999
6,4,7,0,6,0.4200000000000002,4,5,20,51,42,18,0.9900000000000004,0.35000000000000014,2.5499999999999896,0.03,6,2,10,1,8,3,13,1,4,0,21,7,LH,0.12375000000000003,0.11666666666666667,0.19615384615384623,0.03
6,4,8,0,2,0.24000000000000007,2,3,7,71,81,113,1.3200000000000007,0.26000000000000006,0.04,0.08,7,3,1,1,11,4,1,1,3,0,15,7,LH,0.12000000000000002,0.06499999999999999,0.04,0.08
6,5,9,0,7,0.36000000000000015,2,3,94,95,96,106,2.390000000000001,0.04,1.7400000000000013,0.07,8,1,9,3,14,1,9,3,3,0.5,20,7,LH,0.17071428571428576,0.04,0.19333333333333338,0.02333333333333333
6,5,10,0,5,0.36000000000000015,2,5,5,117,1,40,1.2500000000000007,1.2100000000000009,0.7500000000000004,0.02,4,4,3,1,15,8,3,1,6,0,19,7,LH,0.08333333333333333,0.15125000000000002,0.2500000000000001,0.02
6,6,11,0,7,0.23000000000000007,2,4,88,65,72,23,0.6300000000000002,0.48000000000000026,0.19000000000000003,0.16,3,2,1,1,5,4,1,1,3,0,17,7,LH,0.12600000000000003,0.12000000000000002,0.19000000000000003,0.16
6,6,12,0,5,0.3000000000000001,3,4,12,5,26,35,0.9900000000000004,0.11999999999999998,0.9200000000000006,1.8300000000000014,5,1,3,5,10,1,5,6,6,0,22,7,LH,0.099,0.11999999999999998,0.18400000000000005,0.30500000000000016
6,7,13,1,8,0.25000000000000006,3,4,2,116,60,35,1.3100000000000007,0.11999999999999998,0.05,0.5500000000000003,6,2,1,2,12,2,1,2,2,0,17,7,LH,0.10916666666666668,0.060000000000000005,0.05,0.27500000000000013
6,7,14,1,7,0.38000000000000017,2,5,90,91,71,39,1.3000000000000007,0.10999999999999999,0.3300000000000001,0.08,4,1,2,2,12,1,4,2,3,0,15,7,LH,0.10833333333333334,0.10999999999999999,0.08250000000000002,0.04
6,8,15,1,6,0.3900000000000002,2,3,54,104,21,59,0.9300000000000004,0.9400000000000006,0.2900000000000001,0.13999999999999999,4,3,3,1,7,4,3,1,4,0,16,7,LH,0.13285714285714287,0.2350000000000001,0.09666666666666668,0.13999999999999999
6,8,16,1,8,0.45000000000000023,4,6,70,37,115,86,1.2900000000000007,0.18000000000000002,0.11999999999999998,0.16,6,1,2,2,13,1,2,2,2,0,14,7,LH,0.09923076923076923,0.18000000000000002,0.060000000000000005,0.08
6,9,17,1,4,0.4400000000000002,7,9,101,98,58,88,1.2700000000000007,0.4300000000000002,0.2700000000000001,0.05,9,2,2,1,16,5,2,1,2,0,11,7,LH,0.07937500000000001,0.08600000000000001,0.13500000000000004,0.05
6,9,18,1,5,0.36000000000000015,2,5,4,3,83,78,1.1800000000000006,8.099999999999872,0.07,0.01,4,19,1,1,11,43,1,1,6,0,18,7,LH,0.10727272727272728,0.18837209302325586,0.07,0.01
6,10,19,1,6,0.21000000000000005,3,4,58,16,51,113,0.7500000000000003,0.6600000000000004,0.03,0.13999999999999999,6,2,1,2,8,3,1,2,4,0,16,7,LH,0.09375000000000001,0.22000000000000008,0.03,0.07
6,10,20,1,3,0.26000000000000006,2,3,4,74,45,99,1.3400000000000007,0.13999999999999999,0.05,0.11999999999999998,5,1,1,2,8,1,1,2,5,0,16,7,LH,0.16750000000000004,0.13999999999999999,0.05,0.060000000000000005
6,11,21,1,1,0.45000000000000023,10,10,29,34,87,33,1.1700000000000006,0.24000000000000007,0.3100000000000001,0.10999999999999999,12,2,2,2,15,3,2,2,5,0.5,18,7,LH,0.078,0.07999999999999999,0.155,0.055
6,11,22,1,2,0.46000000000000024,2,8,47,13,43,23,1.1900000000000006,0.19000000000000003,0.38000000000000017,0.18000000000000002,4,1,3,2,12,1,4,2,3,0,22,7,LH,0.09916666666666668,0.19000000000000003,0.095,0.09000000000000001
6,12,23,1,3,0.3000000000000001,2,6,46,44,99,39,1.0300000000000005,0.10999999999999999,0.20000000000000004,0.5100000000000002,4,1,1,3,10,1,1,4,5,0.5,17,7,LH,0.10300000000000001,0.10999999999999999,0.20000000000000004,0.1275
6,12,24,1,6,0.20000000000000004,2,5,57,109,16,111,0.5300000000000001,0.9000000000000006,0.18000000000000002,0.23000000000000007,4,3,2,2,9,4,3,2,4,0,14,7,LH,0.0588888888888889,0.2250000000000001,0.06,0.115
6,13,25,1,10,0.23000000000000007,2,3,23,113,120,47,1.0000000000000004,0.21000000000000005,0.2700000000000001,0.13999999999999999,4,2,2,2,7,2,3,2,6,0,15,7,LH,0.14285714285714288,0.105,0.09000000000000001,0.07
6,13,26,1,5,0.16,2,3,2,9,4,8,0.7600000000000003,0.09999999999999999,0.4000000000000002,3.3599999999999723,5,1,2,12,8,1,4,19,6,1,72,7,LH,0.095,0.09999999999999999,0.10000000000000002,0.17684210526315794
6,14,27,1,2,0.3900000000000002,5,9,73,80,77,119,1.1300000000000006,0.5300000000000002,0.12999999999999998,1.2200000000000009,8,2,2,6,15,4,2,9,3,0.5,11,7,LH,0.07533333333333334,0.1325,0.065,0.1355555555555556
6,14,28,1,4,0.2900000000000001,2,4,99,20,102,107,1.0500000000000005,0.4200000000000002,0.4000000000000002,0.7100000000000004,4,2,2,5,10,2,2,6,2,0.5,12,7,LH,0.10500000000000001,0.21000000000000008,0.20000000000000004,0.11833333333333332
6,15,29,1,3,0.38000000000000017,2,3,110,119,113,56,1.750000000000001,0.3900000000000002,0.05,0.47000000000000025,6,2,1,1,10,2,1,1,5,0.5,10,7,LH,0.17500000000000004,0.19500000000000006,0.05,0.47000000000000025
6,15,30,1,2,0.23000000000000007,1,2,80,83,103,74,0.8300000000000004,0.20000000000000004,1.1200000000000008,0.02,2,1,5,1,3,1,6,1,3,0.5,11,7,LH,0.2766666666666668,0.20000000000000004,0.1866666666666667,0.02
6,16,31,1,1,0.20000000000000004,2,5,32,25,97,63,0.7600000000000003,0.18000000000000002,1.1200000000000008,0.7100000000000004,4,1,6,3,9,1,6,3,5,0,16,7,LH,0.08444444444444445,0.18000000000000002,0.18666666666666673,0.23666666666666678
6,16,32,1,5,0.17,1,2,7,10,3,44,0.7300000000000003,0.2800000000000001,1.360000000000001,0.10999999999999999,3,1,3,2,4,1,3,2,6,0.5,23,7,LH,0.18250000000000005,0.2800000000000001,0.45333333333333364,0.05499999999999999
6,17,33,1,2,0.5900000000000003,2,6,71,108,29,106,1.4500000000000008,0.3200000000000001,0.11999999999999998,0.15,4,2,1,2,9,3,1,5,3,0,13,7,LH,0.16111111111111115,0.10666666666666666,0.11999999999999998,0.03
6,17,34,1,3,0.19000000000000003,2,4,11,41,44,9,1.4100000000000008,0.8600000000000005,0.01,0.04,6,6,1,2,8,8,1,2,5,0,22,7,LH,0.17625000000000005,0.10750000000000001,0.01,0.02
6,18,35,1,1,0.26000000000000006,2,4,76,79,118,83,1.2800000000000007,1.0300000000000007,0.05,0.03,6,5,1,1,8,5,1,1,5,0.5,11,7,LH,0.16000000000000006,0.2060000000000001,0.05,0.03
6,18,36,1,7,0.3200000000000001,3,5,86,62,90,19,0.9500000000000004,1.1800000000000008,0.24000000000000007,0.01,5,4,2,1,10,6,2,1,3,0,16,7,LH,0.09500000000000001,0.19666666666666674,0.12000000000000001,0.01
6,19,37,1,2,0.35000000000000014,3,5,82,65,78,33,0.9900000000000004,0.35000000000000014,0.17,0.07,5,2,2,1,11,3,2,1,3,0,15,7,LH,0.09,0.11666666666666665,0.08499999999999999,0.07
6,19,38,1,6,0.26000000000000006,2,4,51,56,5,101,1.0700000000000005,0.05,0.2900000000000001,0.2800000000000001,4,1,2,2,11,1,2,2,4,0,16,7,LH,0.09727272727272727,0.05,0.145,0.14
6,20,39,1,5,0.2700000000000001,2,3,5,28,95,89,0.9100000000000004,0.7200000000000004,0.18000000000000002,0.05,5,1,3,1,7,1,3,1,6,0,17,7,LH,0.13000000000000003,0.7200000000000004,0.06,0.05
6,20,40,1,10,0.23000000000000007,2,4,19,73,14,16,0.7800000000000004,0.2900000000000001,0.4100000000000002,0.13999999999999999,4,1,3,3,6,2,4,3,6,0.5,21,7,LH,0.13000000000000003,0.14500000000000002,0.10250000000000002,0.04666666666666667
6,21,41,1,7,0.4200000000000002,2,6,105,13,26,102,1.1600000000000006,0.16,0.22000000000000006,0.060000000000000005,4,1,2,1,9,1,4,1,3,0,15,7,LH,0.12888888888888894,0.16,0.055,0.060000000000000005
6,21,42,1,8,2.9299999999999815,10,25,110,73,54,58,2.9499999999999815,0.01,0.6600000000000004,0.3000000000000001,12,1,2,2,27,1,3,3,2,0,13,7,LH,0.10925925925925928,0.01,0.22000000000000006,0.10000000000000002
6,22,43,1,5,0.3900000000000002,5,8,70,5,1,115,1.4800000000000009,0.04,1.5800000000000012,0.01,8,1,7,1,15,1,8,1,6,0,18,7,LH,0.09866666666666668,0.04,0.19750000000000006,0.01
6,22,44,1,1,0.5600000000000003,2,5,74,73,106,22,1.2800000000000007,0.4200000000000002,0.05,0.07,4,2,1,1,8,3,1,1,5,0,14,7,LH,0.16000000000000003,0.13999999999999999,0.05,0.07
7,1,1,0,5,0.21000000000000005,2,5,6,101,3,99,0.37000000000000005,1.5700000000000012,0.10999999999999999,0.01,4,14,3,1,7,22,3,1,6,0,16,7,LH,0.05285714285714286,0.07136363636363637,0.03666666666666667,0.01
7,1,2,0,8,0.18000000000000002,2,3,115,111,118,37,0.37000000000000005,0.12999999999999998,0.09,0.21000000000000005,4,2,1,2,5,3,1,2,2,0.5,17,7,LH,0.07400000000000001,0.043333333333333335,0.09,0.10500000000000001
7,2,3,0,3,0.23000000000000007,2,7,48,46,107,94,0.5500000000000002,0.07,0.08,0.10999999999999999,4,1,1,2,11,1,1,3,5,0,15,7,LH,0.049999999999999996,0.07,0.08,0.03666666666666667
7,2,4,0,8,0.21000000000000005,2,4,116,19,16,73,0.4500000000000001,0.2900000000000001,0.09,0.12999999999999998,4,4,2,2,6,5,2,2,2,0,17,7,LH,0.075,0.05800000000000001,0.045,0.065
7,3,5,0,2,0.20000000000000004,2,8,79,100,22,32,0.4700000000000001,0.13999999999999999,0.09999999999999999,0.16,4,2,2,2,12,3,3,4,3,0,16,7,LH,0.03916666666666667,0.04666666666666667,0.03333333333333333,0.04
7,3,6,0,7,0.20000000000000004,2,4,92,118,93,96,0.5900000000000002,0.04,0.2900000000000001,0.01,4,1,4,1,11,1,5,1,3,0.5,20,7,LH,0.053636363636363635,0.04,0.05800000000000001,0.01
7,4,7,0,2,0.17,2,5,83,76,111,28,0.5100000000000001,0.02,0.18000000000000002,0.07,4,1,2,2,11,1,2,3,3,0,13,7,LH,0.046363636363636364,0.02,0.09,0.023333333333333334
7,4,8,0,7,0.24000000000000007,2,4,95,8,37,46,0.5600000000000002,0.20000000000000004,0.05,0.05,4,3,2,2,10,3,2,2,3,0,19,7,LH,0.056,0.06666666666666667,0.025,0.025
7,5,9,0,2,0.20000000000000004,2,5,82,81,102,80,0.5000000000000001,0.060000000000000005,0.10999999999999999,0.04,4,1,3,1,9,1,3,1,3,0.5,20,7,LH,0.05555555555555555,0.060000000000000005,0.03666666666666667,0.04
7,5,10,0,10,0.13999999999999999,3,4,14,23,48,20,0.4700000000000001,0.02,0.11999999999999998,0.03,5,1,2,1,11,1,3,1,6,0.5,41,7,LH,0.042727272727272725,0.02,0.04,0.03
7,6,11,0,6,0.23000000000000007,2,5,52,85,9,57,0.4500000000000001,0.26000000000000006,0.04,0.02,4,2,1,1,7,5,1,1,4,0,17,7,LH,0.0642857142857143,0.052,0.04,0.02
7,6,12,0,10,0.19000000000000003,2,4,17,107,16,83,0.5000000000000001,0.08,0.11999999999999998,0.5300000000000002,4,1,2,4,8,1,2,6,6,0,17,7,LH,0.0625,0.08,0.060000000000000005,0.08833333333333333
7,7,13,1,10,0.21000000000000005,2,5,20,116,34,30,0.5900000000000002,0.02,0.36000000000000015,0.13999999999999999,4,1,3,3,11,1,4,3,6,0,18,7,LH,0.05363636363636364,0.02,0.09,0.04666666666666666
7,7,14,1,4,0.20000000000000004,2,4,97,99,7,39,0.4000000000000001,0.2800000000000001,0.09,0.02,4,2,2,1,8,4,2,1,2,0,15,7,LH,0.05,0.06999999999999999,0.045,0.02
7,8,15,1,2,0.18000000000000002,2,4,38,60,44,114,0.5900000000000002,0.15,0.02,0.05,4,1,1,1,9,1,1,1,3,0,16,7,LH,0.06555555555555556,0.15,0.02,0.05
7,8,16,1,7,0.23000000000000007,2,4,89,35,90,20,0.47000000000000014,0.36000000000000015,0.060000000000000005,0.05,5,2,1,2,10,7,1,2,3,0,17,7,LH,0.047,0.05142857142857143,0.060000000000000005,0.025
7,9,17,1,10,0.21000000000000005,2,3,23,19,47,21,0.4100000000000001,0.19000000000000003,0.060000000000000005,0.34000000000000014,4,1,1,3,5,1,1,5,6,0.5,23,7,LH,0.082,0.19000000000000003,0.060000000000000005,0.068
7,9,18,1,5,0.26000000000000006,2,7,1,116,31,65,0.4700000000000001,0.35000000000000014,0.10999999999999999,0.01,4,2,2,1,9,3,2,1,6,0,17,7,LH,0.052222222222222225,0.11666666666666668,0.05499999999999999,0.01
7,10,19,1,4,0.20000000000000004,2,4,100,38,73,24,0.4100000000000001,0.2700000000000001,0.08,0.04,4,2,2,2,7,5,2,3,2,0,16,7,LH,0.05857142857142857,0.054,0.04,0.013333333333333334
7,10,20,1,7,0.24000000000000007,2,9,86,9,70,11,0.5900000000000002,0.18000000000000002,0.02,0.04,4,2,1,1,13,5,1,1,3,0,19,7,LH,0.045384615384615384,0.036,0.02,0.04
7,11,21,1,4,0.22000000000000006,2,7,105,47,94,1,0.5600000000000002,0.08,0.07,0.07,4,1,1,1,12,1,1,1,2,0,16,7,LH,0.04666666666666666,0.08,0.07,0.07
7,11,22,1,9,0.21000000000000005,2,4,61,20,25,16,0.5100000000000001,0.18000000000000002,0.03,0.09,5,2,1,2,10,7,1,2,4,0,21,7,LH,0.051,0.025714285714285714,0.03,0.045000000000000005
7,12,23,1,9,0.17,1,2,68,43,99,24,0.5100000000000001,0.17,0.09999999999999999,0.03,3,2,2,1,6,5,3,1,4,0,17,7,LH,0.085,0.033999999999999996,0.03333333333333333,0.03
7,12,24,1,8,0.20000000000000004,2,8,116,89,56,3,0.5000000000000001,0.060000000000000005,0.16,0.09,4,1,2,2,12,1,2,2,2,0,15,7,LH,0.041666666666666664,0.060000000000000005,0.08,0.045
7,13,25,1,2,0.16,2,3,73,83,66,115,0.39000000000000007,0.13999999999999999,0.16,0.060000000000000005,4,2,1,1,9,3,1,1,3,0,12,7,LH,0.043333333333333335,0.04666666666666667,0.16,0.060000000000000005
7,13,26,1,5,0.22000000000000006,2,5,3,106,107,87,0.5200000000000001,2.259999999999996,1.6000000000000012,0.7300000000000004,4,15,13,5,11,35,28,5,6,0,13,7,LH,0.04727272727272727,0.06457142857142857,0.05714285714285714,0.14600000000000002
7,14,27,1,1,0.19000000000000003,2,6,27,20,33,53,0.4800000000000001,0.18000000000000002,0.03,0.11999999999999998,4,2,1,2,12,4,1,2,5,0,20,7,LH,0.04,0.045,0.03,0.06
7,14,28,1,8,0.12999999999999998,2,3,118,12,63,70,0.33,0.19000000000000003,0.09999999999999999,0.05,4,2,1,1,5,4,1,2,2,0,16,7,LH,0.066,0.047499999999999994,0.09999999999999999,0.025
7,15,29,1,8,0.17,2,5,111,4,113,79,0.5200000000000001,0.08,0.17,0.03,4,1,3,1,9,1,3,1,2,0,13,7,LH,0.05777777777777778,0.08,0.056666666666666664,0.03
7,15,30,1,4,0.24000000000000007,2,4,107,57,85,104,0.5400000000000001,0.20000000000000004,0.03,0.04,4,2,1,1,8,6,1,1,2,0,11,7,LH,0.0675,0.03333333333333333,0.03,0.04
7,16,31,1,3,0.19000000000000003,2,3,41,98,49,54,0.38000000000000006,0.20000000000000004,0.07,0.13999999999999999,5,2,1,2,7,5,1,2,5,0,15,7,LH,0.054285714285714284,0.04,0.07,0.06999999999999999
7,16,32,1,5,0.21000000000000005,2,4,3,30,65,112,0.4700000000000001,0.13999999999999999,0.07,0.01,4,1,1,1,8,1,1,1,6,0,17,7,LH,0.058750000000000004,0.13999999999999999,0.07,0.01
7,17,33,1,1,0.24000000000000007,2,5,25,53,55,118,0.7000000000000003,0.09,0.03,0.04,5,2,2,1,15,5,2,1,5,0,15,7,LH,0.04666666666666667,0.018,0.015,0.04
7,17,34,1,3,0.17,2,4,40,102,101,108,0.4700000000000001,0.19000000000000003,0.09,0.01,5,2,2,1,8,3,2,1,5,0.5,11,7,LH,0.05875,0.06333333333333332,0.045,0.01
7,18,35,1,10,0.21000000000000005,3,6,19,13,55,25,0.4500000000000001,2.0000000000000013,0.01,0.01,5,9,1,1,10,16,1,1,6,0,21,7,LH,0.045,0.125,0.01,0.01
7,18,36,1,5,0.18000000000000002,2,5,9,39,11,71,0.5700000000000002,0.4400000000000002,0.17,0.12999999999999998,5,2,4,2,13,2,4,3,6,0,21,7,LH,0.04384615384615385,0.2200000000000001,0.042499999999999996,0.043333333333333335
7,19,37,1,1,0.24000000000000007,2,5,33,66,102,75,0.47000000000000014,0.15,0.05,0.10999999999999999,4,2,2,2,7,3,3,2,5,0,14,7,LH,0.06714285714285714,0.049999999999999996,0.016666666666666666,0.055
7,19,38,1,6,0.18000000000000002,2,5,50,11,51,9,0.4000000000000001,0.24000000000000007,0.01,0.05,4,2,1,1,7,4,1,1,4,0,20,7,LH,0.05714285714285715,0.06,0.01,0.05
7,20,39,1,6,0.17,2,3,77,57,26,25,0.5300000000000001,0.03,0.09,0.09,4,1,1,2,6,1,1,3,4,0,17,7,LH,0.08833333333333335,0.03,0.09,0.030000000000000002
7,20,40,1,8,0.18000000000000002,2,5,118,67,64,23,0.44000000000000006,0.19000000000000003,0.02,0.08,6,2,1,3,11,2,1,3,2,0,16,7,LH,0.04,0.095,0.02,0.026666666666666665
7,21,41,1,9,0.25000000000000006,2,5,30,69,14,22,0.6500000000000002,0.01,0.07,0.03,4,1,2,1,10,1,3,1,4,0,21,7,LH,0.065,0.01,0.023333333333333334,0.03
7,21,42,1,5,0.21000000000000005,2,3,11,105,4,57,0.4500000000000001,0.20000000000000004,0.15,0.02,4,2,3,1,5,3,4,1,6,0,18,7,LH,0.09000000000000001,0.06666666666666667,0.0375,0.02
7,22,43,1,10,0.20000000000000004,2,4,23,16,33,14,0.4100000000000001,0.13999999999999999,0.13999999999999999,0.6900000000000004,3,2,2,5,5,3,3,6,6,0.5,23,7,LH,0.08200000000000002,0.04666666666666667,0.04666666666666667,0.115
7,22,44,1,3,0.18000000000000002,4,6,48,40,39,81,0.44000000000000006,0.060000000000000005,0.12999999999999998,0.07,6,1,2,2,10,1,3,3,5,0.5,18,7,LH,0.044000000000000004,0.060000000000000005,0.043333333333333335,0.023333333333333334
8,1,1,0,10,0.2700000000000001,2,3,17,20,64,39,0.6200000000000002,14.399999999999737,0.04,0.4100000000000002,3,16,1,2,4,23,1,2,6,0,21,7,LH,0.15500000000000003,0.6260869565217387,0.04,0.2050000000000001
8,1,2,0,7,0.2800000000000001,2,4,116,119,110,4,1.1200000000000006,0.10999999999999999,0.20000000000000004,0.46000000000000024,3,1,1,2,5,1,1,2,3,0.5,18,7,LH,0.22400000000000012,0.10999999999999999,0.20000000000000004,0.23000000000000012
8,2,3,0,3,0.3100000000000001,1,2,1,56,50,41,1.0500000000000005,0.47000000000000025,3.0199999999999796,0.01,2,1,2,1,3,2,3,1,5,0,19,7,LH,0.35000000000000014,0.23500000000000004,1.0066666666666615,0.01
8,2,4,0,10,0.45000000000000023,8,9,66,113,82,23,2.799999999999994,0.01,0.5400000000000003,0.02,11,1,1,1,12,1,1,1,6,0,15,7,LH,0.23333333333333348,0.01,0.5400000000000003,0.02
8,3,5,0,8,0.34000000000000014,3,5,39,70,69,48,1.2400000000000007,0.6400000000000003,0.05,0.01,5,2,1,1,7,2,1,1,2,0,18,7,LH,0.1771428571428572,0.3200000000000002,0.05,0.01
8,3,6,0,2,0.3900000000000002,2,4,75,81,50,59,1.0300000000000005,0.05,0.19000000000000003,1.460000000000001,4,1,1,3,6,1,1,4,3,0,14,7,LH,0.17166666666666672,0.05,0.19000000000000003,0.3650000000000002
8,4,7,0,1,0.2900000000000001,2,3,26,70,61,33,10.86999999999982,0.8000000000000005,0.01,0.38000000000000017,14,2,1,3,16,2,1,4,5,0,18,7,LH,0.6793749999999998,0.40000000000000024,0.01,0.09499999999999999
8,4,8,0,4,0.24000000000000007,2,3,106,51,42,102,0.9100000000000005,0.13999999999999999,0.060000000000000005,0.26000000000000006,4,1,1,2,7,1,1,2,2,0,13,7,LH,0.13,0.13999999999999999,0.060000000000000005,0.13000000000000003
8,5,9,0,1,0.26000000000000006,2,3,118,88,25,58,0.8300000000000003,0.35000000000000014,0.05,0.09,3,1,1,1,4,1,1,1,5,0,14,7,LH,0.20750000000000007,0.35000000000000014,0.05,0.09
8,5,10,0,4,0.24000000000000007,2,3,98,101,105,40,0.7200000000000003,0.07,0.19000000000000003,0.15,4,1,2,2,6,1,2,2,2,0.5,17,7,LH,0.12,0.07,0.095,0.075
8,6,11,0,10,0.5100000000000002,12,13,18,13,20,57,0.8300000000000003,0.19000000000000003,1.7100000000000013,0.19000000000000003,14,1,2,1,15,1,2,1,6,0.5,40,7,LH,0.05533333333333334,0.19000000000000003,0.8550000000000006,0.19000000000000003
8,6,12,0,4,0.49000000000000027,2,3,26,78,74,79,1.0400000000000005,0.3900000000000002,0.15,0.04,3,1,1,1,4,1,1,1,2,0.5,23,7,LH,0.26000000000000006,0.3900000000000002,0.15,0.04
8,7,13,1,1,0.3100000000000001,2,3,26,9,93,118,0.6300000000000002,0.47000000000000025,0.10999999999999999,0.04,3,2,1,1,4,2,1,1,5,0,16,7,LH,0.15750000000000003,0.23500000000000004,0.10999999999999999,0.04
8,7,14,1,2,0.46000000000000024,4,5,104,15,98,100,0.8700000000000004,4.069999999999958,0.01,0.01,5,6,1,1,7,7,1,1,3,0.5,12,7,LH,0.1242857142857143,0.5814285714285718,0.01,0.01
8,8,15,1,5,0.12999999999999998,2,2,2,103,108,27,0.6300000000000002,1.410000000000001,0.12999999999999998,0.02,3,2,2,1,3,2,2,1,6,0,15,7,LH,0.21000000000000008,0.7050000000000005,0.06499999999999999,0.02
8,8,16,1,6,1.1900000000000008,4,5,76,78,74,59,1.720000000000001,0.20000000000000004,0.09999999999999999,0.6600000000000004,5,1,1,2,6,1,1,2,4,0.5,13,7,LH,0.28666666666666685,0.20000000000000004,0.09999999999999999,0.3300000000000002
8,9,17,1,1,0.3000000000000001,2,3,55,109,80,83,0.7500000000000003,0.24000000000000007,0.17,0.10999999999999999,3,1,1,1,4,1,1,1,5,0,12,7,LH,0.18750000000000006,0.24000000000000007,0.17,0.10999999999999999
8,9,18,1,9,0.22000000000000006,2,3,68,44,67,65,1.1700000000000006,0.18000000000000002,0.01,0.49000000000000027,4,1,1,2,5,1,1,3,4,0.5,17,7,LH,0.23400000000000012,0.18000000000000002,0.01,0.16333333333333339
8,10,19,1,8,0.6100000000000003,3,5,51,117,75,52,2.3500000000000014,0.01,0.01,0.01,7,1,1,1,9,1,1,1,2,0,13,7,LH,0.26111111111111124,0.01,0.01,0.01
8,10,20,1,4,0.10999999999999999,2,2,7,43,88,102,10.849999999999815,0.36000000000000015,0.01,0.01,13,2,1,1,14,2,1,1,2,0,16,7,LH,0.7749999999999979,0.18000000000000008,0.01,0.01
8,11,21,1,5,0.23000000000000007,2,3,6,54,56,44,0.8300000000000004,0.22000000000000006,0.10999999999999999,1.1200000000000008,4,1,1,3,5,1,1,3,6,0,19,7,LH,0.16600000000000004,0.22000000000000006,0.10999999999999999,0.3733333333333336
8,11,22,1,2,0.25000000000000006,2,3,74,115,20,82,0.6400000000000002,0.5300000000000002,0.8700000000000006,0.01,4,2,2,1,5,2,2,1,3,0,14,7,LH,0.128,0.2650000000000001,0.4350000000000003,0.01
8,12,23,1,5,0.5100000000000002,2,4,107,25,10,12,1.2500000000000007,0.18000000000000002,0.10999999999999999,0.04,3,2,1,1,6,2,1,1,6,0,19,7,LH,0.20833333333333343,0.09,0.10999999999999999,0.04
8,12,24,1,8,0.37000000000000016,2,3,19,44,110,119,2.0600000000000014,0.01,0.5300000000000002,0.01,6,1,2,1,7,1,2,1,2,0,15,7,LH,0.29428571428571443,0.01,0.2650000000000001,0.01
8,13,25,1,4,0.2800000000000001,2,3,106,49,33,101,0.6400000000000002,0.9400000000000006,0.01,0.01,3,3,1,1,4,3,1,1,2,0,13,7,LH,0.16000000000000003,0.31333333333333346,0.01,0.01
8,13,26,1,5,2.099999999999999,4,5,113,94,72,1,3.17,1.2300000000000009,0.01,0.01,6,1,1,1,8,1,1,1,6,0,15,7,LH,0.3962500000000002,1.2300000000000009,0.01,0.01
8,14,27,1,9,0.25000000000000006,2,4,66,94,47,109,0.7500000000000002,0.13999999999999999,0.4200000000000002,0.24000000000000007,4,1,2,2,6,1,2,2,4,0,14,7,LH,0.12500000000000003,0.13999999999999999,0.21000000000000008,0.12000000000000002
8,14,28,1,5,0.4200000000000002,9,10,7,60,56,78,0.7600000000000003,0.25000000000000006,2.1299999999999986,0.19000000000000003,10,1,3,2,12,1,3,2,6,0,17,7,LH,0.06333333333333334,0.25000000000000006,0.7100000000000005,0.09500000000000001
8,15,29,1,9,0.2800000000000001,2,3,76,107,71,99,0.8600000000000003,1.0400000000000007,0.3900000000000002,0.02,3,3,2,1,4,3,2,1,4,0,11,7,LH,0.21500000000000008,0.34666666666666685,0.1950000000000001,0.02
8,15,30,1,6,0.3100000000000001,2,3,8,111,11,109,1.7600000000000011,0.03,0.03,0.02,5,1,1,1,6,1,1,1,4,0,16,7,LH,0.2933333333333335,0.03,0.03,0.02
8,16,31,1,10,0.4100000000000002,10,12,23,20,81,36,1.620000000000001,3.46999999999997,0.7800000000000005,0.03,14,6,5,1,16,7,5,1,6,0,20,7,LH,0.10125000000000003,0.495714285714286,0.15600000000000006,0.03
8,16,32,1,7,0.4400000000000002,11,11,96,45,1,111,2.8299999999999934,0.01,4.619999999999946,1.360000000000001,13,1,4,2,14,1,6,3,3,0,16,7,LH,0.20214285714285715,0.01,0.7700000000000006,0.4533333333333336
8,17,33,1,10,0.2800000000000001,3,4,80,120,31,33,1.0100000000000005,0.12999999999999998,0.09,0.03,5,2,2,1,8,2,2,1,6,0,15,7,LH,0.12625000000000003,0.065,0.045,0.03
8,17,34,1,3,0.34000000000000014,4,5,8,6,89,50,0.8400000000000003,1.6400000000000012,0.01,0.02,6,3,1,1,7,4,1,1,5,0,19,7,LH,0.12000000000000002,0.4100000000000002,0.01,0.02
8,18,35,1,10,0.38000000000000017,2,4,112,21,23,18,0.9400000000000004,0.060000000000000005,2.289999999999995,0.5300000000000002,3,1,3,3,5,1,3,3,6,0.5,20,7,LH,0.18800000000000006,0.060000000000000005,0.7633333333333339,0.17666666666666672
8,18,36,1,3,0.3000000000000001,2,3,51,38,59,106,0.7600000000000003,0.13999999999999999,0.11999999999999998,0.9100000000000006,3,1,1,2,4,1,1,2,5,0,15,7,LH,0.19000000000000006,0.13999999999999999,0.11999999999999998,0.4550000000000003
8,19,37,1,9,0.26000000000000006,2,3,90,100,25,5,1.1400000000000006,0.09,0.2700000000000001,0.04,5,1,1,1,6,1,1,1,4,0,16,7,LH,0.19000000000000006,0.09,0.2700000000000001,0.04
8,19,38,1,10,0.38000000000000017,3,5,24,59,49,56,0.8100000000000004,0.5100000000000002,0.02,0.18000000000000002,5,2,1,2,7,2,1,2,6,0.5,18,7,LH,0.11571428571428573,0.2550000000000001,0.02,0.09
8,20,39,1,9,0.22000000000000006,2,3,37,64,63,69,1.1100000000000005,0.04,0.22000000000000006,0.01,3,1,2,1,4,1,2,1,4,0.5,17,7,LH,0.27750000000000014,0.04,0.11000000000000003,0.01
8,20,40,1,5,0.46000000000000024,7,8,10,11,5,56,1.0000000000000004,0.9600000000000006,0.01,0.01,9,2,1,1,10,2,1,1,6,0.5,22,7,LH,0.10000000000000002,0.4800000000000003,0.01,0.01
8,21,41,1,2,0.26000000000000006,2,3,45,75,73,66,0.9400000000000004,0.8700000000000006,0.01,0.01,4,3,1,1,5,3,1,1,3,0,15,7,LH,0.18800000000000006,0.29000000000000015,0.01,0.01
8,21,42,1,10,0.7100000000000004,2,3,94,30,22,101,1.3000000000000007,0.25000000000000006,0.11999999999999998,0.7800000000000005,3,1,1,1,4,1,1,1,6,0,16,7,LH,0.3250000000000001,0.25000000000000006,0.11999999999999998,0.7800000000000005
8,22,43,1,4,1.5300000000000011,7,10,86,87,100,28,2.3100000000000014,0.11999999999999998,0.02,0.08,10,1,1,1,15,1,1,1,2,0,13,7,LH,0.15400000000000003,0.11999999999999998,0.02,0.08
8,22,44,1,6,0.09,2,2,2,79,11,55,3.8499999999999637,0.060000000000000005,0.04,0.01,7,1,1,1,9,1,1,1,4,0,19,7,LH,0.42777777777777787,0.060000000000000005,0.04,0.01
9,1,1,0,2,0.21000000000000005,2,4,20,77,83,106,0.9000000000000005,0.03,0.6000000000000003,0.01,5,1,2,1,7,1,2,1,3,0,14,7,LH,0.1285714285714286,0.03,0.30000000000000016,0.01
9,1,2,0,6,0.17,2,3,11,57,109,89,0.8500000000000004,0.3900000000000002,0.03,0.02,4,2,1,1,5,2,1,1,4,0,15,7,LH,0.17000000000000007,0.1950000000000001,0.03,0.02
9,2,3,0,6,0.15,2,3,55,117,54,42,0.4900000000000001,0.22000000000000006,0.09999999999999999,0.060000000000000005,4,1,2,1,5,1,3,1,4,0,15,7,LH,0.098,0.22000000000000006,0.03333333333333333,0.060000000000000005
9,2,4,0,10,0.24000000000000007,2,4,107,84,104,22,0.8700000000000004,0.16,0.060000000000000005,0.02,4,2,1,2,6,3,1,2,6,0,13,7,LH,0.14500000000000005,0.05333333333333334,0.060000000000000005,0.01
9,3,5,0,5,0.21000000000000005,2,4,7,66,6,111,0.4800000000000001,0.49000000000000027,3.3599999999999723,0.7000000000000004,4,2,7,2,6,2,8,4,6,0,18,7,LH,0.08000000000000002,0.24500000000000005,0.4200000000000002,0.17500000000000007
9,3,6,0,4,0.22000000000000006,2,3,97,58,53,15,0.8600000000000004,0.11999999999999998,0.02,0.09,4,1,1,2,5,1,1,3,2,0,16,7,LH,0.17200000000000004,0.11999999999999998,0.02,0.030000000000000002
9,4,7,0,8,0.24000000000000007,2,3,118,40,75,71,0.7500000000000003,0.38000000000000017,0.02,0.01,4,5,1,1,6,5,1,1,2,0,14,7,LH,0.125,0.076,0.02,0.01
9,4,8,0,6,0.21000000000000005,3,5,105,106,52,101,0.5600000000000002,0.11999999999999998,0.3200000000000001,0.02,4,1,3,1,6,1,3,1,4,0.5,16,7,LH,0.09333333333333337,0.11999999999999998,0.10666666666666669,0.02
9,5,9,0,8,0.20000000000000004,2,3,74,61,64,62,0.6700000000000003,0.20000000000000004,0.10999999999999999,0.01,3,2,2,1,4,2,3,1,2,0.5,27,7,LH,0.16750000000000007,0.09999999999999999,0.03666666666666667,0.01
9,5,10,0,6,0.16,2,3,57,50,59,100,0.6800000000000003,0.060000000000000005,0.22000000000000006,0.060000000000000005,5,1,2,1,7,1,2,1,4,0.5,26,7,LH,0.09714285714285716,0.060000000000000005,0.11000000000000001,0.060000000000000005
9,6,11,0,1,0.17,2,3,32,91,22,55,0.6900000000000003,0.10999999999999999,0.2800000000000001,0.04,5,1,2,2,8,1,2,2,5,0,18,7,LH,0.08625000000000001,0.10999999999999999,0.14,0.02
9,6,12,0,3,0.15,2,3,37,47,64,102,0.43000000000000005,0.10999999999999999,1.1000000000000008,0.12999999999999998,4,1,2,3,5,1,2,3,5,0,16,7,LH,0.086,0.10999999999999999,0.5500000000000004,0.04333333333333333
9,7,13,1,3,0.17,2,3,45,58,54,39,0.6600000000000003,0.08,0.08,0.04,5,1,1,1,7,1,1,1,5,0,18,7,LH,0.09428571428571429,0.08,0.08,0.04
9,7,14,1,1,0.09999999999999999,3,3,17,71,61,90,10.699999999999818,0.01,0.04,0.02,20,1,2,1,39,1,2,1,5,0,17,7,LH,0.2743589743589745,0.01,0.02,0.02
9,8,15,1,4,0.15,2,3,103,32,64,96,0.42000000000000004,1.1500000000000008,0.01,0.01,4,3,1,1,5,4,1,1,2,0,14,7,LH,0.084,0.28750000000000014,0.01,0.01
9,8,16,1,3,0.24000000000000007,2,5,44,80,45,54,0.7400000000000003,0.6400000000000003,0.18000000000000002,0.9100000000000006,4,3,2,3,9,3,2,3,5,0,17,7,LH,0.08222222222222222,0.2133333333333334,0.09000000000000001,0.30333333333333345
9,9,17,1,2,0.3100000000000001,2,3,104,56,39,58,0.9000000000000004,0.24000000000000007,0.01,0.05,5,1,1,1,7,2,1,1,3,0,15,7,LH,0.1285714285714286,0.12000000000000002,0.01,0.05
9,9,18,1,8,0.22000000000000006,2,5,111,88,6,115,0.8800000000000004,0.22000000000000006,0.08,0.01,4,3,1,1,7,3,1,1,2,0,13,7,LH,0.12571428571428575,0.07333333333333333,0.08,0.01
9,10,19,1,9,0.18000000000000002,2,4,67,23,17,69,0.6800000000000003,0.11999999999999998,0.10999999999999999,0.01,4,1,1,1,7,1,1,1,4,0,20,7,LH,0.09714285714285716,0.11999999999999998,0.10999999999999999,0.01
9,10,20,1,8,0.3100000000000001,2,3,5,59,28,51,1.580000000000001,0.01,0.01,0.01,7,1,1,1,8,1,1,1,2,0,19,7,LH,0.19750000000000006,0.01,0.01,0.01
9,11,21,1,6,0.19000000000000003,2,3,50,22,34,53,0.5100000000000001,0.25000000000000006,0.09,0.01,4,2,2,1,5,2,2,1,4,0,19,7,LH,0.102,0.12500000000000003,0.045,0.01
9,11,22,1,5,0.2800000000000001,3,5,3,1,111,64,0.7900000000000003,4.199999999999955,0.02,0.01,6,10,1,1,9,17,1,1,6,0,18,7,LH,0.08777777777777777,0.24705882352941186,0.02,0.01
9,12,23,1,7,0.48000000000000026,11,12,57,109,91,120,1.0100000000000005,0.11999999999999998,0.08,0.8700000000000006,13,2,2,2,14,2,2,2,3,0,11,7,LH,0.07214285714285716,0.06,0.04,0.43500000000000016
9,12,24,1,3,0.18000000000000002,2,3,45,5,3,63,0.9700000000000005,1.0500000000000007,0.01,0.01,5,4,1,1,6,4,1,1,5,0,21,7,LH,0.16166666666666674,0.2625000000000001,0.01,0.01
9,13,25,1,5,0.35000000000000014,3,4,11,36,100,58,0.7700000000000004,0.10999999999999999,0.19000000000000003,0.03,5,1,2,1,7,1,2,1,6,0,17,7,LH,0.11000000000000001,0.10999999999999999,0.095,0.03
9,13,26,1,10,0.15,2,3,13,15,82,83,1.720000000000001,0.01,0.24000000000000007,0.01,4,1,2,1,6,1,2,1,6,0,18,7,LH,0.28666666666666685,0.01,0.12000000000000002,0.01
9,14,27,1,9,0.16,2,3,45,37,39,110,0.7100000000000003,0.10999999999999999,0.03,0.01,5,2,1,1,7,2,1,1,4,0.5,17,7,LH,0.10142857142857145,0.05500000000000001,0.03,0.01
9,14,28,1,4,0.22000000000000006,3,4,36,57,97,98,0.8100000000000004,0.060000000000000005,0.5600000000000003,0.03,6,2,4,1,7,2,4,1,2,0,13,7,LH,0.11571428571428574,0.03,0.14,0.03
9,15,29,1,4,0.20000000000000004,2,3,98,49,12,84,1.3800000000000008,0.01,0.48000000000000026,1.2300000000000009,7,1,3,5,8,1,3,6,2,0,15,7,LH,0.17250000000000004,0.01,0.16000000000000003,0.2050000000000001
9,15,30,1,9,0.3000000000000001,3,6,63,15,28,21,0.5500000000000002,0.19000000000000003,0.5700000000000003,0.4200000000000002,5,2,4,2,8,2,4,2,4,0,21,7,LH,0.06875,0.09499999999999999,0.14250000000000004,0.2100000000000001
9,16,31,1,9,0.7400000000000004,4,5,61,110,39,24,1.4400000000000008,0.01,0.05,0.8700000000000006,7,1,1,3,9,1,1,3,4,0,17,7,LH,0.16000000000000006,0.01,0.05,0.29000000000000015
9,16,32,1,4,0.11999999999999998,2,3,2,54,102,55,8.219999999999871,0.01,0.01,0.02,17,1,1,1,27,1,1,1,2,0,16,7,LH,0.3044444444444446,0.01,0.01,0.02
9,17,33,1,7,0.47000000000000025,2,6,17,71,21,38,0.8000000000000004,0.19000000000000003,0.05,0.12999999999999998,3,1,1,2,7,1,1,2,3,0,21,7,LH,0.11428571428571431,0.19000000000000003,0.05,0.06499999999999999
9,17,34,1,1,0.23000000000000007,2,3,55,114,53,33,0.7800000000000004,0.060000000000000005,0.03,0.01,4,2,1,1,6,2,1,1,5,0,15,7,LH,0.13,0.03,0.03,0.01
9,18,35,1,2,0.19000000000000003,2,3,103,72,106,102,1.1400000000000006,1.0800000000000007,0.01,0.01,8,3,1,1,9,4,1,1,3,0.5,10,7,LH,0.12666666666666668,0.27000000000000013,0.01,0.01
9,18,36,1,8,0.21000000000000005,2,3,41,109,114,7,0.9200000000000005,0.45000000000000023,0.3100000000000001,0.01,4,2,4,1,8,3,4,1,2,0,15,7,LH,0.11500000000000002,0.15000000000000008,0.07750000000000001,0.01
9,19,37,1,2,0.10999999999999999,2,2,13,43,80,73,4.799999999999945,0.08,0.01,1.370000000000001,19,2,1,3,25,2,1,3,3,0,17,7,LH,0.19200000000000006,0.04,0.01,0.456666666666667
9,19,38,1,7,0.13999999999999999,2,3,96,67,69,68,1.690000000000001,0.36000000000000015,0.01,0.04,5,2,1,1,6,2,1,1,3,0.5,15,7,LH,0.28166666666666684,0.18000000000000008,0.01,0.04
9,20,39,1,7,0.23000000000000007,3,4,16,23,115,20,0.6700000000000003,0.5100000000000002,0.23000000000000007,0.04,4,4,1,1,5,4,1,1,3,0.5,20,7,LH,0.13400000000000004,0.12750000000000003,0.23000000000000007,0.04
9,20,40,1,2,0.26000000000000006,2,4,42,39,81,6,0.6100000000000002,2.239999999999996,0.20000000000000004,0.01,3,6,1,1,5,7,1,1,3,0,19,7,LH,0.12200000000000004,0.3200000000000002,0.20000000000000004,0.01
9,21,41,1,8,0.24000000000000007,3,4,110,21,24,39,0.5700000000000002,0.3000000000000001,0.01,0.04,5,2,1,1,6,2,1,1,2,0,19,7,LH,0.095,0.15000000000000002,0.01,0.04
9,21,42,1,7,0.16,2,3,86,98,88,107,0.45000000000000007,0.3000000000000001,0.3100000000000001,0.01,3,2,2,1,4,2,2,1,3,0,10,7,LH,0.11250000000000002,0.15000000000000002,0.15500000000000005,0.01
9,22,43,1,10,0.38000000000000017,2,3,54,81,56,16,0.9400000000000004,0.38000000000000017,0.23000000000000007,1.0000000000000007,3,3,2,6,4,3,2,6,6,0,17,7,LH,0.23500000000000007,0.12666666666666668,0.11500000000000003,0.1666666666666667
9,22,44,1,3,0.18000000000000002,2,3,37,100,63,1,0.4700000000000001,0.20000000000000004,0.08,0.6100000000000003,4,2,1,4,5,2,1,5,5,0,17,7,LH,0.094,0.09999999999999999,0.08,0.12200000000000003
10,1,1,0,9,0.17,2,3,67,89,94,46,0.7400000000000003,0.13999999999999999,0.09,0.05,4,2,1,1,7,3,1,1,4,0,15,7,LH,0.10571428571428575,0.04666666666666667,0.09,0.05
10,1,2,0,6,0.18000000000000002,2,3,57,105,50,14,0.43000000000000005,0.25000000000000006,0.22000000000000006,0.5600000000000003,4,1,2,3,5,1,2,3,4,0,16,7,LH,0.08600000000000002,0.25000000000000006,0.11,0.18666666666666673
10,2,3,0,1,0.24000000000000007,2,3,27,107,83,23,0.5100000000000001,0.2700000000000001,0.6200000000000003,0.04,4,2,2,1,5,3,2,1,5,0,16,7,LH,0.10200000000000001,0.09,0.3100000000000001,0.04
10,2,4,0,9,0.2900000000000001,2,3,68,63,7,115,0.6400000000000002,0.08,0.3000000000000001,0.12999999999999998,3,1,1,1,4,1,1,1,4,0,16,7,LH,0.16000000000000003,0.08,0.3000000000000001,0.12999999999999998
10,3,5,0,4,0.25000000000000006,2,3,105,38,61,44,0.6400000000000002,0.20000000000000004,0.2700000000000001,2.149999999999998,4,1,1,5,5,1,1,7,2,0,16,7,LH,0.12800000000000003,0.20000000000000004,0.2700000000000001,0.3071428571428573
10,3,6,0,7,0.19000000000000003,3,3,60,91,90,96,9.809999999999839,0.01,0.01,1.5700000000000012,20,1,1,5,34,1,1,7,3,0.5,22,7,LH,0.288529411764706,0.01,0.01,0.22428571428571437
10,4,7,0,3,0.22000000000000006,2,3,5,104,101,105,5.139999999999939,0.01,0.01,0.01,9,1,1,1,15,1,1,1,5,0.5,18,7,LH,0.34266666666666684,0.01,0.01,0.01
10,4,8,0,1,0.12999999999999998,1,2,33,88,34,116,0.6500000000000002,0.16,0.07,0.09999999999999999,3,1,1,1,4,1,1,1,5,0,15,7,LH,0.16250000000000003,0.16,0.07,0.09999999999999999
10,5,9,0,1,0.21000000000000005,2,3,26,8,101,32,0.7100000000000003,2.1399999999999983,0.01,0.01,4,4,1,1,5,4,1,1,5,0,18,7,LH,0.14200000000000004,0.5350000000000004,0.01,0.01
10,5,10,0,8,0.23000000000000007,4,5,116,72,76,111,0.6000000000000002,0.4300000000000002,0.5100000000000002,0.01,5,1,2,1,6,1,2,1,2,0,11,7,LH,0.10000000000000003,0.4300000000000002,0.2550000000000001,0.01
10,6,11,0,2,0.12999999999999998,1,2,82,83,103,8,0.5100000000000001,0.13999999999999999,0.19000000000000003,0.09999999999999999,2,1,2,1,3,1,2,1,3,0,14,7,LH,0.17000000000000007,0.13999999999999999,0.095,0.09999999999999999
10,6,12,0,3,0.3100000000000001,2,5,43,37,87,116,0.8300000000000003,0.22000000000000006,0.09999999999999999,0.08,4,2,1,1,9,2,1,1,5,0,15,7,LH,0.09222222222222223,0.10999999999999999,0.09999999999999999,0.08
10,7,13,1,4,0.3100000000000001,2,4,100,46,21,84,0.7500000000000003,0.34000000000000014,0.10999999999999999,0.26000000000000006,4,2,1,2,6,2,1,2,2,0,16,7,LH,0.12500000000000003,0.17000000000000004,0.10999999999999999,0.13000000000000003
10,7,14,1,5,0.18000000000000002,2,3,9,119,58,1,0.7200000000000003,0.11999999999999998,0.20000000000000004,0.09,4,1,1,1,5,1,1,1,6,0,18,7,LH,0.14400000000000004,0.11999999999999998,0.20000000000000004,0.09
10,8,15,1,3,0.23000000000000007,2,3,45,43,83,10,0.6100000000000002,0.13999999999999999,0.25000000000000006,0.08,4,1,2,1,5,1,2,1,5,0,19,7,LH,0.12200000000000001,0.13999999999999999,0.12500000000000003,0.08
10,8,16,1,1,0.20000000000000004,2,3,118,33,51,34,0.7200000000000003,0.09,0.4000000000000002,0.03,4,1,1,1,6,1,1,1,5,0,16,7,LH,0.12000000000000002,0.09,0.4000000000000002,0.03
10,9,17,1,4,0.24000000000000007,2,4,74,101,33,51,0.6400000000000002,0.11999999999999998,0.3200000000000001,0.02,3,1,2,1,5,1,3,1,2,0,14,7,LH,0.12800000000000003,0.11999999999999998,0.10666666666666666,0.02
10,9,18,1,7,0.3200000000000001,6,7,116,64,40,47,0.9400000000000004,0.3000000000000001,0.03,0.05,7,3,1,1,8,4,1,1,3,0,16,7,LH,0.11750000000000005,0.075,0.03,0.05
10,10,19,1,1,0.21000000000000005,2,3,28,31,104,36,0.5900000000000002,0.11999999999999998,0.18000000000000002,0.3000000000000001,3,1,1,3,4,1,1,3,5,0.5,17,7,LH,0.14750000000000005,0.11999999999999998,0.18000000000000002,0.1
10,10,20,1,3,0.2700000000000001,2,3,41,74,75,116,0.7100000000000003,0.5000000000000002,0.060000000000000005,0.01,4,2,1,1,7,2,1,1,5,0,13,7,LH,0.10142857142857144,0.2500000000000001,0.060000000000000005,0.01
10,11,21,1,4,0.15,2,4,102,100,61,27,0.5900000000000002,0.26000000000000006,0.47000000000000025,0.03,4,2,2,1,8,2,2,1,2,0,13,7,LH,0.07375000000000001,0.13,0.2350000000000001,0.03
10,11,22,1,3,0.11999999999999998,2,2,13,20,111,87,5.4199999999999315,0.01,0.01,0.01,14,1,1,1,15,1,1,1,5,0,17,7,LH,0.3613333333333335,0.01,0.01,0.01
10,12,23,1,6,0.3200000000000001,2,2,3,33,25,79,5.70999999999993,0.01,0.01,0.01,11,1,1,1,14,1,1,1,4,0,19,7,LH,0.4078571428571431,0.01,0.01,0.01
10,12,24,1,10,0.20000000000000004,2,3,92,38,117,20,0.6600000000000003,0.8600000000000005,0.12999999999999998,0.01,3,3,1,1,4,4,1,1,6,0,16,7,LH,0.16500000000000006,0.21500000000000008,0.12999999999999998,0.01
10,13,25,1,3,0.22000000000000006,2,3,37,43,40,105,0.7700000000000004,0.10999999999999999,0.11999999999999998,0.09,4,1,1,1,7,1,1,1,5,0.5,17,7,LH,0.11000000000000001,0.10999999999999999,0.11999999999999998,0.09
10,13,26,1,6,0.20000000000000004,3,4,59,16,53,17,0.7400000000000003,0.23000000000000007,0.21000000000000005,0.04,5,1,2,1,6,1,2,1,4,0,20,7,LH,0.12333333333333336,0.23000000000000007,0.105,0.04
10,14,27,1,4,0.3000000000000001,2,4,5,107,34,75,0.9300000000000004,0.060000000000000005,0.16,0.060000000000000005,4,1,2,1,7,1,2,1,2,0,16,7,LH,0.13285714285714287,0.060000000000000005,0.08,0.060000000000000005
10,14,28,1,8,0.3100000000000001,3,3,116,119,14,86,1.0000000000000004,7.069999999999894,5.219999999999933,0.01,5,14,13,1,6,21,15,1,2,0,13,7,LH,0.1666666666666667,0.33666666666666684,0.3480000000000002,0.01
10,15,29,1,9,0.17,2,4,64,77,5,38,0.5800000000000002,0.35000000000000014,0.21000000000000005,0.04,4,2,2,1,6,3,2,1,4,0,18,7,LH,0.09666666666666668,0.11666666666666667,0.10500000000000001,0.04
10,15,30,1,6,0.2800000000000001,4,5,23,32,109,95,1.0400000000000005,0.09999999999999999,0.060000000000000005,0.05,6,1,1,1,10,1,1,1,4,0,16,7,LH,0.10400000000000001,0.09999999999999999,0.060000000000000005,0.05
10,16,31,1,9,0.18000000000000002,2,3,69,68,8,7,0.5500000000000002,0.19000000000000003,0.18000000000000002,0.25000000000000006,4,2,1,2,5,2,1,2,4,0,20,7,LH,0.11000000000000001,0.09499999999999999,0.18000000000000002,0.125
10,16,32,1,2,0.36000000000000015,6,8,56,76,31,108,0.8500000000000004,0.15,0.19000000000000003,0.04,8,1,2,1,11,1,2,1,3,0,14,7,LH,0.07727272727272728,0.15,0.095,0.04
10,17,33,1,6,0.17,2,3,50,51,31,33,0.5700000000000002,0.15,0.24000000000000007,0.15,4,1,1,2,5,1,1,2,4,0,18,7,LH,0.11400000000000002,0.15,0.24000000000000007,0.07500000000000001
10,17,34,1,10,0.3900000000000002,9,9,21,19,43,61,0.7700000000000004,2.209999999999997,0.2700000000000001,0.01,10,3,2,1,10,6,2,1,6,0,21,7,LH,0.07700000000000001,0.36833333333333357,0.13500000000000004,0.01
10,18,35,1,10,0.22000000000000006,3,4,19,24,81,76,0.6300000000000002,0.12999999999999998,0.09999999999999999,0.10999999999999999,4,1,1,1,5,1,1,1,6,0,18,7,LH,0.12600000000000006,0.12999999999999998,0.09999999999999999,0.10999999999999999
10,18,36,1,9,0.26000000000000006,2,4,66,103,1,5,0.6700000000000003,0.3100000000000001,0.24000000000000007,0.02,4,2,2,1,6,2,2,1,4,0,18,7,LH,0.11166666666666668,0.155,0.12000000000000002,0.02
10,19,37,1,3,0.24000000000000007,2,3,45,23,81,64,0.7400000000000003,0.15,0.10999999999999999,0.11999999999999998,4,1,1,1,5,1,1,1,5,0,18,7,LH,0.14800000000000002,0.15,0.10999999999999999,0.11999999999999998
10,19,38,1,6,0.25000000000000006,2,4,91,52,31,54,0.9600000000000004,0.07,0.5300000000000002,0.04,4,1,2,1,7,1,2,1,4,0,16,7,LH,0.13714285714285718,0.07,0.26500000000000007,0.04
10,20,39,1,2,0.3000000000000001,2,3,79,73,35,5,0.6900000000000003,0.5100000000000002,0.05,0.5200000000000002,4,2,1,2,5,2,1,2,3,0,17,7,LH,0.138,0.2550000000000001,0.05,0.2600000000000001
10,20,40,1,3,0.24000000000000007,2,3,19,15,41,47,0.6500000000000002,0.23000000000000007,0.10999999999999999,0.060000000000000005,3,1,1,1,4,1,1,1,5,0,22,7,LH,0.16250000000000003,0.23000000000000007,0.10999999999999999,0.060000000000000005
10,21,41,1,8,0.24000000000000007,4,5,26,115,82,62,0.6000000000000002,0.24000000000000007,0.08,0.17,5,1,1,1,6,1,1,1,2,0,14,7,LH,0.10000000000000003,0.24000000000000007,0.08,0.17
10,21,42,1,7,0.18000000000000002,2,3,56,12,54,108,0.6600000000000003,0.23000000000000007,0.15,0.04,3,2,2,1,4,2,3,1,3,0,16,7,LH,0.16500000000000006,0.11499999999999999,0.05,0.04
10,22,43,1,6,0.20000000000000004,2,3,60,51,113,46,0.7800000000000004,0.08,0.09999999999999999,0.09,4,1,1,1,8,1,1,1,4,0,15,7,LH,0.09750000000000002,0.08,0.09999999999999999,0.09
10,22,44,1,4,0.10999999999999999,1,2,103,77,107,97,0.5000000000000002,0.21000000000000005,0.10999999999999999,0.07,3,1,1,1,4,1,1,1,2,0.5,9,7,LH,0.12500000000000003,0.21000000000000005,0.10999999999999999,0.07
11,1,1,0,8,0.4400000000000002,2,4,110,41,115,12,0.8400000000000004,0.4400000000000002,0.6100000000000003,0.8500000000000005,4,1,3,3,6,1,3,5,2,0,15,7,LH,0.14000000000000004,0.4400000000000002,0.20333333333333342,0.17000000000000007
11,1,2,0,10,0.7600000000000005,2,6,22,107,57,52,1.1700000000000006,0.4200000000000002,1.5500000000000012,2.859999999999983,4,1,2,4,8,1,4,4,6,0,16,7,LH,0.14625000000000002,0.4200000000000002,0.3875000000000002,0.7150000000000004
11,2,3,0,10,0.5200000000000002,2,4,91,19,100,102,1.540000000000001,1.1200000000000008,1.7000000000000013,0.6800000000000004,3,4,4,3,5,5,4,3,6,0,13,7,LH,0.30800000000000016,0.2240000000000001,0.42500000000000027,0.22666666666666677
11,2,4,0,8,0.5700000000000003,2,4,44,116,37,48,1.8200000000000012,0.8100000000000005,0.12999999999999998,0.47000000000000025,4,4,1,3,9,8,1,4,2,0.5,32,7,LH,0.20222222222222228,0.10125,0.12999999999999998,0.11750000000000001
11,3,5,0,2,0.48000000000000026,2,5,2,103,79,100,1.2400000000000007,0.6300000000000003,0.12999999999999998,0.5300000000000002,4,3,1,2,8,3,1,3,3,0,13,7,LH,0.15500000000000005,0.21000000000000008,0.12999999999999998,0.1766666666666667
11,3,6,0,7,1.1200000000000008,2,9,96,53,93,17,1.640000000000001,0.9500000000000006,0.4200000000000002,0.24000000000000007,4,2,2,2,11,5,2,2,3,0,16,7,LH,0.1490909090909091,0.19000000000000006,0.21000000000000002,0.12
11,4,7,0,3,0.7300000000000004,2,4,38,55,47,41,1.3000000000000007,0.6200000000000003,0.3300000000000001,0.3200000000000001,4,3,2,2,6,3,3,2,5,0.5,34,7,LH,0.21666666666666673,0.20666666666666672,0.11,0.16
11,4,8,0,9,0.5300000000000002,2,6,69,23,91,107,1.0300000000000005,0.46000000000000024,0.3200000000000001,0.36000000000000015,4,1,1,2,8,1,1,2,4,0,15,7,LH,0.12875000000000003,0.46000000000000024,0.3200000000000001,0.18000000000000002
11,5,9,0,3,0.5700000000000003,2,3,105,37,38,101,1.3100000000000007,0.4400000000000002,0.19000000000000003,0.2900000000000001,3,2,1,1,4,2,1,1,5,0,14,7,LH,0.3275000000000001,0.22000000000000003,0.19000000000000003,0.2900000000000001
11,5,10,0,1,0.46000000000000024,2,4,34,28,26,14,0.8100000000000004,0.48000000000000026,0.21000000000000005,0.3000000000000001,4,2,1,1,6,2,1,1,5,0.5,36,7,LH,0.13500000000000004,0.24000000000000005,0.21000000000000005,0.3000000000000001
11,6,11,0,7,1.0000000000000007,2,8,87,24,102,93,1.3300000000000007,0.6700000000000004,0.7800000000000005,0.21000000000000005,4,2,2,2,10,2,2,2,3,0,14,7,LH,0.133,0.3350000000000002,0.3900000000000002,0.105
11,6,12,0,1,0.4200000000000002,2,4,36,75,33,72,0.5300000000000002,2.8899999999999824,0.03,0.07,3,4,1,1,5,4,1,1,5,0,17,7,LH,0.10600000000000001,0.7225000000000005,0.03,0.07
11,7,13,1,6,0.7700000000000005,2,7,16,39,55,44,3.7799999999999803,0.05,0.03,0.09,7,1,1,1,18,1,1,1,4,0,20,7,LH,0.21000000000000008,0.05,0.03,0.09
11,7,14,1,4,0.9100000000000006,2,7,76,80,12,97,1.9600000000000013,1.1500000000000008,0.6900000000000004,0.4100000000000002,4,4,3,2,10,5,3,2,2,0,14,7,LH,0.19600000000000006,0.23000000000000007,0.23000000000000007,0.2050000000000001
11,8,15,1,5,0.7500000000000004,2,4,6,41,59,47,1.1200000000000006,0.4000000000000002,0.7600000000000005,0.19000000000000003,4,3,2,1,6,4,2,1,6,0,20,7,LH,0.1866666666666667,0.10000000000000002,0.38000000000000017,0.19000000000000003
11,8,16,1,10,0.4400000000000002,2,3,15,90,96,19,1.580000000000001,0.3900000000000002,0.3900000000000002,0.9400000000000006,4,1,1,3,5,1,1,3,6,0,18,7,LH,0.31600000000000017,0.3900000000000002,0.3900000000000002,0.31333333333333346
11,9,17,1,3,0.6300000000000003,2,5,47,60,56,51,1.2800000000000007,0.8500000000000005,0.21000000000000005,2.7999999999999843,4,2,1,4,9,3,1,6,5,0.5,17,7,LH,0.14222222222222225,0.28333333333333344,0.21000000000000005,0.4666666666666669
11,9,18,1,1,0.5600000000000003,3,5,28,32,30,29,0.7500000000000003,0.34000000000000014,0.24000000000000007,6.249999999999911,5,1,1,8,7,1,1,14,5,1,60,7,LH,0.10714285714285715,0.34000000000000014,0.24000000000000007,0.4464285714285717
11,10,19,1,10,0.5700000000000003,2,4,18,13,33,104,5.529999999999939,9.369999999999845,0.01,0.4400000000000002,10,19,1,2,17,28,1,2,6,0,19,7,LH,0.325294117647059,0.3346428571428573,0.01,0.2200000000000001
11,10,20,1,5,0.7200000000000004,3,6,6,2,75,111,0.9000000000000005,6.649999999999903,0.01,0.02,5,12,1,1,8,16,1,1,6,0,17,7,LH,0.11250000000000002,0.4156250000000002,0.01,0.02
11,11,21,1,10,0.7700000000000005,2,4,23,15,54,20,1.2900000000000007,0.8800000000000006,0.19000000000000003,2.3299999999999943,4,3,1,5,6,4,1,8,6,0.5,22,7,LH,0.21500000000000005,0.22000000000000006,0.19000000000000003,0.2912500000000001
11,11,22,1,9,0.47000000000000025,2,3,85,120,66,48,1.7600000000000011,0.3300000000000001,0.08,0.48000000000000026,5,1,1,1,6,1,1,1,4,0,14,7,LH,0.29333333333333345,0.3300000000000001,0.08,0.48000000000000026
11,12,23,1,9,0.7300000000000004,5,5,111,4,110,95,8.409999999999881,1.5200000000000011,0.01,0.01,15,6,1,1,28,7,1,1,4,0,13,7,LH,0.300357142857143,0.21714285714285722,0.01,0.01
11,12,24,1,3,0.6700000000000004,2,5,38,46,99,40,1.2600000000000007,0.25000000000000006,0.45000000000000023,0.18000000000000002,4,1,2,1,9,1,2,1,5,0.5,17,7,LH,0.14,0.25000000000000006,0.22500000000000003,0.18000000000000002
11,13,25,1,1,0.8300000000000005,2,5,35,78,119,111,1.0700000000000005,1.0700000000000007,0.3000000000000001,0.20000000000000004,4,3,2,1,7,3,2,1,5,0,12,7,LH,0.1528571428571429,0.3566666666666668,0.15000000000000002,0.20000000000000004
11,13,26,1,4,1.0500000000000007,2,7,101,39,65,102,2.2700000000000014,0.3000000000000001,0.3000000000000001,0.11999999999999998,4,2,2,1,13,3,4,1,2,0,13,7,LH,0.17461538461538464,0.09999999999999999,0.075,0.11999999999999998
11,14,27,1,1,1.5300000000000011,10,16,29,112,66,33,2.0600000000000014,0.6600000000000004,0.45000000000000023,0.4300000000000002,13,2,2,2,20,2,2,3,5,0,16,7,LH,0.10300000000000002,0.3300000000000001,0.22500000000000003,0.14333333333333337
11,14,28,1,4,0.7200000000000004,2,3,100,82,43,52,0.9700000000000004,0.8700000000000006,0.4300000000000002,0.2900000000000001,4,1,2,1,5,2,2,1,2,0,14,7,LH,0.19400000000000006,0.4350000000000003,0.21500000000000005,0.2900000000000001
11,15,29,1,6,0.46000000000000024,2,5,53,99,107,85,7.949999999999885,0.8900000000000006,1.430000000000001,0.02,14,3,3,1,26,3,4,1,4,0,11,7,LH,0.3057692307692309,0.2966666666666668,0.3575000000000002,0.02
11,15,30,1,2,0.3900000000000002,5,5,110,118,112,2,5.539999999999935,0.3300000000000001,0.38000000000000017,0.10999999999999999,12,2,4,2,19,2,5,2,3,0.5,12,7,LH,0.29157894736842116,0.16500000000000004,0.07600000000000001,0.05499999999999999
11,16,31,1,5,0.6700000000000004,2,5,6,27,9,51,2.640000000000002,0.25000000000000006,2.299999999999995,0.5900000000000003,6,2,6,2,11,2,7,3,6,0,21,7,LH,0.24000000000000007,0.12499999999999997,0.3285714285714287,0.1966666666666667
11,16,32,1,9,0.4200000000000002,2,3,71,42,70,13,0.8800000000000004,0.9500000000000006,0.4000000000000002,0.7500000000000004,4,3,2,2,5,4,2,2,4,0,19,7,LH,0.17600000000000005,0.23750000000000007,0.20000000000000004,0.37500000000000017
11,17,33,1,3,2.619999999999988,11,18,100,42,10,103,3.0499999999999883,0.38000000000000017,0.5000000000000002,0.060000000000000005,13,2,2,1,20,3,2,1,5,0,15,7,LH,0.15250000000000005,0.12666666666666668,0.2500000000000001,0.060000000000000005
11,17,34,1,2,1.2500000000000009,4,8,81,117,20,80,1.600000000000001,0.7200000000000004,0.9300000000000006,0.07,6,2,2,2,10,2,4,2,3,0,14,7,LH,0.16000000000000003,0.36000000000000015,0.23250000000000007,0.035
11,18,35,1,1,1.1600000000000008,10,11,80,78,15,23,1.8800000000000012,1.450000000000001,1.0500000000000007,1.0900000000000007,12,4,3,3,14,4,5,3,5,0,18,7,LH,0.1342857142857143,0.3625000000000002,0.21000000000000008,0.3633333333333335
11,18,36,1,4,0.6200000000000003,2,4,89,8,11,50,2.030000000000001,0.4200000000000002,0.13999999999999999,1.0100000000000007,4,1,1,3,6,1,1,5,2,0,19,7,LH,0.3383333333333335,0.4200000000000002,0.13999999999999999,0.20200000000000004
11,19,37,1,2,1.1400000000000008,13,14,75,61,11,3,1.3500000000000008,0.6100000000000003,0.2800000000000001,0.9400000000000006,15,2,1,4,16,2,1,4,3,0,19,7,LH,0.084375,0.3050000000000001,0.2800000000000001,0.2350000000000001
11,19,38,1,4,0.5900000000000003,2,3,51,32,59,31,1.8600000000000012,0.47000000000000025,0.11999999999999998,0.6500000000000004,5,1,1,3,8,1,1,5,2,0,18,7,LH,0.23250000000000007,0.47000000000000025,0.11999999999999998,0.13000000000000003
11,20,39,1,2,1.2200000000000009,2,8,75,73,104,76,1.4400000000000008,0.18000000000000002,1.0800000000000007,0.16,4,1,3,1,10,1,5,2,3,0.5,11,7,LH,0.14400000000000002,0.18000000000000002,0.21600000000000005,0.08
11,20,40,1,9,1.0000000000000007,8,11,111,65,15,35,1.9200000000000013,0.2800000000000001,0.8900000000000006,0.3000000000000001,10,1,2,3,13,1,2,3,4,0,17,7,LH,0.14769230769230773,0.2800000000000001,0.44500000000000023,0.09999999999999999
11,21,41,1,8,0.8100000000000005,3,6,115,116,2,80,1.2500000000000007,0.3200000000000001,0.7800000000000005,0.4100000000000002,5,1,3,1,8,1,4,1,2,0,13,7,LH,0.15625000000000003,0.3200000000000001,0.19500000000000003,0.4100000000000002
11,21,42,1,4,0.49000000000000027,2,3,97,98,23,69,0.6400000000000002,2.629999999999988,0.10999999999999999,0.3300000000000001,4,4,2,2,5,5,2,2,2,0,14,7,LH,0.12800000000000003,0.5260000000000004,0.05500000000000001,0.16500000000000004
11,22,43,1,3,0.4000000000000002,2,3,45,42,39,83,0.9600000000000004,0.15,1.6300000000000012,0.08,4,1,2,1,6,1,2,1,5,0.5,18,7,LH,0.16000000000000003,0.15,0.8150000000000006,0.08
11,22,44,1,6,0.3100000000000001,2,3,60,59,85,107,0.8400000000000003,0.23000000000000007,1.7700000000000014,0.2900000000000001,4,1,2,1,6,1,2,1,4,0,13,7,LH,0.14,0.23000000000000007,0.8850000000000006,0.2900000000000001
12,1,1,0,4,0.49000000000000027,2,6,14,87,63,21,1.4900000000000009,0.49000000000000027,0.09999999999999999,0.04,4,2,1,1,8,2,1,1,2,0,19,7,LH,0.18625000000000005,0.2450000000000001,0.09999999999999999,0.04
12,1,2,0,2,0.3000000000000001,2,3,74,83,112,43,0.5600000000000002,0.13999999999999999,0.5400000000000003,0.09999999999999999,3,1,1,1,4,1,1,1,3,0,13,7,LH,0.14,0.13999999999999999,0.5400000000000003,0.09999999999999999
12,2,3,0,10,0.38000000000000017,8,8,14,15,31,68,0.7300000000000003,1.8100000000000014,0.01,0.01,9,5,1,1,9,5,1,1,6,0,21,7,LH,0.08111111111111113,0.36200000000000015,0.01,0.01
12,2,4,0,7,0.38000000000000017,2,4,42,107,104,37,0.7600000000000003,0.5200000000000002,0.5900000000000003,0.01,3,2,3,1,5,2,3,1,3,0,14,7,LH,0.15200000000000005,0.26000000000000006,0.19666666666666674,0.01
12,3,5,0,7,0.45000000000000023,2,5,88,40,69,105,0.7700000000000004,0.16,0.22000000000000006,0.16,3,1,1,1,6,1,1,1,3,0,14,7,LH,0.12833333333333335,0.16,0.22000000000000006,0.16
12,3,6,0,10,0.35000000000000014,2,4,116,30,26,110,0.8500000000000003,0.3300000000000001,1.8300000000000014,0.25000000000000006,3,2,2,2,5,3,3,2,6,0,14,7,LH,0.17000000000000004,0.11000000000000003,0.6100000000000004,0.12500000000000003
12,4,7,0,1,0.25000000000000006,1,2,35,31,15,106,0.4700000000000001,0.3100000000000001,0.6700000000000004,0.02,3,2,3,1,4,3,3,1,5,0,18,7,LH,0.11750000000000001,0.10333333333333332,0.2233333333333334,0.02
12,4,8,0,8,0.35000000000000014,2,3,110,118,112,37,0.6500000000000002,0.17,0.6400000000000003,0.13999999999999999,4,1,3,1,5,2,4,1,2,0.5,17,7,LH,0.13,0.08499999999999999,0.16000000000000006,0.13999999999999999
12,5,9,0,9,0.46000000000000024,4,5,68,72,26,106,0.8500000000000004,0.11999999999999998,1.0100000000000007,0.060000000000000005,6,1,2,2,7,1,2,2,4,0,15,7,LH,0.12142857142857144,0.11999999999999998,0.5050000000000003,0.030000000000000002
12,5,10,0,6,0.2900000000000001,2,5,54,53,42,23,0.43000000000000005,0.2700000000000001,0.37000000000000016,0.6500000000000004,3,1,2,1,6,1,2,1,4,0,19,7,LH,0.07166666666666667,0.2700000000000001,0.18500000000000003,0.6500000000000004
12,6,11,0,4,0.36000000000000015,2,4,97,37,13,53,0.7600000000000003,0.5800000000000003,2.0300000000000007,0.4200000000000002,3,2,6,1,5,3,8,1,2,0,17,7,LH,0.15200000000000005,0.19333333333333338,0.2537500000000001,0.4200000000000002
12,6,12,0,2,0.45000000000000023,8,10,75,62,33,114,0.6500000000000002,0.9700000000000006,3.0799999999999783,0.5800000000000003,10,5,6,2,12,5,7,2,3,0,14,7,LH,0.05416666666666667,0.19400000000000006,0.4400000000000002,0.29000000000000015
12,7,13,1,9,0.2700000000000001,2,3,64,16,45,38,0.9800000000000004,0.16,0.35000000000000014,0.34000000000000014,5,1,2,2,6,1,2,2,4,0,20,7,LH,0.16333333333333336,0.16,0.17500000000000002,0.17000000000000004
12,7,14,1,2,0.6500000000000004,3,4,82,73,31,49,1.1600000000000006,0.17,0.060000000000000005,0.3000000000000001,6,1,1,1,8,1,1,1,3,0,15,7,LH,0.14500000000000002,0.17,0.060000000000000005,0.3000000000000001
12,8,15,1,3,0.6300000000000003,2,4,15,58,60,103,1.4700000000000009,0.03,0.09,0.18000000000000002,5,1,1,1,7,1,1,1,5,0,16,7,LH,0.21000000000000008,0.03,0.09,0.18000000000000002
12,8,16,1,9,0.13999999999999999,3,3,1,119,74,71,21.850000000000595,0.04,0.01,0.01,20,1,1,1,45,1,1,1,4,0,15,7,LH,0.4855555555555556,0.04,0.01,0.01
12,9,17,1,10,5.169999999999934,11,13,17,111,112,117,7.489999999999929,0.48000000000000026,0.05,1.0300000000000007,17,2,1,3,22,2,1,3,6,0.5,12,7,LH,0.340454545454545,0.2400000000000001,0.05,0.34333333333333355
12,9,18,1,5,0.3100000000000001,2,3,2,6,12,52,0.5400000000000001,1.8500000000000014,0.01,0.08,4,4,1,1,5,4,1,1,6,0.5,22,7,LH,0.10800000000000001,0.4625000000000003,0.01,0.08
12,10,19,1,10,0.24000000000000007,2,3,13,22,74,60,0.4500000000000001,0.13999999999999999,0.34000000000000014,1.8400000000000014,3,1,1,7,4,1,1,9,6,0,19,7,LH,0.11250000000000002,0.13999999999999999,0.34000000000000014,0.2044444444444445
12,10,20,1,8,0.34000000000000014,2,3,110,109,27,62,0.7000000000000003,0.09999999999999999,0.20000000000000004,0.18000000000000002,3,1,1,1,4,1,1,1,2,0,13,7,LH,0.17500000000000004,0.09999999999999999,0.20000000000000004,0.18000000000000002
12,11,21,1,5,0.4200000000000002,2,4,3,110,2,5,0.7500000000000003,0.3900000000000002,0.07,4.2199999999999545,3,2,1,6,5,3,1,6,6,0.5,20,7,LH,0.15000000000000002,0.13000000000000003,0.07,0.7033333333333337
12,11,22,1,10,0.35000000000000014,2,3,17,24,13,53,0.8000000000000004,0.3000000000000001,0.03,0.2800000000000001,4,2,1,1,5,2,1,1,6,0.5,22,7,LH,0.16000000000000003,0.15,0.03,0.2800000000000001
12,12,23,1,9,1.8800000000000014,6,11,66,29,107,75,2.0300000000000016,0.5800000000000003,0.09,0.07,8,2,1,1,14,2,1,1,4,0,14,7,LH,0.14500000000000005,0.29000000000000015,0.09,0.07
12,12,24,1,6,0.25000000000000006,2,3,114,49,3,60,0.8100000000000003,0.07,1.1000000000000008,0.01,4,1,3,1,5,1,3,1,4,0,16,7,LH,0.16200000000000006,0.07,0.36666666666666686,0.01
12,13,25,1,8,0.4100000000000002,2,5,109,26,9,1,0.8100000000000004,0.6000000000000003,0.3100000000000001,0.08,4,2,3,1,7,2,3,1,2,0,19,7,LH,0.11571428571428571,0.3000000000000001,0.10333333333333335,0.08
12,13,26,1,3,0.3000000000000001,3,4,47,42,19,45,0.6300000000000002,0.11999999999999998,0.6300000000000003,0.8600000000000005,5,1,2,2,7,1,2,3,5,0.5,21,7,LH,0.09000000000000001,0.11999999999999998,0.31500000000000017,0.2866666666666668
12,14,27,1,3,0.4100000000000002,7,8,5,80,52,120,3.079999999999987,0.01,0.13999999999999999,0.8300000000000005,10,1,2,1,12,1,2,1,5,0,15,7,LH,0.2566666666666668,0.01,0.06999999999999999,0.8300000000000005
12,14,28,1,7,0.4300000000000002,7,7,62,88,14,22,3.619999999999976,0.01,0.16,0.04,13,1,1,1,13,1,1,1,3,0,19,7,LH,0.2784615384615386,0.01,0.16,0.04
12,15,29,1,1,0.4300000000000002,2,4,25,94,28,33,0.6200000000000002,1.1000000000000008,0.02,0.01,3,5,2,1,5,6,2,1,5,0.5,18,7,LH,0.12400000000000001,0.1833333333333334,0.01,0.01
12,15,30,1,8,0.3900000000000002,2,3,118,15,23,71,0.8500000000000004,0.9800000000000006,0.02,0.05,4,4,1,1,5,4,1,1,2,0,18,7,LH,0.17000000000000004,0.2450000000000001,0.02,0.05
12,16,31,1,1,0.25000000000000006,5,5,28,74,58,99,0.5400000000000001,2.199999999999997,0.17,0.01,6,3,1,1,6,3,1,1,5,0,14,7,LH,0.09000000000000001,0.733333333333333,0.17,0.01
12,16,32,1,8,0.38000000000000017,2,3,119,6,92,9,6.859999999999906,13.689999999999753,0.01,0.01,12,11,1,1,15,14,1,1,2,0,17,7,LH,0.4573333333333336,0.9778571428571435,0.01,0.01
12,17,33,1,5,0.35000000000000014,2,4,32,73,108,104,3.1999999999999833,0.02,0.6400000000000003,0.09999999999999999,6,1,2,2,13,1,3,2,6,0,12,7,LH,0.24615384615384628,0.02,0.2133333333333334,0.049999999999999996
12,17,34,1,7,0.38000000000000017,2,3,119,112,37,117,1.0400000000000005,0.20000000000000004,0.5000000000000002,1.7800000000000014,3,1,2,3,4,1,3,3,3,0.5,11,7,LH,0.2600000000000001,0.20000000000000004,0.1666666666666667,0.5933333333333337
12,18,35,1,1,0.35000000000000014,3,4,50,29,100,98,0.9000000000000004,0.36000000000000015,0.13999999999999999,0.04,4,2,1,1,5,2,1,1,5,0,13,7,LH,0.18000000000000005,0.18000000000000002,0.13999999999999999,0.04
12,18,36,1,9,0.2700000000000001,2,3,72,117,65,40,0.7500000000000003,0.8600000000000005,0.03,0.02,4,5,1,1,5,5,1,1,4,0,15,7,LH,0.15000000000000005,0.17200000000000004,0.03,0.02
