Subject,Round,Phase,afterbreak,Schema,Schema_RT,Schema_OB,Schema_AS,Cho_1,Cho_2,Cho_3,Cho_4,RT_1,RT_2,RT_3,RT_4,OB_1,OB_2,OB_3,OB_4,AS_1,AS_2,AS_3,AS_4,schema_payoff,AC,performance,breakR,type,dwellmean_1,dwellmean_2,dwellmean_3,dwellmean_4
1,1,1,0,8,1.0600000000000007,2,13,109,12,10,118,2.1700000000000017,2.809999999999984,0.3300000000000001,0.07,4,4,2,1,23,25,3,1,2,0,16,7,Lc,0.09434782608695652,0.11240000000000001,0.10999999999999999,0.07
1,1,2,0,9,0.7600000000000005,2,9,72,106,23,61,1.8100000000000012,2.199999999999997,0.3300000000000001,0.09,4,6,2,2,17,31,4,3,4,0,16,7,Lc,0.10647058823529412,0.07096774193548387,0.08249999999999999,0.03
1,2,3,0,6,1.1400000000000008,2,16,53,102,17,28,1.630000000000001,3.289999999999974,0.3100000000000001,0.3000000000000001,4,3,2,3,23,36,3,4,4,0,17,7,Lc,0.07086956521739131,0.0913888888888889,0.10333333333333333,0.075
1,2,4,0,8,0.7500000000000004,2,8,5,120,65,64,3.1499999999999932,0.20000000000000004,0.4000000000000002,0.2800000000000001,5,1,3,2,34,1,5,4,2,0,16,7,Lc,0.09264705882352942,0.20000000000000004,0.08000000000000002,0.07
1,3,5,0,8,1.1800000000000008,3,13,110,6,64,27,2.0900000000000016,0.45000000000000023,0.6700000000000004,1.0700000000000007,5,3,2,2,23,5,6,13,2,0,17,7,Lc,0.09086956521739131,0.09000000000000002,0.11166666666666669,0.0823076923076923
1,3,6,0,2,0.6800000000000004,2,8,80,84,79,24,2.5100000000000016,0.2900000000000001,1.400000000000001,1.5100000000000011,6,2,5,13,25,4,13,18,3,0.5,24,7,Lc,0.10040000000000002,0.0725,0.10769230769230771,0.0838888888888889
1,4,7,0,6,1.0200000000000007,2,13,55,54,52,7,2.4700000000000015,0.35000000000000014,0.22000000000000006,1.270000000000001,4,2,1,6,29,3,1,8,4,0.5,30,7,Lc,0.08517241379310346,0.11666666666666667,0.22000000000000006,0.15875000000000003
1,4,8,0,2,0.7800000000000005,4,9,116,84,109,37,3.6599999999999833,0.23000000000000007,0.3900000000000002,0.7400000000000004,10,2,2,5,35,5,3,8,3,0,12,7,Lc,0.10457142857142858,0.046,0.13,0.09250000000000001
1,5,9,0,7,1.2100000000000009,2,12,96,90,33,113,1.600000000000001,1.310000000000001,0.5000000000000002,1.7600000000000013,4,4,1,5,18,10,1,15,3,0,13,7,Lc,0.08888888888888889,0.131,0.5000000000000002,0.11733333333333335
1,5,10,0,4,0.46000000000000024,3,9,99,73,103,84,2.2400000000000015,1.0900000000000007,0.3900000000000002,1.260000000000001,5,2,4,5,27,8,6,17,2,0,10,7,Lc,0.08296296296296296,0.13625,0.06499999999999999,0.07411764705882354
1,6,11,0,5,0.7800000000000005,2,11,35,8,32,28,4.809999999999959,0.21000000000000005,0.6700000000000004,0.060000000000000005,6,2,2,1,46,2,5,1,6,0.5,36,7,Lc,0.10456521739130437,0.10499999999999998,0.134,0.060000000000000005
1,6,12,0,3,0.34000000000000014,2,5,38,48,94,86,1.3200000000000007,2.6499999999999875,0.6500000000000004,1.1000000000000008,5,8,4,6,13,25,9,10,5,0,16,7,Lc,0.10153846153846155,0.10600000000000001,0.07222222222222223,0.11000000000000001
1,7,13,1,6,0.5200000000000002,2,4,52,53,58,49,2.4600000000000017,0.37000000000000016,0.36000000000000015,0.5500000000000003,5,2,3,3,22,4,5,11,4,1,48,7,Lc,0.11181818181818183,0.09250000000000001,0.072,0.049999999999999996
1,7,14,1,4,0.9800000000000006,3,9,103,100,94,86,1.9400000000000013,1.0600000000000007,0.6200000000000003,0.5500000000000003,5,5,3,6,17,11,6,8,2,0,10,7,Lc,0.11411764705882355,0.09636363636363637,0.10333333333333335,0.06874999999999999
1,8,15,1,3,0.47000000000000025,4,7,45,38,43,107,1.1400000000000006,1.0400000000000007,0.19000000000000003,1.0400000000000007,7,3,2,2,13,12,2,11,5,0.5,32,7,Lc,0.0876923076923077,0.08666666666666667,0.09500000000000001,0.09454545454545456
1,8,16,1,1,1.6600000000000013,2,21,26,35,3,4,1.9700000000000013,1.7700000000000014,0.5400000000000003,0.6200000000000003,4,2,2,2,23,26,5,10,5,0,22,7,Lc,0.08565217391304349,0.06807692307692308,0.10800000000000001,0.062
1,9,17,1,9,0.11999999999999998,2,2,16,108,67,71,10.269999999999827,0.01,0.01,0.01,19,1,1,1,81,1,1,1,4,0,16,7,Lc,0.12679012345679014,0.01,0.01,0.01
1,9,18,1,6,0.9700000000000006,2,15,58,60,45,115,1.1300000000000006,1.310000000000001,0.18000000000000002,0.36000000000000015,4,2,1,3,17,13,1,5,4,0,15,7,Lc,0.06647058823529411,0.10076923076923078,0.18000000000000002,0.07200000000000001
1,10,19,1,9,0.5200000000000002,2,6,61,63,112,48,1.9600000000000013,0.9300000000000006,0.46000000000000024,0.36000000000000015,5,2,2,2,22,7,6,6,4,0,15,7,Lc,0.08909090909090911,0.13285714285714287,0.07666666666666666,0.06
1,10,20,1,5,0.38000000000000017,2,7,8,5,100,105,0.7500000000000003,1.1200000000000008,1.450000000000001,1.1600000000000008,4,3,4,5,13,15,15,14,6,0,16,7,Lc,0.05769230769230769,0.07466666666666666,0.09666666666666668,0.08285714285714285
1,11,21,1,7,0.36000000000000015,5,5,116,118,61,62,3.7399999999999722,5.039999999999937,0.3900000000000002,0.01,9,9,3,1,36,48,4,1,3,0,12,7,Lc,0.1038888888888889,0.10500000000000002,0.0975,0.01
1,11,22,1,2,0.6400000000000003,3,9,82,83,76,43,2.1900000000000013,0.38000000000000017,0.9000000000000006,0.5300000000000002,7,3,3,2,21,4,7,5,3,0.5,23,7,Lc,0.1042857142857143,0.095,0.1285714285714286,0.10600000000000001
1,12,23,1,7,0.8000000000000005,3,10,91,92,88,87,2.1700000000000017,2.1899999999999973,0.060000000000000005,0.11999999999999998,7,8,2,2,20,17,2,2,3,1,36,7,Lc,0.10850000000000001,0.12882352941176473,0.030000000000000002,0.060000000000000005
1,12,24,1,6,1.390000000000001,2,16,59,78,15,55,2.690000000000002,1.340000000000001,0.48000000000000026,0.10999999999999999,6,2,3,1,26,16,3,1,4,0,17,7,Lc,0.10346153846153847,0.08375,0.16000000000000003,0.10999999999999999
1,13,25,1,2,0.9200000000000006,2,10,80,74,73,56,1.580000000000001,3.189999999999976,0.12999999999999998,1.290000000000001,5,8,2,6,16,32,2,12,3,0.5,22,7,Lc,0.09875,0.09968750000000001,0.065,0.10750000000000003
1,13,26,1,10,0.4300000000000002,2,6,19,16,20,29,1.0900000000000005,1.7400000000000013,0.2900000000000001,2.0799999999999996,4,3,2,12,10,12,3,18,6,0.5,41,7,Lc,0.10900000000000001,0.14500000000000002,0.09666666666666665,0.11555555555555556
1,14,27,1,4,1.5600000000000012,2,16,103,29,19,56,2.5100000000000016,1.8000000000000014,0.49000000000000027,0.26000000000000006,5,2,2,2,24,32,4,4,2,0,17,7,Lc,0.10458333333333335,0.05625,0.1225,0.065
1,14,28,1,3,0.6000000000000003,2,11,40,44,38,45,1.7900000000000011,0.6100000000000003,0.6600000000000004,1.1600000000000008,4,3,4,9,24,6,11,12,5,1,60,7,Lc,0.07458333333333335,0.10166666666666668,0.060000000000000005,0.09666666666666669
1,15,29,1,7,0.3300000000000001,2,7,7,88,96,52,10.37999999999983,0.01,0.01,0.01,20,1,1,1,103,1,1,1,3,0,16,7,Lc,0.10077669902912623,0.01,0.01,0.01
1,15,30,1,8,1.1600000000000008,4,12,118,120,16,23,2.3100000000000014,0.3000000000000001,0.5300000000000002,0.38000000000000017,6,1,2,3,31,1,3,4,2,0,16,7,Lc,0.07451612903225807,0.3000000000000001,0.1766666666666667,0.095
1,16,31,1,1,0.34000000000000014,2,3,29,26,57,35,2.3900000000000006,0.2800000000000001,0.5500000000000003,0.9400000000000006,8,2,4,6,15,4,5,7,5,0.5,34,7,Lc,0.15933333333333338,0.06999999999999999,0.11,0.1342857142857143
1,16,32,1,3,0.2900000000000001,2,3,48,12,99,10,2.1900000000000017,1.7700000000000014,1.1900000000000008,0.2900000000000001,6,6,6,4,21,26,7,7,5,0,19,7,Lc,0.10428571428571429,0.06807692307692308,0.17000000000000004,0.041428571428571426
1,17,33,1,4,0.7400000000000004,2,10,107,36,103,11,1.3200000000000007,2.949999999999981,0.17,0.16,4,6,2,1,16,25,2,1,2,0,15,7,Lc,0.0825,0.11800000000000001,0.08499999999999999,0.16
1,17,34,1,8,1.0000000000000007,4,16,114,112,64,21,1.4100000000000008,0.6900000000000004,1.2300000000000009,0.15,6,3,2,2,19,11,13,3,2,0,14,7,Lc,0.07421052631578949,0.06272727272727273,0.09461538461538462,0.05
1,18,35,1,9,1.280000000000001,3,12,72,68,69,97,2.620000000000002,0.5200000000000002,0.9500000000000006,0.08,6,3,2,1,24,5,13,2,4,0.5,26,7,Lc,0.10916666666666669,0.10400000000000001,0.07307692307692308,0.04
1,18,36,1,10,0.5700000000000003,3,8,16,13,22,50,0.9300000000000004,10.309999999999825,0.01,0.01,5,19,1,1,10,107,1,1,6,0.5,40,7,Lc,0.09300000000000001,0.0963551401869159,0.01,0.01
1,19,37,1,8,1.0100000000000007,2,12,57,112,119,49,2.940000000000002,0.3200000000000001,0.18000000000000002,0.38000000000000017,5,3,1,4,29,5,1,4,2,0,12,7,Lc,0.1013793103448276,0.064,0.18000000000000002,0.09499999999999999
1,19,38,1,2,0.36000000000000015,2,7,74,70,36,73,2.4699999999999993,0.47000000000000025,1.0900000000000007,0.11999999999999998,6,2,2,2,23,5,5,2,3,0,15,7,Lc,0.1073913043478261,0.09400000000000001,0.21800000000000005,0.060000000000000005
1,20,39,1,4,0.3000000000000001,2,3,102,27,9,103,1.3600000000000008,1.300000000000001,5.639999999999924,0.22000000000000006,6,2,12,2,11,10,49,2,2,0,15,7,Lc,0.12363636363636366,0.13000000000000003,0.11510204081632655,0.11000000000000003
1,20,40,1,10,0.5000000000000002,4,10,17,24,15,117,1.3600000000000008,1.0900000000000007,5.159999999999934,0.2800000000000001,7,4,7,2,16,9,58,4,6,0.5,38,7,Lc,0.085,0.12111111111111114,0.08896551724137933,0.06999999999999999
1,21,41,1,2,0.2700000000000001,2,3,80,30,73,82,1.1300000000000006,2.5599999999999894,0.4100000000000002,0.20000000000000004,4,7,4,2,11,27,4,2,3,0.5,23,7,Lc,0.10272727272727274,0.09481481481481482,0.10250000000000001,0.1
1,21,42,1,4,0.2800000000000001,3,5,106,11,2,103,1.3400000000000007,2.159999999999998,0.09,0.04,5,6,2,1,14,22,3,1,2,0,16,7,Lc,0.09571428571428572,0.09818181818181819,0.03,0.04
2,1,1,0,9,0.8400000000000005,2,6,66,25,111,4,1.3200000000000007,3.2199999999999753,0.8000000000000005,0.16,4,6,3,2,10,18,11,3,4,0,17,7,Lc,0.13200000000000003,0.17888888888888893,0.07272727272727272,0.05333333333333333
2,1,2,0,6,0.8900000000000006,2,8,24,13,55,74,4.519999999999968,1.1100000000000008,0.12999999999999998,0.17,5,2,2,1,33,11,2,1,4,0,19,7,Lc,0.136969696969697,0.10090909090909092,0.065,0.17
2,2,3,0,3,0.5400000000000003,2,4,41,79,44,38,1.1300000000000006,1.1800000000000008,0.6500000000000004,0.5600000000000003,4,2,2,2,6,9,7,9,5,0.5,33,7,Lc,0.18833333333333338,0.13111111111111115,0.09285714285714287,0.06222222222222222
2,2,4,0,1,1.5200000000000011,2,13,30,16,62,61,2.2300000000000013,2.9799999999999804,0.12999999999999998,0.18000000000000002,4,4,1,2,17,26,1,3,5,0,19,7,Lc,0.1311764705882353,0.11461538461538463,0.12999999999999998,0.06
2,3,5,0,6,1.0400000000000007,2,13,57,52,51,9,1.640000000000001,0.6100000000000003,2.349999999999994,1.1000000000000008,6,3,8,3,22,5,12,6,4,0.5,30,7,Lc,0.07454545454545455,0.12200000000000004,0.1958333333333334,0.18333333333333338
2,3,6,0,2,0.9900000000000007,3,10,73,120,62,117,1.7700000000000011,1.410000000000001,0.4400000000000002,0.7500000000000004,5,2,2,2,14,16,6,7,3,0,11,7,Lc,0.12642857142857145,0.08812500000000001,0.07333333333333333,0.10714285714285715
2,4,7,0,5,0.8900000000000006,2,9,66,61,67,1,2.3200000000000016,0.7800000000000005,0.26000000000000006,0.47000000000000025,5,3,1,3,18,11,1,4,6,0.5,30,7,Lc,0.12888888888888891,0.07090909090909091,0.26000000000000006,0.11750000000000001
2,4,8,0,6,0.6000000000000003,2,4,52,56,53,97,2.6899999999999995,1.2000000000000008,0.6400000000000003,0.8800000000000006,11,7,4,6,15,13,5,10,4,0.5,26,7,Lc,0.1793333333333334,0.09230769230769231,0.12800000000000006,0.088
2,5,9,0,6,0.7800000000000005,3,11,51,59,80,83,2.410000000000002,0.9800000000000006,1.270000000000001,0.05,6,4,5,2,21,11,8,2,4,0,14,7,Lc,0.11476190476190477,0.0890909090909091,0.15875000000000006,0.025
2,5,10,0,5,0.5200000000000002,2,3,10,106,97,88,2.1000000000000014,2.07,1.7400000000000013,0.35000000000000014,5,5,5,2,13,20,9,3,6,0,13,7,Lc,0.16153846153846158,0.10350000000000001,0.19333333333333338,0.11666666666666671
2,6,11,0,6,0.9900000000000007,2,11,50,49,81,6,1.9800000000000013,0.5600000000000003,0.4100000000000002,0.4200000000000002,4,2,1,2,24,9,1,4,4,0,17,7,Lc,0.0825,0.06222222222222222,0.4100000000000002,0.10500000000000002
2,6,12,0,7,0.8900000000000006,2,11,85,63,88,89,1.3300000000000007,1.270000000000001,0.19000000000000003,0.3100000000000001,3,2,1,2,12,6,1,3,3,0.5,22,7,Lc,0.11083333333333337,0.21166666666666675,0.19000000000000003,0.10333333333333333
2,7,13,1,3,1.330000000000001,2,13,43,40,38,57,1.550000000000001,2.199999999999997,0.4000000000000002,0.12999999999999998,4,4,3,1,15,21,6,1,5,0.5,34,7,Lc,0.10333333333333333,0.10476190476190476,0.06666666666666667,0.12999999999999998
2,7,14,1,9,1.420000000000001,2,17,64,7,67,5,4.699999999999975,0.4400000000000002,0.05,0.4100000000000002,11,2,1,2,40,3,1,4,4,0,20,7,Lc,0.11750000000000002,0.1466666666666667,0.05,0.1025
2,8,15,1,5,0.5700000000000003,3,6,8,38,64,110,2.3500000000000014,1.320000000000001,3.989999999999959,0.07,5,3,6,3,20,5,24,4,6,0,17,7,Lc,0.11750000000000003,0.2640000000000001,0.16625000000000004,0.0175
2,8,16,1,1,0.3300000000000001,2,4,22,14,35,17,3.1299999999999844,1.8200000000000014,0.17,0.10999999999999999,6,3,2,1,27,16,2,1,5,0.5,41,7,Lc,0.11592592592592595,0.11375,0.08499999999999999,0.10999999999999999
2,9,17,1,1,0.6600000000000004,2,8,28,34,16,105,0.9100000000000004,0.7400000000000004,2.6099999999999883,1.5400000000000011,4,2,5,7,10,5,18,7,5,0,18,7,Lc,0.091,0.14800000000000002,0.14500000000000002,0.2200000000000001
2,9,18,1,8,1.290000000000001,2,9,109,120,7,46,1.5000000000000009,2.0899999999999994,0.3000000000000001,0.4300000000000002,4,2,2,3,11,25,3,3,2,0,15,7,Lc,0.13636363636363638,0.0836,0.09999999999999999,0.14333333333333337
2,10,19,1,4,0.7600000000000005,2,10,101,82,80,102,1.540000000000001,0.4300000000000002,0.34000000000000014,0.46000000000000024,4,3,2,3,16,4,3,9,2,0,10,7,Lc,0.09625,0.10750000000000004,0.11333333333333334,0.051111111111111114
2,10,20,1,1,0.8800000000000006,2,10,27,5,36,31,1.510000000000001,1.0200000000000007,0.4300000000000002,0.25000000000000006,4,6,2,1,12,7,3,2,5,0.5,36,7,Lc,0.12583333333333335,0.14571428571428574,0.14333333333333337,0.12500000000000003
2,11,21,1,4,1.8000000000000014,2,18,98,80,3,101,2.740000000000002,0.5300000000000002,0.7600000000000005,0.16,6,2,2,1,28,5,8,1,2,0,13,7,Lc,0.09785714285714286,0.106,0.095,0.16
2,11,22,1,1,0.8100000000000005,3,7,25,30,29,23,1.1100000000000005,1.9100000000000015,0.4200000000000002,0.7700000000000005,5,4,2,6,9,18,3,11,5,0.5,36,7,Lc,0.12333333333333335,0.10611111111111111,0.14,0.07
2,12,23,1,2,0.8400000000000005,3,8,4,102,8,80,3.289999999999992,0.20000000000000004,0.13999999999999999,0.6200000000000003,9,2,1,4,23,4,1,6,3,0,17,7,Lc,0.14304347826086958,0.05,0.13999999999999999,0.10333333333333335
2,12,24,1,10,0.8600000000000005,2,9,23,22,16,17,1.750000000000001,1.330000000000001,1.9700000000000015,0.6200000000000003,4,5,10,4,17,7,13,5,6,1,72,7,Lc,0.10294117647058824,0.19000000000000009,0.15153846153846157,0.12400000000000001
2,13,25,1,9,0.5200000000000002,4,6,68,64,18,104,1.610000000000001,0.3900000000000002,4.019999999999959,0.060000000000000005,7,3,5,2,18,5,28,3,4,0,16,7,Lc,0.08944444444444445,0.078,0.1435714285714286,0.02
2,13,26,1,3,0.7700000000000005,2,8,3,6,9,4,3.599999999999984,0.6600000000000004,0.10999999999999999,3.92999999999996,5,2,1,8,25,8,1,16,5,1,72,7,Lc,0.14400000000000004,0.0825,0.10999999999999999,0.2456250000000001
2,14,27,1,8,0.4400000000000002,2,6,118,115,26,82,0.5800000000000002,2.8299999999999836,0.25000000000000006,0.6200000000000003,3,6,2,3,7,26,5,6,2,0,12,7,Lc,0.08285714285714287,0.10884615384615386,0.05,0.10333333333333335
2,14,28,1,7,0.7300000000000004,2,7,90,103,107,93,1.5000000000000009,1.360000000000001,0.13999999999999999,0.6100000000000003,7,7,1,6,17,13,1,8,3,0,10,7,Lc,0.08823529411764706,0.10461538461538462,0.13999999999999999,0.07625
2,15,29,1,4,0.7800000000000005,2,13,104,103,101,95,1.2500000000000007,1.1400000000000008,0.26000000000000006,0.6300000000000003,4,2,2,3,19,11,3,4,2,0.5,15,7,Lc,0.06578947368421052,0.10363636363636364,0.08666666666666667,0.15750000000000003
2,15,30,1,8,0.2800000000000001,2,5,111,68,76,115,1.1200000000000006,0.9200000000000006,0.3300000000000001,0.13999999999999999,4,2,2,1,15,5,3,1,2,0,11,7,Lc,0.07466666666666666,0.18400000000000002,0.11000000000000001,0.13999999999999999
2,16,31,1,6,0.4300000000000002,2,4,56,55,54,60,1.4800000000000009,0.49000000000000027,0.17,0.8800000000000006,4,2,1,3,12,6,1,8,4,1,48,7,Lc,0.12333333333333335,0.08166666666666667,0.17,0.11
2,16,32,1,4,0.3300000000000001,2,4,108,66,68,71,1.1400000000000006,1.0100000000000007,0.9700000000000006,0.22000000000000006,5,4,4,2,8,10,10,4,2,0.5,26,7,Lc,0.14250000000000004,0.10100000000000002,0.097,0.05499999999999999
2,17,33,1,2,0.34000000000000014,2,3,77,78,84,64,0.9900000000000004,0.34000000000000014,2.239999999999996,0.09999999999999999,4,2,9,1,10,5,20,2,3,0.5,22,7,Lc,0.09900000000000002,0.068,0.11200000000000002,0.05
2,17,34,1,8,0.6800000000000004,5,9,115,58,117,22,1.8500000000000012,2.9799999999999804,0.16,0.49000000000000027,7,5,2,2,23,23,3,3,2,0,14,7,Lc,0.08043478260869565,0.1295652173913044,0.05333333333333334,0.16333333333333336
2,18,35,1,3,0.34000000000000014,2,3,41,112,68,114,2.330000000000002,0.20000000000000004,0.25000000000000006,0.24000000000000007,4,2,2,2,19,2,2,4,5,0,13,7,Lc,0.12263157894736842,0.09999999999999999,0.12499999999999999,0.06
2,18,36,1,4,0.6100000000000003,2,7,105,107,3,93,0.9000000000000004,6.509999999999906,3.569999999999968,0.01,4,13,15,1,9,41,30,1,2,0,13,7,Lc,0.1,0.15878048780487808,0.11900000000000002,0.01
2,19,37,1,4,1.260000000000001,2,16,97,104,50,36,1.8000000000000012,1.390000000000001,0.6000000000000003,1.8400000000000014,5,3,2,6,20,9,4,14,2,0,13,7,Lc,0.09000000000000001,0.15444444444444447,0.15000000000000002,0.13142857142857145
2,19,38,1,8,1.1500000000000008,16,20,116,112,62,38,1.3300000000000007,0.12999999999999998,2.2299999999999964,1.1100000000000008,18,1,4,3,22,1,25,13,2,0,13,7,Lc,0.060454545454545455,0.12999999999999998,0.0892,0.08538461538461539
2,20,39,1,10,0.6100000000000003,2,7,13,18,71,21,1.9500000000000013,0.5800000000000003,0.6300000000000003,0.5500000000000003,7,3,3,7,17,5,4,8,6,0.5,40,7,Lc,0.11470588235294119,0.11599999999999999,0.15750000000000003,0.06875
2,20,40,1,7,0.5300000000000002,2,9,91,87,46,96,1.2100000000000006,0.7300000000000004,2.0500000000000003,0.16,4,2,6,2,11,5,14,3,3,0.5,23,7,Lc,0.11000000000000003,0.14600000000000002,0.14642857142857146,0.05333333333333334
2,21,41,1,1,1.2100000000000009,3,9,73,23,77,35,4.149999999999983,0.4200000000000002,0.6300000000000003,0.7900000000000005,8,3,3,3,31,6,6,3,5,0,17,7,Lc,0.13387096774193552,0.07,0.10500000000000001,0.2633333333333334
2,21,42,1,9,0.5500000000000003,3,7,61,103,98,97,1.580000000000001,1.480000000000001,0.21000000000000005,0.22000000000000006,7,3,2,2,16,16,5,5,4,0.5,16,7,Lc,0.09875,0.09250000000000001,0.042,0.044000000000000004
3,1,1,0,5,0.9500000000000006,2,9,2,1,107,38,2.690000000000002,0.3000000000000001,0.8600000000000005,0.8000000000000005,6,2,4,3,29,2,9,7,6,0,19,7,Lc,0.09275862068965517,0.15000000000000002,0.09555555555555556,0.1142857142857143
3,1,2,0,9,0.9600000000000006,2,10,61,30,14,20,1.7600000000000011,2.020000000000001,1.2000000000000008,0.16,4,4,3,2,18,9,8,3,4,0,21,7,Lc,0.09777777777777778,0.2244444444444445,0.15000000000000005,0.05333333333333333
3,2,3,0,4,0.5600000000000003,4,13,98,16,102,33,1.670000000000001,1.440000000000001,0.5600000000000003,0.18000000000000002,7,3,2,2,25,11,10,2,2,0,15,7,Lc,0.0668,0.13090909090909092,0.055999999999999994,0.09
3,2,4,0,5,0.5700000000000003,2,4,1,37,5,114,2.2100000000000017,0.7600000000000005,0.4300000000000002,0.6500000000000004,4,3,3,4,16,5,3,7,6,0,19,7,Lc,0.13812500000000003,0.15200000000000002,0.14333333333333334,0.09285714285714287
3,3,5,0,7,0.5100000000000002,2,5,94,44,43,14,1.1100000000000005,3.3499999999999726,0.08,0.04,4,8,2,1,10,22,2,1,3,0,19,7,Lc,0.11100000000000002,0.1522727272727273,0.04,0.04
3,3,6,0,8,1.1700000000000008,2,8,31,116,2,111,2.1900000000000013,1.0000000000000007,0.4000000000000002,0.17,4,2,2,2,11,9,3,2,2,0,15,7,Lc,0.19909090909090918,0.11111111111111112,0.13333333333333336,0.08499999999999999
3,4,7,0,8,1.1800000000000008,3,11,110,120,12,96,1.9700000000000013,0.6900000000000004,1.460000000000001,0.11999999999999998,5,2,4,1,17,5,12,1,2,0,13,7,Lc,0.11588235294117649,0.138,0.12166666666666667,0.11999999999999998
3,4,8,0,4,0.37000000000000016,2,3,104,108,18,41,2.2600000000000016,0.7400000000000004,1.0900000000000007,0.15,6,2,3,2,14,10,7,3,2,0,15,7,Lc,0.16142857142857148,0.074,0.15571428571428575,0.05
3,5,9,0,6,0.45000000000000023,2,3,57,1,99,98,1.8500000000000012,1.1900000000000008,0.2900000000000001,0.21000000000000005,4,3,2,2,15,10,3,3,4,0,14,7,Lc,0.12333333333333334,0.11900000000000001,0.09666666666666665,0.06999999999999999
3,5,10,0,9,0.18000000000000002,2,2,15,39,24,66,5.859999999999923,0.01,0.02,0.02,10,1,1,1,52,1,1,1,4,0,21,7,Lc,0.1126923076923077,0.01,0.02,0.02
3,6,11,0,6,0.6600000000000004,2,6,49,60,56,59,1.7800000000000011,0.6200000000000003,1.5400000000000011,0.36000000000000015,7,3,11,3,14,5,15,3,4,1,48,7,Lc,0.12714285714285717,0.12400000000000001,0.10266666666666667,0.12000000000000001
3,6,12,0,2,0.5800000000000003,3,10,76,105,98,17,1.8900000000000012,0.5900000000000003,0.6300000000000003,0.13999999999999999,5,2,4,1,20,9,5,2,3,0,13,7,Lc,0.09450000000000001,0.06555555555555556,0.126,0.06999999999999999
3,7,13,1,4,0.35000000000000014,2,3,107,9,108,38,1.9500000000000013,0.36000000000000015,0.3100000000000001,0.38000000000000017,7,2,4,3,17,5,9,5,2,0,15,7,Lc,0.11470588235294119,0.07200000000000001,0.034444444444444444,0.07600000000000001
3,7,14,1,8,0.3900000000000002,2,7,110,16,24,79,1.9900000000000013,0.5300000000000002,0.3300000000000001,0.24000000000000007,7,2,2,3,24,5,6,4,2,0,17,7,Lc,0.08291666666666667,0.106,0.05499999999999999,0.06
3,8,15,1,8,0.5700000000000003,2,6,20,114,21,15,1.8700000000000012,0.17,0.26000000000000006,0.6000000000000003,5,1,1,3,21,2,1,5,2,0.5,38,7,Lc,0.08904761904761906,0.08499999999999999,0.26000000000000006,0.12000000000000001
3,8,16,1,7,0.5600000000000003,3,7,90,94,101,85,1.2800000000000007,0.8900000000000006,0.20000000000000004,0.17,5,2,1,1,12,7,1,1,3,0.5,20,7,Lc,0.10666666666666669,0.12714285714285714,0.20000000000000004,0.17
3,9,17,1,1,0.7000000000000004,2,6,31,36,66,10,1.720000000000001,1.0700000000000007,0.8600000000000005,0.4300000000000002,6,4,5,2,14,9,6,2,5,0,20,7,Lc,0.12285714285714286,0.11888888888888889,0.14333333333333334,0.21500000000000008
3,9,18,1,3,0.6700000000000004,2,7,41,38,42,50,2.1800000000000015,0.4100000000000002,0.6500000000000004,1.8800000000000014,6,2,5,12,19,3,7,15,5,0.5,34,7,Lc,0.11473684210526318,0.1366666666666667,0.09285714285714287,0.12533333333333335
3,10,19,1,1,0.4300000000000002,2,5,34,97,102,27,1.3400000000000007,0.9500000000000006,0.7400000000000004,1.2100000000000009,4,4,7,7,11,11,7,7,5,0,14,7,Lc,0.12181818181818184,0.08636363636363638,0.10571428571428573,0.1728571428571429
3,10,20,1,8,0.6500000000000004,3,11,119,10,40,46,1.4800000000000009,0.3100000000000001,0.3200000000000001,0.21000000000000005,5,1,1,1,21,1,1,1,2,0,18,7,Lc,0.07047619047619048,0.3100000000000001,0.3200000000000001,0.21000000000000005
3,11,21,1,7,1.400000000000001,3,17,107,89,28,93,3.230000000000002,0.20000000000000004,0.07,0.20000000000000004,8,2,1,2,31,2,1,3,3,0,13,7,Lc,0.10419354838709678,0.1,0.07,0.06666666666666667
3,11,22,1,9,1.2200000000000009,4,12,44,47,38,67,2.490000000000002,0.4100000000000002,0.3300000000000001,0.09999999999999999,10,3,2,1,21,6,3,1,4,0.5,34,7,Lc,0.11857142857142859,0.06833333333333333,0.11,0.09999999999999999
3,12,23,1,1,0.47000000000000025,3,4,29,30,27,67,2.390000000000002,0.11999999999999998,0.5900000000000003,0.23000000000000007,6,1,3,2,18,1,5,3,5,0.5,34,7,Lc,0.1327777777777778,0.11999999999999998,0.11800000000000002,0.07666666666666667
3,12,24,1,7,0.5700000000000003,3,6,91,88,99,86,1.670000000000001,0.17,0.5100000000000002,0.18000000000000002,7,1,2,2,14,1,6,2,3,0.5,20,7,Lc,0.1192857142857143,0.17,0.08499999999999999,0.09
3,13,25,1,2,0.6000000000000003,2,8,81,82,74,23,1.0200000000000005,2.199999999999997,0.3300000000000001,1.8700000000000014,5,10,4,8,12,18,4,11,3,0.5,24,7,Lc,0.085,0.12222222222222223,0.0825,0.17000000000000004
3,13,26,1,4,0.24000000000000007,3,3,65,68,92,104,5.0799999999999415,0.01,2.569999999999989,0.03,10,1,12,2,46,1,16,2,2,0,13,7,Lc,0.11043478260869567,0.01,0.16062500000000005,0.015
3,14,27,1,3,0.45000000000000023,2,5,46,40,42,111,1.4300000000000008,0.48000000000000026,0.6200000000000003,1.420000000000001,4,2,5,10,11,4,8,13,5,0.5,32,7,Lc,0.13,0.12000000000000001,0.0775,0.10923076923076924
3,14,28,1,6,0.7000000000000004,3,7,82,56,57,80,1.680000000000001,0.48000000000000026,0.3000000000000001,0.5500000000000003,5,5,2,4,14,6,3,7,4,0,14,7,Lc,0.12000000000000002,0.08000000000000002,0.09999999999999999,0.07857142857142857
3,15,29,1,8,0.2900000000000001,2,5,120,114,119,72,0.8600000000000003,0.4100000000000002,0.46000000000000024,1.1800000000000008,4,3,3,5,9,5,4,7,2,0.5,16,7,Lc,0.09555555555555557,0.082,0.11500000000000002,0.1685714285714286
3,15,30,1,2,0.5000000000000002,6,8,78,60,99,80,1.8900000000000012,3.1299999999999772,0.04,0.36000000000000015,9,9,2,3,24,30,2,4,3,0,12,7,Lc,0.07875,0.10433333333333333,0.02,0.09
3,16,31,1,4,0.9600000000000006,2,12,105,107,97,103,1.3600000000000008,1.0100000000000007,1.8300000000000014,0.24000000000000007,5,5,7,3,16,7,11,4,2,1,24,7,Lc,0.085,0.1442857142857143,0.16636363636363644,0.060000000000000005
3,16,32,1,9,0.4400000000000002,3,5,70,24,111,40,2.1900000000000017,1.0100000000000007,0.2900000000000001,0.3200000000000001,6,4,2,4,21,9,3,4,4,0,17,7,Lc,0.1042857142857143,0.11222222222222222,0.09666666666666666,0.08000000000000002
3,17,33,1,3,0.2900000000000001,2,5,48,39,45,57,0.6900000000000003,0.5500000000000003,0.8000000000000005,0.5100000000000002,4,4,5,3,7,6,5,4,5,0.5,34,7,Lc,0.09857142857142859,0.09166666666666666,0.16000000000000003,0.1275
3,17,34,1,1,0.8800000000000006,2,8,30,33,61,13,1.700000000000001,1.0300000000000007,0.26000000000000006,0.6600000000000004,4,2,3,4,17,8,6,7,5,0,20,7,Lc,0.1,0.12875,0.043333333333333335,0.09428571428571428
3,18,35,1,9,1.1400000000000008,2,10,67,26,13,71,2.030000000000001,0.2900000000000001,0.6900000000000004,0.22000000000000006,5,3,3,1,16,4,5,2,4,0,19,7,Lc,0.12687500000000002,0.0725,0.138,0.11000000000000001
3,18,36,1,6,0.23000000000000007,2,3,60,58,111,113,1.620000000000001,0.3900000000000002,0.7800000000000005,0.5000000000000002,4,2,4,5,19,3,6,6,4,0,12,7,Lc,0.08526315789473685,0.13,0.13000000000000003,0.08333333333333336
3,19,37,1,4,0.3300000000000001,2,4,104,97,99,102,0.8800000000000003,0.6100000000000003,0.6500000000000004,0.3200000000000001,4,3,3,4,6,4,5,4,2,1,24,7,Lc,0.14666666666666672,0.15250000000000002,0.13,0.07999999999999999
3,19,38,1,8,0.20000000000000004,2,3,119,113,114,69,0.7300000000000003,0.5700000000000003,0.25000000000000006,0.16,4,2,2,1,9,6,4,1,2,0.5,16,7,Lc,0.0811111111111111,0.095,0.06249999999999999,0.16
3,20,39,1,5,0.3200000000000001,2,8,12,38,48,10,0.6200000000000002,0.9500000000000006,0.09999999999999999,0.10999999999999999,4,3,1,1,10,14,1,1,6,0,22,7,Lc,0.062000000000000006,0.06785714285714287,0.09999999999999999,0.10999999999999999
3,20,40,1,4,0.6300000000000003,2,9,102,101,103,33,1.4300000000000008,0.4000000000000002,1.1300000000000008,0.6400000000000003,4,2,3,5,16,3,10,6,2,0.5,17,7,Lc,0.08937500000000001,0.13333333333333336,0.11300000000000002,0.10666666666666667
3,21,41,1,1,0.38000000000000017,2,5,36,20,35,77,1.4900000000000009,0.5700000000000003,0.6800000000000004,0.5400000000000003,4,2,4,3,15,5,8,4,5,0,19,7,Lc,0.09933333333333334,0.114,0.08499999999999999,0.135
3,21,42,1,4,0.48000000000000026,4,8,105,54,7,2,1.0700000000000005,0.7600000000000005,0.16,0.17,6,4,2,2,11,7,3,3,2,0,18,7,Lc,0.0972727272727273,0.1085714285714286,0.05333333333333334,0.05666666666666667
3,22,43,1,8,0.5500000000000003,3,8,115,5,90,52,2.540000000000002,0.08,0.07,0.07,6,2,1,2,26,2,1,2,2,0,15,7,Lc,0.0976923076923077,0.04,0.07,0.035
3,22,44,1,4,0.3200000000000001,3,4,14,106,104,107,3.009999999999987,0.07,0.25000000000000006,0.4400000000000002,11,1,3,4,29,1,3,4,2,0.5,18,7,Lc,0.10379310344827587,0.07,0.08333333333333334,0.11000000000000001
4,1,1,0,7,0.24000000000000007,2,3,92,18,22,56,0.5300000000000001,0.4300000000000002,0.05,0.09,4,2,1,1,5,2,1,1,3,0,19,7,Lc,0.106,0.21500000000000002,0.05,0.09
4,1,2,0,8,0.2700000000000001,2,3,119,115,8,64,0.8000000000000003,0.05,0.15,0.22000000000000006,4,1,1,2,6,1,1,3,2,0,14,7,Lc,0.13333333333333333,0.05,0.15,0.07333333333333333
4,2,3,0,1,0.23000000000000007,2,3,83,108,19,62,0.9700000000000005,0.13999999999999999,0.05,0.03,3,1,1,1,4,1,1,1,5,0,15,7,Lc,0.2425000000000001,0.13999999999999999,0.05,0.03
4,2,4,0,3,0.2800000000000001,2,3,43,8,110,5,0.5100000000000001,1.400000000000001,0.01,0.6800000000000004,4,3,1,3,5,3,1,3,5,0,19,7,Lc,0.10200000000000001,0.46666666666666695,0.01,0.2266666666666668
4,3,5,0,1,0.21000000000000005,2,3,33,26,67,75,0.5200000000000001,0.11999999999999998,0.26000000000000006,0.23000000000000007,3,1,1,2,4,1,1,2,5,0,17,7,Lc,0.13000000000000003,0.11999999999999998,0.26000000000000006,0.11500000000000003
4,3,6,0,4,0.25000000000000006,2,3,97,104,39,38,0.5900000000000002,0.12999999999999998,0.3200000000000001,0.05,3,1,2,1,4,1,4,1,2,0,14,7,Lc,0.14750000000000002,0.12999999999999998,0.07999999999999999,0.05
4,4,7,0,6,0.2800000000000001,2,3,45,97,42,57,1.3200000000000007,0.02,0.060000000000000005,0.02,4,1,1,1,6,1,1,1,4,0,16,7,Lc,0.22000000000000008,0.02,0.060000000000000005,0.02
4,4,8,0,10,0.2800000000000001,2,3,34,24,66,22,0.7900000000000003,0.8300000000000005,0.21000000000000005,0.01,3,4,1,1,4,5,1,1,6,0,21,7,Lc,0.19750000000000006,0.16600000000000004,0.21000000000000005,0.01
4,5,9,0,1,0.20000000000000004,2,3,30,82,69,76,0.5800000000000002,0.3000000000000001,0.07,0.05,4,2,1,1,5,2,1,1,5,0,15,7,Lc,0.116,0.15000000000000002,0.07,0.05
4,5,10,0,10,0.47000000000000025,5,6,47,19,23,41,0.8700000000000004,0.25000000000000006,0.05,2.259999999999996,6,1,1,6,7,1,1,8,6,0,22,7,Lc,0.12428571428571432,0.25000000000000006,0.05,0.28250000000000014
4,6,11,0,2,0.35000000000000014,2,3,75,67,79,7,0.7300000000000003,0.35000000000000014,0.15,0.13999999999999999,4,2,1,2,5,2,1,2,3,0,16,7,Lc,0.14600000000000002,0.17500000000000002,0.15,0.06999999999999999
4,6,12,0,3,0.26000000000000006,2,3,47,106,51,98,0.6600000000000003,0.25000000000000006,0.4200000000000002,0.7100000000000004,4,2,2,2,7,2,2,3,5,0,13,7,Lc,0.09428571428571428,0.12499999999999999,0.2100000000000001,0.23666666666666678
4,7,13,1,2,0.24000000000000007,2,3,51,82,83,56,0.6200000000000002,0.09999999999999999,0.15,0.4100000000000002,3,1,1,3,4,1,1,4,3,0,14,7,Lc,0.15500000000000003,0.09999999999999999,0.15,0.10250000000000004
4,7,14,1,3,0.35000000000000014,2,4,48,107,43,6,1.1600000000000006,0.3300000000000001,0.03,0.01,4,1,2,1,6,1,2,1,5,0,18,7,Lc,0.1933333333333334,0.3300000000000001,0.015,0.01
4,8,15,1,4,0.25000000000000006,2,3,102,18,72,107,0.9800000000000004,1.440000000000001,0.7500000000000004,0.01,4,4,2,1,5,4,2,1,2,0,14,7,Lc,0.1960000000000001,0.36000000000000015,0.3750000000000002,0.01
4,8,16,1,3,0.23000000000000007,2,3,47,60,54,56,0.4800000000000001,0.2800000000000001,0.7400000000000004,1.1900000000000008,4,1,2,5,5,1,2,5,5,0.5,29,7,Lc,0.096,0.2800000000000001,0.3700000000000002,0.23800000000000007
4,9,17,1,3,0.19000000000000003,2,3,43,45,96,2,0.5400000000000001,0.08,0.47000000000000025,0.01,3,1,1,1,4,1,1,1,5,0,19,7,Lc,0.13500000000000004,0.08,0.47000000000000025,0.01
4,9,18,1,2,0.18000000000000002,2,3,83,19,79,56,0.5200000000000001,0.3900000000000002,0.05,0.060000000000000005,4,2,1,1,5,3,1,1,3,0,16,7,Lc,0.10400000000000001,0.13,0.05,0.060000000000000005
4,10,19,1,6,0.26000000000000006,3,4,56,59,58,108,0.6000000000000002,0.13999999999999999,0.8100000000000005,0.01,4,1,2,1,5,1,2,1,4,0.5,26,7,Lc,0.12000000000000002,0.13999999999999999,0.40500000000000025,0.01
4,10,20,1,10,0.18000000000000002,2,3,62,20,90,86,1.3400000000000007,0.01,1.2200000000000009,0.3100000000000001,6,1,3,2,7,1,3,2,6,0,16,7,Lc,0.1914285714285715,0.01,0.4066666666666669,0.15500000000000005
4,11,21,1,10,0.23000000000000007,2,3,20,107,80,22,0.4400000000000001,0.5100000000000002,0.13999999999999999,0.05,3,1,1,1,4,1,1,1,6,0,17,7,Lc,0.11000000000000001,0.5100000000000002,0.13999999999999999,0.05
4,11,22,1,3,0.36000000000000015,3,6,118,44,43,112,0.9300000000000004,0.08,0.07,0.3100000000000001,4,1,1,1,7,1,1,1,5,0,14,7,Lc,0.1328571428571429,0.08,0.07,0.3100000000000001
4,12,23,1,3,0.26000000000000006,2,3,37,18,21,98,0.7500000000000003,0.08,0.09999999999999999,0.060000000000000005,4,1,1,1,5,1,1,1,5,0,19,7,Lc,0.15000000000000002,0.08,0.09999999999999999,0.060000000000000005
4,12,24,1,5,0.17,2,3,9,94,67,4,0.5700000000000002,2.4099999999999926,0.01,0.26000000000000006,4,4,1,2,5,5,1,2,6,0,19,7,Lc,0.11400000000000003,0.4820000000000002,0.01,0.13000000000000003
4,13,25,1,1,0.3300000000000001,2,5,58,90,29,14,1.0900000000000005,0.15,0.05,0.01,4,1,1,1,7,1,1,1,5,0,18,7,Lc,0.15571428571428578,0.15,0.05,0.01
4,13,26,1,4,0.34000000000000014,2,3,100,78,83,106,0.7900000000000004,0.19000000000000003,0.05,0.07,4,2,1,1,5,2,1,1,2,0,10,7,Lc,0.15800000000000003,0.095,0.05,0.07
4,14,27,1,7,0.4400000000000002,3,4,56,88,4,50,1.3100000000000007,0.04,0.02,0.02,5,1,1,1,7,1,1,1,3,0,17,7,Lc,0.1871428571428572,0.04,0.02,0.02
4,14,28,1,8,0.25000000000000006,2,3,13,109,62,70,13.62999999999976,0.21000000000000005,0.02,0.01,16,2,1,1,36,2,1,1,2,0,16,7,Lc,0.3786111111111113,0.10500000000000001,0.02,0.01
4,15,29,1,3,0.22000000000000006,2,3,51,39,56,103,0.6900000000000003,0.060000000000000005,0.16,0.060000000000000005,3,1,1,1,4,1,1,1,5,0,15,7,Lc,0.17250000000000007,0.060000000000000005,0.16,0.060000000000000005
4,15,30,1,2,0.17,2,3,84,68,118,114,0.4800000000000001,0.2700000000000001,2.7899999999999845,1.260000000000001,4,1,9,3,5,1,9,3,3,0,11,7,Lc,0.096,0.2700000000000001,0.31000000000000016,0.42000000000000026
4,16,31,1,2,0.6900000000000004,3,5,79,69,68,65,1.2800000000000007,0.09999999999999999,0.34000000000000014,0.01,6,1,3,1,8,1,3,1,3,0.5,27,7,Lc,0.16000000000000006,0.09999999999999999,0.11333333333333334,0.01
4,16,32,1,1,0.5300000000000002,2,3,36,103,87,5,0.9100000000000004,0.04,0.4000000000000002,0.04,4,1,2,1,5,1,2,1,5,0,16,7,Lc,0.18200000000000008,0.04,0.20000000000000004,0.04
4,17,33,1,1,0.17,2,3,66,29,25,28,1.1700000000000006,0.02,0.11999999999999998,1.1500000000000008,4,1,2,5,5,1,2,5,5,0.5,34,7,Lc,0.23400000000000012,0.02,0.05999999999999999,0.2300000000000001
4,17,34,1,10,4.659999999999945,4,12,13,104,96,49,7.599999999999927,0.01,0.01,0.01,11,1,1,1,22,1,1,1,6,0,15,7,Lc,0.3454545454545456,0.01,0.01,0.01
4,18,35,1,10,0.22000000000000006,2,3,23,86,19,38,0.4900000000000001,0.13999999999999999,0.11999999999999998,0.34000000000000014,4,1,1,3,5,1,1,4,6,0,20,7,Lc,0.098,0.13999999999999999,0.11999999999999998,0.08500000000000002
4,18,36,1,9,0.24000000000000007,2,3,63,99,104,8,0.8100000000000004,0.8700000000000006,0.01,0.01,5,3,1,1,7,3,1,1,4,0,14,7,Lc,0.11571428571428574,0.29000000000000015,0.01,0.01
4,19,37,1,1,0.19000000000000003,2,3,35,32,73,76,0.9800000000000005,0.10999999999999999,0.02,0.04,5,2,1,1,7,2,1,1,5,0,16,7,Lc,0.14000000000000004,0.055,0.02,0.04
4,19,38,1,3,0.20000000000000004,2,3,43,44,14,85,0.5500000000000002,0.08,0.18000000000000002,0.060000000000000005,3,1,1,1,4,1,1,1,5,0,19,7,Lc,0.13750000000000004,0.08,0.18000000000000002,0.060000000000000005
4,20,39,1,10,0.16,2,3,15,100,16,101,0.4800000000000001,0.9300000000000006,0.03,10.289999999999825,4,3,1,13,5,3,1,25,6,0,16,7,Lc,0.096,0.3100000000000001,0.03,0.41159999999999985
4,20,40,1,8,0.18000000000000002,1,2,115,120,66,92,0.5500000000000002,0.10999999999999999,1.8800000000000014,0.060000000000000005,2,1,3,1,3,1,3,1,2,0,11,7,Lc,0.18333333333333338,0.10999999999999999,0.626666666666667,0.060000000000000005
4,21,41,1,2,0.46000000000000024,2,3,77,30,60,20,0.7400000000000003,0.8900000000000006,1.300000000000001,0.01,4,4,2,1,5,4,2,1,3,0,18,7,Lc,0.14800000000000005,0.22250000000000011,0.6500000000000005,0.01
4,21,42,1,8,0.23000000000000007,2,3,118,116,38,95,0.6600000000000003,0.09,0.15,0.09,4,1,1,2,5,1,1,2,2,0,12,7,Lc,0.132,0.09,0.15,0.045000000000000005
4,22,43,1,1,0.47000000000000025,2,4,34,13,18,58,0.8000000000000004,1.2000000000000008,0.02,0.03,4,4,1,1,6,5,1,1,5,0,21,7,Lc,0.13333333333333336,0.24000000000000007,0.02,0.03
4,22,44,1,9,0.2900000000000001,2,4,71,70,82,72,0.6400000000000002,0.09999999999999999,0.6300000000000003,0.02,3,1,2,1,5,1,2,1,4,0.5,27,7,Lc,0.12800000000000003,0.09999999999999999,0.31500000000000017,0.02
5,1,1,0,6,0.12999999999999998,2,2,2,81,59,53,2.379999999999996,0.01,0.01,0.01,5,1,1,1,5,1,1,1,4,0,17,7,Lc,0.4760000000000003,0.01,0.01,0.01
5,1,2,0,8,0.24000000000000007,2,3,117,22,20,85,0.6500000000000002,0.3300000000000001,0.07,0.16,4,2,1,1,5,2,1,1,2,0,17,7,Lc,0.13,0.165,0.07,0.16
5,2,3,0,10,0.25000000000000006,2,3,14,13,15,113,0.6000000000000002,3.8599999999999617,0.01,0.01,4,9,1,1,5,16,1,1,6,0.5,38,7,Lc,0.12000000000000001,0.24125000000000008,0.01,0.01
5,2,4,0,6,0.3100000000000001,4,7,97,60,39,11,1.0300000000000005,0.04,0.25000000000000006,0.01,5,1,2,1,8,1,2,1,4,0,17,7,Lc,0.12875000000000006,0.04,0.12500000000000003,0.01
5,3,5,0,7,0.2800000000000001,3,5,44,43,102,22,0.9500000000000004,2.4499999999999917,0.01,0.02,5,2,1,2,7,3,1,2,3,0,18,7,Lc,0.13571428571428576,0.8166666666666672,0.01,0.01
5,3,6,0,2,0.3100000000000001,2,5,76,52,114,11,0.7100000000000003,0.09,0.20000000000000004,0.12999999999999998,4,1,1,2,7,1,1,2,3,0,15,7,Lc,0.10142857142857144,0.09,0.20000000000000004,0.065
5,4,7,0,6,0.3200000000000001,3,5,30,3,82,110,1.1100000000000005,0.08,0.05,0.02,6,1,1,1,13,1,1,1,4,0,16,7,Lc,0.08538461538461539,0.08,0.05,0.02
5,4,8,0,9,0.20000000000000004,2,4,72,100,97,17,0.4700000000000001,0.7000000000000004,0.01,0.09,4,2,1,2,7,2,1,2,4,0,14,7,Lc,0.06714285714285714,0.3500000000000002,0.01,0.045
5,5,9,0,10,0.34000000000000014,2,4,69,65,16,32,0.7800000000000004,0.5400000000000003,0.2800000000000001,0.05,3,4,2,1,5,4,2,1,6,0,19,7,Lc,0.15600000000000003,0.13500000000000004,0.14000000000000004,0.05
5,5,10,0,2,0.23000000000000007,2,4,76,100,52,104,0.8600000000000004,0.4000000000000002,0.37000000000000016,0.49000000000000027,4,3,1,2,6,3,1,2,3,0,11,7,Lc,0.1433333333333334,0.13333333333333336,0.37000000000000016,0.24500000000000013
5,6,11,0,5,0.13999999999999999,2,3,7,5,32,104,0.38000000000000006,0.09999999999999999,0.13999999999999999,0.17,4,1,1,2,5,1,1,2,6,0,19,7,Lc,0.076,0.09999999999999999,0.13999999999999999,0.08499999999999999
5,6,12,0,3,0.6000000000000003,4,6,85,44,52,38,1.1900000000000006,0.10999999999999999,0.03,0.19000000000000003,5,1,1,3,7,1,1,4,5,0,17,7,Lc,0.17000000000000007,0.10999999999999999,0.03,0.0475
5,7,13,1,10,1.340000000000001,4,7,34,18,22,15,1.350000000000001,0.3300000000000001,1.6000000000000012,0.6100000000000003,5,1,4,2,8,1,4,2,6,0.5,41,7,Lc,0.1687500000000001,0.3300000000000001,0.40000000000000024,0.30500000000000016
5,7,14,1,7,1.8800000000000014,6,13,92,95,91,9,2.4400000000000017,0.05,0.01,0.22000000000000006,8,1,1,2,17,1,1,2,3,0.5,24,7,Lc,0.14352941176470593,0.05,0.01,0.11000000000000003
5,8,15,1,7,0.23000000000000007,2,3,53,90,96,120,0.6700000000000003,0.13999999999999999,0.2800000000000001,0.01,3,1,2,1,4,1,2,1,3,0,12,7,Lc,0.16750000000000007,0.13999999999999999,0.14000000000000004,0.01
5,8,16,1,2,0.36000000000000015,2,5,77,29,28,97,0.8700000000000003,0.15,0.09999999999999999,0.16,4,1,1,1,9,1,1,1,3,0,15,7,Lc,0.09666666666666668,0.15,0.09999999999999999,0.16
5,9,17,1,9,0.23000000000000007,2,4,107,71,68,93,0.7500000000000003,0.04,0.060000000000000005,0.5700000000000003,4,1,1,3,6,1,1,3,4,0,13,7,Lc,0.12500000000000003,0.04,0.060000000000000005,0.19000000000000006
5,9,18,1,8,0.26000000000000006,2,4,120,111,109,15,0.5100000000000001,0.11999999999999998,0.19000000000000003,0.09,3,1,2,1,5,1,2,1,2,0.5,18,7,Lc,0.10200000000000001,0.11999999999999998,0.095,0.09
5,10,19,1,1,0.37000000000000016,3,5,120,61,21,17,0.9600000000000004,0.11999999999999998,0.6700000000000004,0.02,4,1,3,1,6,1,4,1,5,0,18,7,Lc,0.16000000000000006,0.11999999999999998,0.16750000000000007,0.02
5,10,20,1,3,0.17,2,3,75,12,101,105,0.6700000000000003,0.4100000000000002,0.24000000000000007,0.9400000000000006,3,3,1,2,4,3,1,2,5,0,13,7,Lc,0.16750000000000007,0.13666666666666671,0.24000000000000007,0.4700000000000003
5,11,21,1,5,0.12999999999999998,2,4,8,7,66,63,0.6400000000000002,0.09,0.23000000000000007,2.9799999999999804,5,2,2,5,8,2,2,5,6,0,20,7,Lc,0.08000000000000002,0.045,0.11500000000000003,0.5960000000000004
5,11,22,1,8,0.2700000000000001,2,3,110,117,111,29,1.4100000000000008,0.01,0.04,0.03,5,1,2,1,7,1,2,1,2,0.5,17,7,Lc,0.2014285714285715,0.01,0.02,0.03
5,12,23,1,2,0.21000000000000005,2,3,73,75,29,64,0.5400000000000001,0.08,0.21000000000000005,1.9600000000000015,3,1,2,3,4,1,2,3,3,0,15,7,Lc,0.13500000000000004,0.08,0.10499999999999998,0.6533333333333338
5,12,24,1,7,0.3000000000000001,2,4,91,56,103,106,0.6900000000000003,0.9800000000000006,0.09,0.10999999999999999,4,3,1,2,6,3,2,2,3,0,11,7,Lc,0.115,0.3266666666666668,0.045,0.05499999999999999
5,13,25,1,10,0.6100000000000003,4,6,19,93,17,104,0.9600000000000004,0.15,0.10999999999999999,0.5800000000000003,5,1,1,2,7,1,1,2,6,0,17,7,Lc,0.13714285714285718,0.15,0.10999999999999999,0.29000000000000015
5,13,26,1,3,0.2800000000000001,3,4,49,47,48,81,0.5800000000000002,0.09,1.0900000000000007,0.01,4,1,3,1,5,1,3,1,5,0,17,7,Lc,0.11600000000000002,0.09,0.3633333333333335,0.01
5,14,27,1,3,0.25000000000000006,2,3,43,3,74,69,0.5900000000000002,0.38000000000000017,0.07,0.5400000000000003,4,2,1,1,5,2,1,2,5,0,18,7,Lc,0.118,0.19000000000000003,0.07,0.2700000000000001
5,14,28,1,8,0.09,2,2,19,91,23,57,30.050000000001884,0.01,0.01,0.01,20,1,1,1,97,1,1,1,2,0,19,7,Lc,0.3097938144329898,0.01,0.01,0.01
5,15,29,1,8,0.22000000000000006,1,2,117,69,109,114,0.6800000000000003,0.23000000000000007,0.05,0.05,3,2,1,1,6,2,1,1,2,0.5,16,7,Lc,0.11333333333333334,0.11499999999999999,0.05,0.05
5,15,30,1,5,0.18000000000000002,2,4,95,12,49,36,0.6200000000000002,0.07,0.09999999999999999,0.11999999999999998,4,1,1,2,7,1,1,3,6,0,18,7,Lc,0.08857142857142859,0.07,0.09999999999999999,0.04
5,16,31,1,9,0.3000000000000001,2,3,8,97,68,66,0.5600000000000002,0.4200000000000002,0.04,0.07,3,2,2,1,4,2,2,1,4,0,16,7,Lc,0.14,0.21000000000000005,0.02,0.07
5,16,32,1,8,0.23000000000000007,2,3,109,59,111,49,0.5000000000000001,0.45000000000000023,0.02,0.04,4,3,1,1,5,3,1,1,2,0,12,7,Lc,0.1,0.15000000000000002,0.02,0.04
5,17,33,1,10,0.19000000000000003,2,3,18,111,35,19,0.8300000000000004,1.2300000000000009,0.9300000000000006,0.01,4,4,3,1,5,4,4,1,6,0,19,7,Lc,0.16600000000000006,0.30750000000000016,0.2325000000000001,0.01
5,17,34,1,5,0.12999999999999998,3,3,3,9,104,99,0.27999999999999997,0.07,0.3300000000000001,0.060000000000000005,4,1,2,1,4,1,2,1,6,0,16,7,Lc,0.06999999999999999,0.07,0.165,0.060000000000000005
5,18,35,1,3,0.19000000000000003,2,3,104,12,5,48,1.3200000000000007,0.01,0.02,0.01,4,1,1,1,5,1,1,1,5,0,19,7,Lc,0.2640000000000002,0.01,0.02,0.01
5,18,36,1,6,0.21000000000000005,2,4,50,52,58,85,0.4400000000000001,0.15,0.13999999999999999,0.15,3,1,1,2,5,1,1,2,4,0.5,27,7,Lc,0.08800000000000001,0.15,0.13999999999999999,0.075
5,19,37,1,10,0.34000000000000014,3,5,22,116,43,114,0.7700000000000004,0.5300000000000002,0.060000000000000005,0.18000000000000002,5,4,1,2,7,4,1,2,6,0,15,7,Lc,0.11000000000000003,0.13250000000000003,0.060000000000000005,0.09000000000000001
5,19,38,1,4,0.24000000000000007,2,4,102,106,31,3,0.6100000000000002,0.23000000000000007,0.05,0.01,3,3,1,1,5,4,1,1,2,0,15,7,Lc,0.12200000000000003,0.057499999999999996,0.05,0.01
5,20,39,1,8,0.34000000000000014,4,6,24,22,16,69,0.9900000000000004,0.5400000000000003,0.6700000000000004,0.2900000000000001,6,4,3,3,8,5,3,4,2,0.5,40,7,Lc,0.12375000000000004,0.108,0.2233333333333334,0.07250000000000001
5,20,40,1,6,0.21000000000000005,2,3,53,30,86,90,0.5600000000000002,0.36000000000000015,0.09,0.3200000000000001,4,2,1,2,5,2,1,2,4,0,15,7,Lc,0.112,0.18000000000000002,0.09,0.16000000000000006
5,21,41,1,8,0.19000000000000003,2,3,114,33,116,32,0.5000000000000001,0.4000000000000002,0.02,0.19000000000000003,5,3,1,2,7,4,1,2,2,0,14,7,Lc,0.07142857142857142,0.10000000000000002,0.02,0.09499999999999999
5,21,42,1,9,0.47000000000000025,2,4,61,72,19,41,0.7200000000000003,0.19000000000000003,0.09999999999999999,0.5300000000000002,5,1,1,2,8,1,1,2,4,0,19,7,Lc,0.09000000000000001,0.19000000000000003,0.09999999999999999,0.2650000000000001
5,22,43,1,3,0.16,4,4,20,95,115,43,3.349999999999976,0.01,0.01,0.03,8,1,1,1,12,1,1,1,5,0,16,7,Lc,0.27916666666666684,0.01,0.01,0.03
5,22,44,1,2,0.22000000000000006,2,7,3,10,102,26,1.0900000000000005,0.02,0.08,0.17,5,1,1,1,11,1,1,1,3,0,19,7,Lc,0.09909090909090912,0.02,0.08,0.17
6,1,1,0,9,0.23000000000000007,2,3,64,98,34,7,0.5200000000000001,0.2700000000000001,0.16,0.01,4,2,2,1,7,2,4,1,4,0,17,7,Lc,0.07428571428571429,0.135,0.04,0.01
6,1,2,0,10,0.2900000000000001,2,4,19,114,57,42,0.7300000000000003,0.22000000000000006,0.09,0.09999999999999999,4,2,1,1,6,3,1,1,6,0,17,7,Lc,0.12166666666666669,0.07333333333333333,0.09,0.09999999999999999
6,2,3,0,7,0.20000000000000004,2,3,85,94,1,6,0.4100000000000001,0.15,0.15,0.12999999999999998,4,1,1,2,5,1,1,2,3,0,18,7,Lc,0.082,0.15,0.15,0.065
6,2,4,0,4,0.23000000000000007,2,4,104,108,107,38,0.47000000000000014,0.20000000000000004,0.22000000000000006,0.060000000000000005,4,1,2,1,6,1,4,1,2,0.5,17,7,Lc,0.07833333333333334,0.20000000000000004,0.055,0.060000000000000005
6,3,5,0,3,0.23000000000000007,2,3,8,44,61,66,0.7700000000000004,0.04,0.16,0.060000000000000005,4,1,1,2,6,1,1,2,5,0,19,7,Lc,0.12833333333333335,0.04,0.16,0.030000000000000002
6,3,6,0,1,0.23000000000000007,2,4,98,34,17,86,0.6900000000000003,0.09,0.4100000000000002,1.290000000000001,3,1,2,3,5,1,3,4,5,0,16,7,Lc,0.13800000000000004,0.09,0.13666666666666671,0.3225000000000001
6,4,7,0,1,0.3000000000000001,2,5,33,30,107,68,0.6700000000000003,0.03,0.21000000000000005,0.09,4,1,1,1,9,1,1,1,5,0,16,7,Lc,0.07444444444444445,0.03,0.21000000000000005,0.09
6,4,8,0,2,0.22000000000000006,2,3,116,73,11,59,0.6800000000000003,0.04,0.09,0.10999999999999999,3,1,1,1,4,1,1,1,3,0,15,7,Lc,0.17000000000000007,0.04,0.09,0.10999999999999999
6,5,9,0,4,0.3100000000000001,2,3,100,19,57,55,0.7900000000000004,0.04,0.3200000000000001,0.03,4,1,2,2,5,1,2,2,2,0,16,7,Lc,0.15800000000000003,0.04,0.16000000000000003,0.015
6,5,10,0,9,0.21000000000000005,2,3,67,26,75,25,0.4500000000000001,0.3300000000000001,0.21000000000000005,0.12999999999999998,4,1,1,1,5,1,1,1,4,0,17,7,Lc,0.09000000000000001,0.3300000000000001,0.21000000000000005,0.12999999999999998
6,6,11,0,10,0.21000000000000005,2,3,17,16,15,19,0.5200000000000001,0.10999999999999999,13.059999999999766,0.01,4,1,15,1,5,1,36,1,6,1,72,7,Lc,0.104,0.10999999999999999,0.362777777777778,0.01
6,6,12,0,5,0.23000000000000007,2,3,9,119,35,10,0.5000000000000001,0.3000000000000001,0.6400000000000003,0.08,4,1,4,2,7,1,4,2,6,0,19,7,Lc,0.07142857142857142,0.3000000000000001,0.16000000000000006,0.04
6,7,13,1,9,0.17,2,3,69,70,41,23,0.5300000000000001,0.01,0.3100000000000001,0.03,4,1,2,1,6,1,2,1,4,0,19,7,Lc,0.08833333333333335,0.01,0.15500000000000005,0.03
6,7,14,1,6,0.24000000000000007,2,3,52,57,82,81,0.46000000000000013,0.25000000000000006,0.4400000000000002,0.03,4,2,2,1,5,2,3,1,4,0,14,7,Lc,0.092,0.125,0.1466666666666667,0.03
6,8,15,1,7,0.19000000000000003,2,4,71,93,117,61,0.6100000000000002,0.04,0.20000000000000004,0.060000000000000005,3,1,1,1,5,1,1,1,3,0,13,7,Lc,0.12200000000000004,0.04,0.20000000000000004,0.060000000000000005
6,8,16,1,5,0.24000000000000007,2,3,5,9,11,31,0.6100000000000002,0.12999999999999998,0.23000000000000007,0.03,3,1,1,1,4,1,1,1,6,0.5,41,7,Lc,0.15250000000000005,0.12999999999999998,0.23000000000000007,0.03
6,9,17,1,8,0.20000000000000004,2,3,16,111,42,24,0.8900000000000005,0.03,0.01,0.03,4,2,1,1,5,2,1,1,2,0,19,7,Lc,0.17800000000000007,0.015,0.01,0.03
6,9,18,1,9,0.22000000000000006,2,3,64,106,62,97,0.5800000000000002,0.2700000000000001,0.7600000000000005,0.01,4,1,2,1,5,1,2,1,4,0,12,7,Lc,0.116,0.2700000000000001,0.3800000000000002,0.01
6,10,19,1,4,0.22000000000000006,2,4,63,103,74,65,0.6400000000000002,0.08,0.21000000000000005,0.10999999999999999,3,1,2,2,5,1,2,2,2,0,13,7,Lc,0.12800000000000006,0.08,0.10499999999999998,0.05500000000000001
6,10,20,1,7,0.19000000000000003,2,3,119,93,4,1,0.5100000000000001,0.07,0.2700000000000001,0.5800000000000003,3,1,1,2,4,1,1,2,3,0,17,7,Lc,0.12750000000000003,0.07,0.2700000000000001,0.29000000000000015
6,11,21,1,10,0.19000000000000003,2,3,75,23,71,27,0.6700000000000003,0.02,0.10999999999999999,0.19000000000000003,4,1,1,2,6,1,1,2,6,0,18,7,Lc,0.11166666666666668,0.02,0.10999999999999999,0.095
6,11,22,1,4,0.2700000000000001,2,5,103,52,53,99,0.5000000000000001,0.5400000000000003,0.03,0.12999999999999998,4,3,1,2,7,3,1,2,2,0,12,7,Lc,0.07142857142857144,0.18000000000000008,0.03,0.06499999999999999
6,12,23,1,8,0.22000000000000006,2,3,118,110,92,120,0.4400000000000001,0.22000000000000006,0.13999999999999999,0.05,4,2,2,1,5,2,2,1,2,0.5,15,7,Lc,0.08800000000000001,0.11000000000000001,0.06999999999999999,0.05
6,12,24,1,4,0.10999999999999999,2,2,16,35,18,78,3.149999999999979,0.02,0.02,0.01,11,1,1,1,13,1,1,1,2,0,20,7,Lc,0.2423076923076924,0.02,0.02,0.01
6,13,25,1,3,0.3000000000000001,4,5,46,39,117,5,1.4400000000000008,0.12999999999999998,0.05,0.10999999999999999,7,2,2,1,8,2,2,1,5,0,18,7,Lc,0.18000000000000008,0.06499999999999999,0.025,0.10999999999999999
6,13,26,1,9,0.21000000000000005,2,3,70,69,97,66,0.4700000000000001,0.46000000000000024,0.04,0.04,4,5,1,2,5,5,1,2,4,0.5,26,7,Lc,0.094,0.09200000000000001,0.04,0.02
6,14,27,1,3,0.18000000000000002,2,3,43,82,113,59,0.4600000000000001,0.19000000000000003,0.45000000000000023,0.46000000000000024,4,1,1,2,5,1,1,2,5,0,14,7,Lc,0.092,0.19000000000000003,0.45000000000000023,0.23000000000000012
6,14,28,1,1,0.18000000000000002,2,3,31,23,28,101,0.39000000000000007,0.17,0.09,0.7200000000000004,4,1,1,2,5,1,1,2,5,0,18,7,Lc,0.078,0.17,0.09,0.36000000000000015
6,15,29,1,9,1.2500000000000009,7,9,65,4,25,67,1.670000000000001,0.060000000000000005,0.21000000000000005,0.15,10,1,2,2,13,1,2,2,4,0,19,7,Lc,0.12846153846153852,0.060000000000000005,0.10500000000000002,0.075
6,15,30,1,6,0.2700000000000001,2,3,58,51,46,74,0.6700000000000003,0.060000000000000005,0.3200000000000001,0.060000000000000005,3,1,2,1,4,1,2,1,4,0,16,7,Lc,0.16750000000000004,0.060000000000000005,0.16000000000000003,0.060000000000000005
6,16,31,1,10,0.19000000000000003,2,3,15,14,42,110,0.5300000000000001,1.9900000000000015,0.01,0.01,4,5,1,1,5,6,1,1,6,0,19,7,Lc,0.10600000000000001,0.33166666666666683,0.01,0.01
6,16,32,1,2,0.26000000000000006,2,3,78,64,4,31,0.43000000000000005,0.5000000000000002,0.02,0.09,3,1,1,1,4,1,1,1,3,0,18,7,Lc,0.1075,0.5000000000000002,0.02,0.09
6,17,33,1,10,0.15,2,3,22,115,28,17,0.5100000000000001,0.12999999999999998,0.5700000000000003,2.7399999999999856,4,1,2,8,5,1,2,8,6,0,19,7,Lc,0.10200000000000002,0.12999999999999998,0.28500000000000014,0.3425000000000002
6,17,34,1,4,0.23000000000000007,3,5,105,63,39,65,0.7000000000000003,0.16,0.09999999999999999,0.07,5,2,1,1,7,3,1,1,2,0,15,7,Lc,0.10000000000000002,0.05333333333333334,0.09999999999999999,0.07
6,18,35,1,4,0.37000000000000016,6,7,17,106,101,23,0.6600000000000003,0.16,0.20000000000000004,0.03,7,1,2,1,8,1,2,1,2,0,16,7,Lc,0.08250000000000002,0.16,0.09999999999999999,0.03
6,18,36,1,7,0.18000000000000002,2,4,91,9,34,119,0.4900000000000001,0.23000000000000007,0.09,0.5000000000000002,4,2,1,2,6,2,1,2,3,0,16,7,Lc,0.08166666666666667,0.11499999999999999,0.09,0.25000000000000006
6,19,37,1,7,0.18000000000000002,2,3,85,92,100,108,0.5400000000000001,0.09999999999999999,0.13999999999999999,0.2800000000000001,4,1,1,2,5,1,1,2,3,0,10,7,Lc,0.10800000000000001,0.09999999999999999,0.13999999999999999,0.14000000000000004
6,19,38,1,8,0.23000000000000007,2,3,115,6,113,4,0.6200000000000002,0.09,0.09,0.26000000000000006,4,1,1,2,5,1,1,2,2,0,16,7,Lc,0.12400000000000001,0.09,0.09,0.13000000000000003
6,20,39,1,8,0.09999999999999999,2,2,2,59,5,114,12.879999999999772,0.01,0.01,0.02,19,1,1,1,42,1,1,1,2,0,18,7,Lc,0.3066666666666668,0.01,0.01,0.02
6,20,40,1,3,0.26000000000000006,3,6,99,84,21,100,0.6300000000000002,1.340000000000001,0.01,0.11999999999999998,4,4,1,2,7,5,1,2,5,0,13,7,Lc,0.09000000000000002,0.2680000000000001,0.01,0.060000000000000005
6,21,41,1,9,0.19000000000000003,2,3,22,71,75,17,0.5500000000000002,0.060000000000000005,0.7800000000000005,0.01,3,1,2,1,4,1,2,1,4,0,19,7,Lc,0.13750000000000004,0.060000000000000005,0.39000000000000024,0.01
6,21,42,1,1,0.2800000000000001,2,3,30,27,32,54,0.5900000000000002,0.060000000000000005,0.8000000000000005,0.03,4,1,2,1,5,1,2,1,5,0.5,34,7,Lc,0.11800000000000002,0.060000000000000005,0.40000000000000024,0.03
6,22,43,1,7,0.17,2,3,93,95,61,102,0.4100000000000001,0.09999999999999999,0.2800000000000001,0.09,3,1,2,1,4,1,3,1,3,0,12,7,Lc,0.10250000000000002,0.09999999999999999,0.09333333333333332,0.09
6,22,44,1,6,30.220000000001924,16,107,46,114,9,75,33.2300000000019,0.01,1.6800000000000013,0.17,20,1,5,3,112,1,6,3,4,0,16,7,Lc,0.2966964285714287,0.01,0.2800000000000001,0.05666666666666667
7,1,1,0,5,0.3000000000000001,2,3,9,30,29,72,0.6300000000000002,0.2800000000000001,2.149999999999998,0.4200000000000002,4,1,6,2,5,1,8,2,6,0,20,7,Lc,0.126,0.2800000000000001,0.2687500000000001,0.21000000000000005
7,1,2,0,4,0.2700000000000001,2,3,106,105,14,42,0.6100000000000002,0.20000000000000004,0.17,0.10999999999999999,4,1,1,1,5,1,1,1,2,0,15,7,Lc,0.12200000000000001,0.20000000000000004,0.17,0.10999999999999999
7,2,3,0,10,0.3100000000000001,2,4,17,21,23,24,0.9000000000000004,0.18000000000000002,3.0599999999999787,0.01,4,2,8,1,6,2,15,1,6,1,72,7,Lc,0.15000000000000005,0.09,0.20400000000000007,0.01
7,2,4,0,5,0.2700000000000001,2,3,11,5,1,10,0.7000000000000003,0.3000000000000001,0.05,6.439999999999907,4,2,1,14,7,3,1,21,6,1,72,7,Lc,0.09999999999999999,0.10000000000000002,0.05,0.3066666666666668
7,3,5,0,8,0.26000000000000006,2,3,72,119,112,115,0.7300000000000003,0.03,0.09999999999999999,0.09,4,1,1,2,6,1,1,2,2,0.5,16,7,Lc,0.12166666666666667,0.03,0.09999999999999999,0.045000000000000005
7,3,6,0,4,0.3000000000000001,2,3,100,10,102,56,0.5300000000000001,0.9100000000000006,0.01,0.02,3,3,1,1,4,3,1,1,2,0,14,7,Lc,0.1325,0.3033333333333335,0.01,0.02
7,4,7,0,1,0.24000000000000007,2,4,60,55,107,53,1.4600000000000009,0.01,0.02,0.01,4,1,1,1,6,1,1,1,5,0.5,26,7,Lc,0.24333333333333348,0.01,0.02,0.01
7,4,8,0,3,0.23000000000000007,2,4,44,119,39,24,0.46000000000000013,0.45000000000000023,0.07,0.45000000000000023,4,2,2,2,6,2,2,2,5,0,18,7,Lc,0.07666666666666667,0.22500000000000003,0.035,0.2250000000000001
7,5,9,0,1,0.25000000000000006,2,5,33,28,82,9,0.6000000000000002,0.09999999999999999,0.5000000000000002,0.01,3,1,1,1,6,1,1,1,5,0,19,7,Lc,0.10000000000000002,0.09999999999999999,0.5000000000000002,0.01
7,5,10,0,3,0.25000000000000006,2,3,41,45,44,103,0.7600000000000002,0.09999999999999999,0.05,0.7500000000000004,4,2,1,3,7,3,1,4,5,0.5,32,7,Lc,0.1085714285714286,0.03333333333333333,0.05,0.18750000000000006
7,6,11,0,5,0.23000000000000007,2,3,8,12,1,2,0.5100000000000001,0.2700000000000001,0.49000000000000027,0.8200000000000005,4,2,3,4,5,3,3,4,6,1,72,7,Lc,0.10200000000000001,0.09000000000000001,0.16333333333333339,0.20500000000000007
7,6,12,0,10,0.25000000000000006,2,3,20,19,24,57,0.5800000000000002,0.22000000000000006,0.08,0.2800000000000001,4,2,1,2,5,3,1,2,6,0.5,40,7,Lc,0.116,0.07333333333333333,0.08,0.14000000000000004
7,7,13,1,3,0.23000000000000007,2,3,42,57,38,46,0.8500000000000004,0.7600000000000005,0.01,0.01,5,4,1,1,7,4,1,1,5,0.5,34,7,Lc,0.12142857142857144,0.19000000000000006,0.01,0.01
7,7,14,1,4,0.21000000000000005,2,5,65,102,30,6,0.9800000000000005,0.01,0.05,0.10999999999999999,4,1,1,1,8,1,1,1,2,0,17,7,Lc,0.12250000000000004,0.01,0.05,0.10999999999999999
7,8,15,1,9,0.2700000000000001,2,3,61,69,62,77,0.6600000000000003,0.09,0.23000000000000007,0.7400000000000004,3,1,2,5,4,1,2,5,4,0.5,27,7,Lc,0.16500000000000004,0.09,0.11499999999999999,0.14800000000000002
7,8,16,1,6,0.24000000000000007,2,5,59,58,7,43,0.5900000000000002,0.09,0.8500000000000005,0.01,3,1,2,1,6,1,2,1,4,0,19,7,Lc,0.09833333333333336,0.09,0.42500000000000027,0.01
7,9,17,1,3,0.36000000000000015,6,8,39,47,46,15,0.7900000000000004,0.13999999999999999,0.08,0.5200000000000002,8,1,1,4,10,1,1,4,5,0.5,36,7,Lc,0.07900000000000001,0.13999999999999999,0.08,0.13000000000000003
7,9,18,1,1,0.18000000000000002,2,5,31,52,4,1,0.43000000000000005,0.4300000000000002,0.09,0.01,4,2,2,1,7,4,2,1,5,0,21,7,Lc,0.06142857142857143,0.10750000000000001,0.045000000000000005,0.01
7,10,19,1,8,0.26000000000000006,2,3,110,111,85,115,0.6800000000000003,0.060000000000000005,0.4400000000000002,0.02,4,1,2,1,5,1,2,1,2,0.5,15,7,Lc,0.13600000000000004,0.060000000000000005,0.2200000000000001,0.02
7,10,20,1,4,0.08,2,2,16,81,62,35,7.079999999999895,0.01,1.0100000000000007,0.01,15,1,2,1,23,1,2,1,2,0,18,7,Lc,0.30782608695652186,0.01,0.5050000000000003,0.01
7,11,21,1,9,0.9300000000000006,3,4,70,48,83,37,1.3200000000000007,0.09,0.34000000000000014,0.01,5,1,2,1,6,1,3,1,4,0,17,7,Lc,0.2200000000000001,0.09,0.11333333333333336,0.01
7,11,22,1,7,0.10999999999999999,2,2,2,50,96,88,19.50000000000023,0.01,0.01,0.01,20,1,1,1,56,1,1,1,3,0,16,7,Lc,0.34821428571428586,0.01,0.01,0.01
7,12,23,1,2,0.2800000000000001,2,4,74,83,61,118,0.7400000000000003,0.02,0.17,0.38000000000000017,4,1,1,3,7,1,2,3,3,0,12,7,Lc,0.10571428571428572,0.02,0.08499999999999999,0.12666666666666668
7,12,24,1,10,0.19000000000000003,2,3,17,21,15,49,0.44000000000000006,0.10999999999999999,11.269999999999804,0.01,3,1,14,1,4,1,27,1,6,0.5,40,7,Lc,0.11000000000000001,0.10999999999999999,0.4174074074074076,0.01
7,13,25,1,6,0.3100000000000001,2,3,99,57,93,23,0.7100000000000003,0.07,0.4100000000000002,0.18000000000000002,3,1,2,2,4,1,2,2,4,0,15,7,Lc,0.17750000000000005,0.07,0.20500000000000004,0.09
7,13,26,1,9,0.47000000000000025,3,5,64,118,73,79,0.8700000000000004,0.7600000000000005,0.03,0.01,5,3,1,1,7,3,1,1,4,0,12,7,Lc,0.12428571428571432,0.25333333333333347,0.03,0.01
7,14,27,1,1,0.20000000000000004,2,3,30,33,17,24,0.4300000000000001,0.24000000000000007,0.09,0.09,4,2,1,1,5,2,1,1,5,0,22,7,Lc,0.08600000000000001,0.12,0.09,0.09
7,14,28,1,8,0.2900000000000001,7,7,113,115,117,47,0.8100000000000003,0.11999999999999998,1.8600000000000014,9.13999999999985,8,1,7,9,8,1,11,25,2,0.5,17,7,Lc,0.10125000000000003,0.11999999999999998,0.16909090909090913,0.36560000000000015
7,15,29,1,5,0.17,2,5,2,1,101,48,0.6800000000000003,2.4499999999999917,1.2300000000000009,0.25000000000000006,4,5,3,2,9,5,3,2,6,0,19,7,Lc,0.07555555555555556,0.49000000000000027,0.41000000000000025,0.12499999999999999
7,15,30,1,1,0.09,3,3,13,26,112,84,11.689999999999797,0.01,0.01,0.02,18,1,1,1,32,1,1,1,5,0,16,7,Lc,0.3653125000000002,0.01,0.01,0.02
7,16,31,1,4,0.16,1,2,77,98,99,102,0.6100000000000002,0.05,0.07,0.05,3,1,1,1,5,1,1,1,2,0.5,15,7,Lc,0.12200000000000001,0.05,0.07,0.05
7,16,32,1,7,0.20000000000000004,2,3,86,71,93,118,0.5900000000000002,1.0300000000000007,0.01,0.17,4,5,1,2,5,5,1,2,3,0,12,7,Lc,0.11800000000000001,0.20600000000000007,0.01,0.08499999999999999
7,17,33,1,10,0.19000000000000003,2,3,20,94,23,15,0.35000000000000003,0.35000000000000014,0.05,0.7800000000000005,4,1,1,3,5,1,1,3,6,0.5,39,7,Lc,0.06999999999999999,0.35000000000000014,0.05,0.2600000000000001
7,17,34,1,5,0.24000000000000007,3,4,3,1,9,33,0.48000000000000015,7.529999999999884,0.22000000000000006,0.01,5,13,2,1,6,19,2,1,6,0.5,41,7,Lc,0.08,0.3963157894736844,0.11000000000000003,0.01
7,18,35,1,3,0.12999999999999998,2,3,44,99,79,48,0.5600000000000002,0.12999999999999998,0.25000000000000006,0.01,4,1,3,1,5,1,3,1,5,0,15,7,Lc,0.11200000000000003,0.12999999999999998,0.08333333333333333,0.01
7,18,36,1,10,0.9900000000000007,3,5,119,63,26,23,2.2000000000000015,0.12999999999999998,2.819999999999984,1.5600000000000012,6,2,8,6,9,2,11,7,6,0,17,7,Lc,0.24444444444444455,0.06499999999999999,0.25636363636363646,0.22285714285714295
7,19,37,1,8,0.26000000000000006,3,4,112,64,79,74,0.6700000000000003,0.060000000000000005,0.20000000000000004,0.04,5,1,2,1,6,1,2,1,2,0,12,7,Lc,0.11166666666666669,0.060000000000000005,0.09999999999999999,0.04
7,19,38,1,6,1.1800000000000008,5,6,53,106,25,92,1.520000000000001,0.11999999999999998,0.36000000000000015,0.15,6,1,2,1,7,1,2,1,4,0,14,7,Lc,0.21714285714285725,0.11999999999999998,0.18000000000000005,0.15
7,20,39,1,6,0.26000000000000006,2,6,55,60,56,20,0.5700000000000002,0.25000000000000006,0.16,0.01,4,2,2,1,8,3,2,1,4,0.5,30,7,Lc,0.07125000000000001,0.08333333333333334,0.07999999999999999,0.01
7,20,40,1,7,0.34000000000000014,3,4,91,114,72,93,0.7300000000000003,0.18000000000000002,0.15,0.05,5,1,1,1,6,1,1,1,3,0,12,7,Lc,0.12166666666666667,0.18000000000000002,0.15,0.05
7,21,41,1,5,0.26000000000000006,2,5,11,71,72,41,0.8100000000000003,0.6700000000000004,1.1600000000000008,0.01,4,4,3,1,8,4,4,1,6,0,19,7,Lc,0.10125000000000002,0.16750000000000004,0.2900000000000001,0.01
7,21,42,1,8,0.25000000000000006,2,3,119,113,89,27,0.6300000000000002,0.11999999999999998,0.6100000000000003,0.01,3,1,4,1,4,1,4,1,2,0,12,7,Lc,0.15750000000000003,0.11999999999999998,0.1525,0.01
7,22,43,1,3,0.48000000000000026,4,6,45,17,14,69,0.7200000000000003,0.5600000000000003,5.209999999999933,0.01,6,3,9,1,8,3,15,1,5,0,21,7,Lc,0.09000000000000001,0.18666666666666673,0.3473333333333335,0.01
7,22,44,1,5,0.21000000000000005,1,2,1,105,26,52,11.899999999999796,0.02,0.01,0.01,19,1,1,1,42,1,1,1,6,0,17,7,Lc,0.28333333333333344,0.02,0.01,0.01
8,1,1,0,2,0.24000000000000007,2,4,82,119,75,5,0.5800000000000002,0.3000000000000001,0.08,0.09,4,2,1,1,6,2,1,1,3,0,14,7,Lc,0.09666666666666666,0.15000000000000005,0.08,0.09
8,1,2,0,4,0.26000000000000006,2,4,27,107,26,104,0.8000000000000003,0.12999999999999998,0.22000000000000006,0.060000000000000005,5,1,2,2,7,1,2,2,2,0,14,7,Lc,0.11428571428571432,0.12999999999999998,0.10999999999999999,0.03
8,2,3,0,4,0.23000000000000007,2,3,106,55,52,105,0.4400000000000001,0.4000000000000002,0.13999999999999999,0.02,4,2,1,1,5,2,1,1,2,0,12,7,Lc,0.088,0.20000000000000007,0.13999999999999999,0.02
8,2,4,0,1,0.21000000000000005,2,3,31,29,2,111,0.6600000000000003,0.07,0.13999999999999999,0.09,4,1,1,1,5,1,1,1,5,0,18,7,Lc,0.132,0.07,0.13999999999999999,0.09
8,3,5,0,1,0.26000000000000006,2,4,52,51,55,111,0.7800000000000002,0.09999999999999999,0.17,0.8500000000000005,3,1,1,2,5,1,1,2,5,0.5,26,7,Lc,0.15600000000000006,0.09999999999999999,0.17,0.42500000000000027
8,3,6,0,5,0.8500000000000005,2,4,3,5,95,102,1.3000000000000007,0.03,0.3900000000000002,1.7500000000000013,3,1,1,3,5,1,1,3,6,0,17,7,Lc,0.2600000000000001,0.03,0.3900000000000002,0.5833333333333337
8,4,7,0,4,0.23000000000000007,2,3,103,92,107,86,0.5500000000000002,0.49000000000000027,0.07,0.26000000000000006,4,1,2,3,5,1,2,3,2,0,10,7,Lc,0.11000000000000001,0.49000000000000027,0.035,0.08666666666666666
8,4,8,0,5,0.37000000000000016,3,6,28,9,6,1,1.0100000000000005,0.07,0.09999999999999999,2.1199999999999988,6,1,2,6,9,1,2,7,6,0.5,41,7,Lc,0.11222222222222224,0.07,0.05,0.302857142857143
8,5,9,0,3,0.21000000000000005,2,3,41,56,60,120,0.6400000000000002,0.09,2.679999999999987,0.5300000000000002,4,1,6,4,5,1,8,4,5,0,15,7,Lc,0.12800000000000003,0.09,0.3350000000000002,0.13250000000000003
8,5,10,0,4,0.21000000000000005,2,3,100,67,17,98,0.7000000000000003,0.34000000000000014,0.10999999999999999,0.02,4,2,1,1,7,3,1,1,2,0,14,7,Lc,0.1,0.11333333333333334,0.10999999999999999,0.02
8,6,11,0,8,0.24000000000000007,2,4,112,20,47,45,0.48000000000000015,0.5900000000000003,0.03,0.21000000000000005,4,2,1,3,6,2,1,3,2,0,18,7,Lc,0.08,0.2950000000000001,0.03,0.07
8,6,12,0,1,0.25000000000000006,2,3,26,53,59,54,0.5500000000000002,0.26000000000000006,0.12999999999999998,0.11999999999999998,4,1,1,1,5,1,1,1,5,0.5,29,7,Lc,0.11000000000000001,0.26000000000000006,0.12999999999999998,0.11999999999999998
8,7,13,1,8,0.10999999999999999,2,2,19,26,35,55,7.229999999999893,0.01,0.01,0.02,12,1,1,1,22,1,1,1,2,0,20,7,Lc,0.3286363636363638,0.01,0.01,0.02
8,7,14,1,9,0.34000000000000014,3,4,63,70,4,8,0.8100000000000004,0.09,0.6800000000000004,0.02,5,1,2,1,7,1,3,1,4,0,20,7,Lc,0.11571428571428573,0.09,0.22666666666666677,0.02
8,8,15,1,8,0.15,2,3,112,95,18,71,0.43000000000000005,0.36000000000000015,0.07,0.05,5,2,1,1,7,2,1,1,2,0,15,7,Lc,0.06142857142857143,0.18000000000000005,0.07,0.05
8,8,16,1,5,0.25000000000000006,3,4,11,12,8,28,0.5800000000000002,0.19000000000000003,0.8200000000000005,0.17,5,1,4,2,6,1,5,2,6,0.5,41,7,Lc,0.09666666666666666,0.19000000000000003,0.16400000000000003,0.08499999999999999
8,9,17,1,1,0.2800000000000001,3,4,119,29,25,77,0.8500000000000003,0.060000000000000005,0.18000000000000002,0.03,4,1,2,1,5,1,2,1,5,0,15,7,Lc,0.17000000000000004,0.060000000000000005,0.09000000000000001,0.03
8,9,18,1,3,0.13999999999999999,2,3,46,45,4,48,0.5100000000000001,0.04,0.5100000000000002,0.6700000000000004,4,1,3,2,6,1,4,2,5,0.5,36,7,Lc,0.08499999999999999,0.04,0.12750000000000003,0.3350000000000002
8,10,19,1,10,0.19000000000000003,2,4,14,20,13,96,0.5100000000000001,0.10999999999999999,13.239999999999762,0.01,3,1,17,1,5,1,30,1,6,0.5,39,7,Lc,0.10200000000000002,0.10999999999999999,0.4413333333333336,0.01
8,10,20,1,2,0.13999999999999999,2,2,5,66,117,79,3.2099999999999786,0.02,0.02,0.01,7,1,1,1,9,1,1,1,3,0,15,7,Lc,0.35666666666666685,0.02,0.02,0.01
8,11,21,1,8,0.18000000000000002,2,3,14,20,59,52,1.3800000000000008,0.01,0.02,0.01,6,1,1,1,8,1,1,1,2,0,20,7,Lc,0.17250000000000004,0.01,0.02,0.01
8,11,22,1,5,0.47000000000000025,2,3,2,103,87,47,23.45000000000079,0.01,0.02,0.02,20,1,1,1,63,1,1,1,6,0,16,7,Lc,0.3722222222222224,0.01,0.02,0.02
8,12,23,1,1,0.3000000000000001,2,4,34,35,106,33,0.5500000000000002,0.21000000000000005,0.13999999999999999,0.15,4,1,1,2,6,1,1,2,5,0.5,32,7,Lc,0.09166666666666667,0.21000000000000005,0.13999999999999999,0.07499999999999998
8,12,24,1,9,0.24000000000000007,2,3,71,37,69,12,0.7200000000000003,0.24000000000000007,0.04,0.03,4,2,1,1,5,2,1,1,4,0,19,7,Lc,0.14400000000000004,0.12000000000000002,0.04,0.03
8,13,25,1,4,0.34000000000000014,5,6,101,106,11,42,0.6400000000000002,0.24000000000000007,0.19000000000000003,0.03,7,2,1,1,8,3,1,1,2,0,15,7,Lc,0.08,0.07999999999999999,0.19000000000000003,0.03
8,13,26,1,1,0.25000000000000006,2,4,31,21,66,35,0.7400000000000003,0.15,0.05,0.24000000000000007,4,1,1,2,6,1,1,2,5,0,20,7,Lc,0.12333333333333336,0.15,0.05,0.12000000000000002
8,14,27,1,7,0.21000000000000005,2,5,5,95,90,93,1.1400000000000006,0.01,0.02,0.9300000000000006,4,1,1,4,8,1,1,4,3,0.5,24,7,Lc,0.14250000000000004,0.01,0.02,0.2325000000000001
8,14,28,1,8,0.19000000000000003,2,6,32,116,16,53,0.6700000000000003,0.04,0.17,0.03,3,1,2,1,7,1,2,1,2,0,17,7,Lc,0.09571428571428575,0.04,0.08499999999999999,0.03
8,15,29,1,1,0.22000000000000006,2,4,100,29,22,21,0.9500000000000005,0.6500000000000004,0.01,0.01,5,2,1,1,7,2,1,1,5,0,19,7,Lc,0.13571428571428576,0.3250000000000002,0.01,0.01
8,15,30,1,7,0.19000000000000003,2,3,86,90,53,47,0.4900000000000001,1.8200000000000014,0.02,0.01,4,4,1,1,5,4,1,1,3,0,15,7,Lc,0.098,0.45500000000000024,0.02,0.01
8,16,31,1,5,0.24000000000000007,2,4,11,74,64,12,0.5600000000000002,0.5400000000000003,0.08,0.01,4,2,1,1,6,2,1,1,6,0,19,7,Lc,0.09333333333333334,0.2700000000000001,0.08,0.01
8,16,32,1,7,0.3000000000000001,2,5,93,92,88,57,0.6300000000000002,0.10999999999999999,0.8400000000000005,0.01,4,1,3,1,7,1,3,1,3,0.5,22,7,Lc,0.09000000000000001,0.10999999999999999,0.28000000000000014,0.01
8,17,33,1,1,0.45000000000000023,3,4,26,14,13,27,1.0000000000000004,0.22000000000000006,5.099999999999936,0.05,4,2,7,1,5,2,7,1,5,0,22,7,Lc,0.20000000000000007,0.11000000000000001,0.7285714285714279,0.05
8,17,34,1,8,0.18000000000000002,2,3,109,115,67,92,0.5200000000000001,0.09,0.3300000000000001,0.03,3,1,2,1,4,1,3,1,2,0,11,7,Lc,0.13000000000000003,0.09,0.10999999999999999,0.03
8,18,35,1,3,0.15,2,3,46,48,18,62,0.43000000000000005,0.13999999999999999,0.18000000000000002,0.02,4,2,2,1,5,3,2,1,5,0,20,7,Lc,0.086,0.04666666666666667,0.09,0.02
8,18,36,1,5,0.22000000000000006,2,3,11,4,90,6,1.2300000000000006,0.01,0.7300000000000004,0.13999999999999999,5,1,3,2,6,1,3,2,6,0.5,39,7,Lc,0.20500000000000007,0.01,0.24333333333333346,0.06999999999999999
8,19,37,1,8,0.20000000000000004,2,3,44,118,21,19,1.1100000000000005,0.10999999999999999,0.01,0.02,4,2,1,1,5,2,1,1,2,0,19,7,Lc,0.22200000000000011,0.055,0.01,0.02
8,19,38,1,7,0.20000000000000004,2,3,87,58,35,33,0.4600000000000001,0.8900000000000006,0.03,0.02,4,5,1,1,5,8,1,1,3,0,17,7,Lc,0.092,0.11125000000000003,0.03,0.02
8,20,39,1,2,3.039999999999979,10,13,73,81,71,30,3.049999999999979,0.38000000000000017,0.16,0.01,11,2,1,1,14,4,1,1,3,0,15,7,Lc,0.217857142857143,0.095,0.16,0.01
8,20,40,1,8,0.20000000000000004,2,3,117,95,113,96,1.0300000000000005,0.19000000000000003,0.04,0.4400000000000002,4,1,1,2,5,1,1,2,2,0,10,7,Lc,0.2060000000000001,0.19000000000000003,0.04,0.2200000000000001
8,21,41,1,1,0.38000000000000017,4,5,116,26,22,111,0.7400000000000003,0.15,0.08,0.18000000000000002,5,1,1,2,6,1,1,4,5,0,15,7,Lc,0.12333333333333336,0.15,0.08,0.045000000000000005
8,21,42,1,3,0.7400000000000004,2,4,37,47,61,4,0.8000000000000005,0.21000000000000005,1.1400000000000008,0.01,3,2,2,1,5,3,2,1,5,0,20,7,Lc,0.16000000000000003,0.06999999999999999,0.5700000000000004,0.01
8,22,43,1,7,1.5100000000000011,8,8,13,86,23,18,16.889999999999716,0.01,0.02,0.5400000000000003,20,1,1,2,48,1,1,2,3,0.5,39,7,Lc,0.3518750000000002,0.01,0.02,0.27000000000000013
8,22,44,1,5,0.45000000000000023,2,4,10,120,4,8,0.8300000000000004,0.10999999999999999,0.13999999999999999,0.8000000000000005,4,1,1,3,6,1,1,3,6,0.5,38,7,Lc,0.13833333333333336,0.10999999999999999,0.13999999999999999,0.2666666666666668
9,1,1,0,2,0.22000000000000006,2,3,82,74,81,1,0.5900000000000002,0.10999999999999999,0.09,0.12999999999999998,4,1,1,1,5,1,1,1,3,0.5,24,7,Lc,0.11800000000000001,0.10999999999999999,0.09,0.12999999999999998
9,1,2,0,4,0.21000000000000005,2,3,33,108,59,26,0.8200000000000004,0.03,0.23000000000000007,0.03,4,1,1,1,8,1,1,1,2,0,16,7,Lc,0.10250000000000001,0.03,0.23000000000000007,0.03
9,2,3,0,4,0.21000000000000005,2,3,106,107,75,99,0.4400000000000001,0.36000000000000015,0.19000000000000003,0.02,4,2,1,1,5,2,1,1,2,0.5,15,7,Lc,0.08800000000000001,0.18000000000000005,0.19000000000000003,0.02
9,2,4,0,7,0.19000000000000003,2,3,91,86,52,94,0.4600000000000001,0.10999999999999999,0.3300000000000001,0.03,3,1,2,1,4,1,2,1,3,0.5,22,7,Lc,0.11500000000000002,0.10999999999999999,0.16500000000000004,0.03
9,3,5,0,5,0.22000000000000006,2,3,8,2,9,97,0.5100000000000001,0.3900000000000002,0.02,0.20000000000000004,4,3,1,2,5,4,1,2,6,0.5,38,7,Lc,0.102,0.0975,0.02,0.1
9,3,6,0,9,0.21000000000000005,2,3,119,93,43,45,0.7800000000000004,0.3100000000000001,0.34000000000000014,0.05,3,2,1,1,4,3,1,1,4,0,15,7,Lc,0.19500000000000006,0.10333333333333332,0.34000000000000014,0.05
9,4,7,0,2,0.20000000000000004,2,3,101,84,38,41,0.6100000000000002,0.3100000000000001,0.12999999999999998,0.02,3,2,1,1,4,2,1,1,3,0,15,7,Lc,0.15250000000000005,0.15500000000000003,0.12999999999999998,0.02
9,4,8,0,10,0.26000000000000006,2,4,13,92,111,50,0.7100000000000003,0.17,0.09999999999999999,0.08,4,1,1,1,6,1,1,1,6,0,15,7,Lc,0.11833333333333336,0.17,0.09999999999999999,0.08
9,5,9,0,7,0.2800000000000001,2,3,94,95,29,28,0.6900000000000003,0.17,0.19000000000000003,0.11999999999999998,5,1,1,1,7,1,1,1,3,0,16,7,Lc,0.09857142857142856,0.17,0.19000000000000003,0.11999999999999998
9,5,10,0,8,0.26000000000000006,2,3,113,23,14,41,0.5500000000000002,0.4300000000000002,0.09999999999999999,0.02,4,2,1,1,5,3,1,1,2,0,19,7,Lc,0.11000000000000001,0.14333333333333334,0.09999999999999999,0.02
9,6,11,0,1,0.16,2,3,29,33,28,5,0.4900000000000001,0.08,0.36000000000000015,0.07,3,1,3,1,4,1,3,1,5,0.5,36,7,Lc,0.12250000000000003,0.08,0.12000000000000002,0.07
9,6,12,0,6,0.21000000000000005,2,3,52,95,93,55,0.4600000000000001,0.2900000000000001,0.16,0.05,4,1,1,1,5,1,1,1,4,0,14,7,Lc,0.09200000000000001,0.2900000000000001,0.16,0.05
9,7,13,1,2,0.26000000000000006,2,4,83,23,82,111,0.6600000000000003,0.060000000000000005,0.09999999999999999,0.09,4,1,1,1,6,1,1,1,3,0,14,7,Lc,0.11000000000000001,0.060000000000000005,0.09999999999999999,0.09
9,7,14,1,3,0.19000000000000003,2,3,46,94,96,10,0.8600000000000004,0.4400000000000002,0.01,0.02,4,2,1,1,5,2,1,1,5,0,17,7,Lc,0.17200000000000007,0.2200000000000001,0.01,0.02
9,8,15,1,1,0.4000000000000002,2,3,87,29,4,113,0.7300000000000003,0.02,0.23000000000000007,0.060000000000000005,3,1,2,1,4,1,2,1,5,0,16,7,Lc,0.18250000000000005,0.02,0.11499999999999999,0.060000000000000005
9,8,16,1,4,0.13999999999999999,1,2,100,77,70,62,0.4,0.6900000000000004,0.09,0.18000000000000002,3,3,1,1,4,3,1,1,2,0,13,7,Lc,0.1,0.23000000000000007,0.09,0.18000000000000002
9,9,17,1,4,0.3200000000000001,2,3,108,97,102,25,0.9900000000000004,0.01,0.01,0.13999999999999999,5,1,1,2,7,1,1,2,2,0.5,17,7,Lc,0.14142857142857146,0.01,0.01,0.07
9,9,18,1,5,0.35000000000000014,2,3,112,110,67,78,1.1100000000000005,0.07,0.02,0.01,4,1,1,1,5,1,1,1,6,0,11,7,Lc,0.2220000000000001,0.07,0.02,0.01
9,10,19,1,3,0.24000000000000007,2,3,43,40,72,69,0.5700000000000002,0.17,0.48000000000000026,0.02,4,1,2,1,7,1,2,1,5,0,18,7,Lc,0.08142857142857142,0.17,0.24000000000000005,0.02
9,10,20,1,5,0.15,2,2,2,12,117,84,0.5600000000000002,0.12999999999999998,0.4400000000000002,0.02,4,1,2,1,5,1,2,1,6,0,17,7,Lc,0.11200000000000002,0.12999999999999998,0.2200000000000001,0.02
9,11,21,1,1,0.36000000000000015,2,5,32,13,28,85,0.7000000000000003,2.199999999999997,0.34000000000000014,0.01,4,4,2,1,7,5,2,1,5,0,19,7,Lc,0.1,0.4400000000000002,0.17000000000000007,0.01
9,11,22,1,9,0.24000000000000007,2,3,1,107,48,61,5.9199999999999235,0.01,0.01,0.01,15,1,1,1,24,1,1,1,4,0,17,7,Lc,0.24666666666666676,0.01,0.01,0.01
9,12,23,1,8,0.26000000000000006,2,3,115,29,87,119,0.6800000000000003,0.07,0.16,0.12999999999999998,4,1,2,1,5,1,2,1,2,0,12,7,Lc,0.136,0.07,0.08,0.12999999999999998
9,12,24,1,2,0.25000000000000006,3,4,102,54,51,79,0.8400000000000003,0.09,0.16,0.03,5,1,2,1,6,1,3,1,3,0,13,7,Lc,0.14000000000000004,0.09,0.05333333333333334,0.03
9,13,25,1,10,11.579999999999798,13,49,86,17,94,46,11.589999999999797,0.12999999999999998,1.2500000000000009,0.8100000000000005,14,1,3,3,50,1,3,3,6,0,17,7,Lc,0.2318000000000001,0.12999999999999998,0.4166666666666669,0.27000000000000013
9,13,26,1,4,0.3000000000000001,2,4,51,97,34,59,0.8100000000000003,0.04,0.08,0.12999999999999998,3,1,1,1,5,1,1,1,2,0,15,7,Lc,0.16200000000000003,0.04,0.08,0.12999999999999998
9,14,27,1,4,0.18000000000000002,2,5,55,102,41,44,0.7200000000000003,1.7900000000000014,0.05,0.01,3,2,1,1,6,2,1,1,2,0,16,7,Lc,0.12000000000000005,0.8950000000000007,0.05,0.01
9,14,28,1,1,0.3200000000000001,3,4,28,23,34,119,0.7900000000000004,3.7399999999999642,0.2900000000000001,1.460000000000001,4,8,1,3,5,9,1,3,5,0,18,7,Lc,0.15800000000000006,0.4155555555555558,0.2900000000000001,0.48666666666666697
9,15,29,1,9,0.19000000000000003,2,3,83,79,71,68,1.8100000000000012,0.01,0.01,0.060000000000000005,4,1,1,2,5,1,1,2,4,0,14,7,Lc,0.36200000000000027,0.01,0.01,0.030000000000000002
9,15,30,1,6,0.19000000000000003,3,4,105,87,60,57,1.1300000000000006,0.13999999999999999,0.01,0.01,5,1,1,1,6,1,1,1,4,0,13,7,Lc,0.18833333333333344,0.13999999999999999,0.01,0.01
9,16,31,1,2,0.3000000000000001,2,4,29,65,25,70,0.7500000000000003,1.1300000000000008,0.060000000000000005,0.01,3,3,2,1,5,3,2,1,3,0,18,7,Lc,0.15000000000000005,0.37666666666666687,0.030000000000000002,0.01
9,16,32,1,6,0.22000000000000006,2,3,52,54,48,59,0.6200000000000002,0.09,0.07,0.5200000000000002,5,2,1,2,7,2,1,3,4,0.5,29,7,Lc,0.08857142857142858,0.045,0.07,0.17333333333333342
9,17,33,1,8,0.23000000000000007,3,4,45,117,81,115,0.9700000000000005,0.01,0.03,0.2700000000000001,7,1,1,2,8,1,1,2,2,0,12,7,Lc,0.12125000000000002,0.01,0.03,0.13500000000000004
9,17,34,1,4,0.17,2,3,100,26,89,28,0.5500000000000002,0.19000000000000003,0.5100000000000002,0.01,4,1,2,1,5,1,3,1,2,0,15,7,Lc,0.11000000000000003,0.19000000000000003,0.17000000000000007,0.01
9,18,35,1,1,0.3300000000000001,4,7,27,8,34,67,0.6100000000000002,1.5800000000000012,0.01,1.300000000000001,6,4,1,4,9,6,1,4,5,0,20,7,Lc,0.06777777777777777,0.2633333333333334,0.01,0.3250000000000001
9,18,36,1,10,0.24000000000000007,2,4,15,14,94,90,0.7200000000000003,6.249999999999911,0.03,0.01,4,14,2,1,7,19,2,1,6,0,18,7,Lc,0.10285714285714287,0.32894736842105277,0.015,0.01
9,19,37,1,6,0.21000000000000005,2,3,60,55,2,8,0.4700000000000001,0.060000000000000005,0.2700000000000001,0.060000000000000005,3,1,2,1,4,1,2,1,4,0,20,7,Lc,0.11750000000000002,0.060000000000000005,0.135,0.060000000000000005
9,19,38,1,4,0.13999999999999999,2,3,103,95,46,96,0.5700000000000002,0.04,0.10999999999999999,0.24000000000000007,4,1,1,1,5,1,1,1,2,0,13,7,Lc,0.11400000000000003,0.04,0.10999999999999999,0.24000000000000007
9,20,39,1,5,0.2800000000000001,2,3,9,61,64,7,0.5100000000000001,0.2900000000000001,0.15,0.04,3,2,1,1,4,2,1,1,6,0,20,7,Lc,0.1275,0.14500000000000002,0.15,0.04
9,20,40,1,4,0.13999999999999999,2,3,105,60,30,31,0.38000000000000006,1.2500000000000009,0.01,0.01,3,2,1,1,4,2,1,1,2,0,16,7,Lc,0.09500000000000001,0.6250000000000004,0.01,0.01
9,21,41,1,10,0.20000000000000004,2,3,24,118,30,16,0.5400000000000001,0.5500000000000003,1.9800000000000015,2.0400000000000005,4,3,2,8,5,3,2,8,6,0,19,7,Lc,0.10800000000000001,0.18333333333333343,0.9900000000000008,0.2550000000000001
9,21,42,1,4,0.15,2,3,101,9,71,107,0.5000000000000001,0.37000000000000016,0.03,0.01,4,2,1,1,5,2,1,1,2,0,14,7,Lc,0.10000000000000002,0.18500000000000003,0.03,0.01
9,22,43,1,2,0.16,2,2,13,27,82,59,2.1600000000000015,0.01,0.01,0.01,8,1,1,1,9,1,1,1,3,0,18,7,Lc,0.2400000000000001,0.01,0.01,0.01
9,22,44,1,9,9.439999999999843,10,23,39,10,5,3,11.239999999999844,0.03,5.179999999999934,7.189999999999891,14,1,11,13,28,1,13,21,4,0.5,41,7,Lc,0.4014285714285717,0.03,0.3984615384615387,0.34238095238095256
10,1,1,0,3,0.24000000000000007,2,3,45,91,62,65,0.6600000000000003,0.6500000000000004,0.07,0.05,3,1,1,1,4,1,1,1,5,0,16,7,Lc,0.16500000000000004,0.6500000000000004,0.07,0.05
10,1,2,0,2,0.11999999999999998,2,2,13,21,77,54,2.9499999999999837,0.01,0.01,0.01,6,1,1,1,7,1,1,1,3,0,19,7,Lc,0.4214285714285717,0.01,0.01,0.01
10,2,3,0,2,0.25000000000000006,2,3,13,77,51,17,0.9000000000000004,0.04,0.34000000000000014,0.01,4,1,2,1,6,1,2,1,3,0,19,7,Lc,0.15000000000000002,0.04,0.17000000000000007,0.01
10,2,4,0,5,0.25000000000000006,2,3,44,61,95,7,0.8100000000000003,0.2700000000000001,0.060000000000000005,0.03,3,2,1,1,4,3,1,1,6,0,18,7,Lc,0.20250000000000007,0.09,0.060000000000000005,0.03
10,3,5,0,4,0.22000000000000006,2,3,97,43,102,87,0.5200000000000001,0.34000000000000014,0.04,0.19000000000000003,4,2,1,1,5,4,1,1,2,0,12,7,Lc,0.10400000000000001,0.08499999999999999,0.04,0.19000000000000003
10,3,6,0,2,0.23000000000000007,2,5,82,50,13,79,0.5900000000000002,0.47000000000000025,0.24000000000000007,0.02,4,1,2,1,7,1,3,1,3,0,16,7,Lc,0.0842857142857143,0.47000000000000025,0.08,0.02
10,4,7,0,9,0.45000000000000023,3,4,42,38,3,116,0.8700000000000004,0.15,0.20000000000000004,0.6100000000000003,4,1,2,1,5,1,2,1,4,0,18,7,Lc,0.17400000000000004,0.15,0.1,0.6100000000000003
10,4,8,0,10,0.24000000000000007,2,3,15,19,13,20,0.6700000000000003,0.09,5.35999999999993,0.01,3,1,12,1,4,1,15,1,6,1,72,7,Lc,0.16750000000000004,0.09,0.3573333333333335,0.01
10,5,9,0,9,0.18000000000000002,2,4,41,66,42,11,0.9900000000000005,0.6600000000000004,0.04,0.03,5,2,2,1,7,2,2,1,4,0,20,7,Lc,0.14142857142857146,0.3300000000000002,0.02,0.03
10,5,10,0,1,0.25000000000000006,2,3,35,27,116,117,0.6500000000000002,0.08,0.19000000000000003,0.09999999999999999,3,1,1,1,4,1,1,1,5,0,14,7,Lc,0.16250000000000003,0.08,0.19000000000000003,0.09999999999999999
10,6,11,0,4,0.21000000000000005,2,4,102,100,73,82,0.5200000000000001,0.09,0.3000000000000001,0.13999999999999999,4,1,1,1,6,1,1,1,2,0,10,7,Lc,0.08666666666666667,0.09,0.3000000000000001,0.13999999999999999
10,6,12,0,8,0.2900000000000001,2,3,92,28,111,33,0.9000000000000004,0.3000000000000001,0.02,0.09999999999999999,3,2,1,1,4,2,1,1,2,0,15,7,Lc,0.2250000000000001,0.15,0.02,0.09999999999999999
10,7,13,1,1,0.24000000000000007,2,3,35,17,96,94,0.7100000000000003,0.17,0.18000000000000002,0.7200000000000004,5,1,1,4,9,1,1,4,5,0,17,7,Lc,0.0788888888888889,0.17,0.18000000000000002,0.18000000000000005
10,7,14,1,3,0.3000000000000001,3,4,62,39,81,67,0.8700000000000003,0.03,0.4400000000000002,0.02,5,1,2,1,7,1,2,1,5,0,16,7,Lc,0.1242857142857143,0.03,0.2200000000000001,0.02
10,8,15,1,10,0.22000000000000006,1,2,22,20,106,73,0.6100000000000002,0.20000000000000004,0.09,0.09,3,2,1,1,4,2,1,1,6,0,17,7,Lc,0.1525,0.09999999999999999,0.09,0.09
10,8,16,1,5,0.09999999999999999,2,2,4,7,61,64,0.6200000000000002,0.05,0.3900000000000002,0.20000000000000004,4,1,1,1,5,1,1,1,6,0,20,7,Lc,0.12400000000000001,0.05,0.3900000000000002,0.20000000000000004
10,9,17,1,6,0.24000000000000007,2,4,55,58,59,4,0.47000000000000014,0.47000000000000025,0.05,0.6500000000000004,4,4,1,3,6,4,1,3,4,0.5,30,7,Lc,0.07833333333333334,0.11750000000000002,0.05,0.21666666666666676
10,9,18,1,1,0.20000000000000004,2,4,34,28,35,106,0.5100000000000001,0.12999999999999998,0.17,2.3699999999999934,3,1,2,4,5,1,3,5,5,0.5,32,7,Lc,0.10200000000000002,0.12999999999999998,0.056666666666666664,0.4740000000000003
10,10,19,1,2,0.22000000000000006,2,3,71,45,81,115,1.8900000000000012,0.21000000000000005,0.01,0.01,4,1,1,1,5,1,1,1,3,0,14,7,Lc,0.3780000000000002,0.21000000000000005,0.01,0.01
10,10,20,1,6,0.25000000000000006,2,3,59,57,95,27,0.7100000000000003,0.4000000000000002,0.09999999999999999,0.02,4,2,1,1,7,2,1,1,4,0,16,7,Lc,0.10142857142857145,0.20000000000000007,0.09999999999999999,0.02
10,11,21,1,2,0.17,2,3,81,84,46,1,0.4600000000000001,0.11999999999999998,0.4400000000000002,0.01,3,1,3,1,4,1,3,1,3,0,17,7,Lc,0.11500000000000002,0.11999999999999998,0.1466666666666667,0.01
10,11,22,1,1,0.26000000000000006,2,3,87,72,65,32,1.0600000000000005,0.03,0.060000000000000005,0.5600000000000003,3,1,1,2,4,1,1,2,5,0,16,7,Lc,0.2650000000000001,0.03,0.060000000000000005,0.28000000000000014
10,12,23,1,6,0.3300000000000001,2,3,5,50,58,87,0.7600000000000003,0.03,0.09999999999999999,0.3000000000000001,4,1,1,2,6,1,1,2,4,0,17,7,Lc,0.1266666666666667,0.03,0.09999999999999999,0.15000000000000005
10,12,24,1,10,0.47000000000000025,3,5,23,74,79,61,0.7100000000000003,2.0000000000000013,0.01,0.01,5,4,1,1,7,4,1,1,6,0,16,7,Lc,0.10142857142857144,0.5000000000000003,0.01,0.01
10,13,25,1,8,0.16,1,2,56,27,5,112,1.1000000000000005,0.02,0.01,0.01,4,1,1,1,5,1,1,1,2,0,17,7,Lc,0.2200000000000001,0.02,0.01,0.01
10,13,26,1,4,0.7700000000000005,3,4,14,62,84,76,3.3399999999999896,0.01,0.01,0.01,11,1,1,1,14,1,1,1,2,0,16,7,Lc,0.23857142857142868,0.01,0.01,0.01
10,14,27,1,1,0.26000000000000006,2,3,36,27,74,81,0.6200000000000002,0.17,0.20000000000000004,0.04,4,1,3,1,5,1,3,1,5,0,16,7,Lc,0.12400000000000001,0.17,0.06666666666666667,0.04
10,14,28,1,4,0.20000000000000004,2,3,104,98,19,99,0.5400000000000001,0.09999999999999999,0.10999999999999999,0.3000000000000001,3,1,1,2,4,1,1,2,2,0.5,18,7,Lc,0.13500000000000004,0.09999999999999999,0.10999999999999999,0.15000000000000005
10,15,29,1,7,0.15,2,4,90,88,91,20,0.4700000000000001,0.09999999999999999,0.10999999999999999,0.7300000000000004,3,1,2,3,5,1,2,3,3,0.5,24,7,Lc,0.09400000000000003,0.09999999999999999,0.05500000000000001,0.24333333333333346
10,15,30,1,6,0.26000000000000006,4,5,57,46,9,73,0.8500000000000003,0.10999999999999999,0.11999999999999998,0.13999999999999999,6,1,1,2,7,1,1,2,4,0,18,7,Lc,0.12142857142857146,0.10999999999999999,0.11999999999999998,0.06999999999999999
10,16,31,1,8,0.2700000000000001,2,4,112,85,2,110,0.5900000000000002,0.48000000000000026,0.05,0.05,4,1,1,2,6,1,1,2,2,0,13,7,Lc,0.09833333333333336,0.48000000000000026,0.05,0.025
10,16,32,1,10,0.3000000000000001,3,4,56,74,22,27,0.8600000000000003,0.09,0.05,0.9000000000000006,5,2,1,2,7,2,1,2,6,0,18,7,Lc,0.12285714285714287,0.045,0.05,0.4500000000000003
10,17,33,1,1,0.34000000000000014,3,5,26,87,91,94,0.7400000000000003,0.25000000000000006,0.11999999999999998,0.03,5,2,2,1,8,3,2,1,5,0.5,23,7,Lc,0.09250000000000001,0.08333333333333333,0.060000000000000005,0.03
10,17,34,1,5,0.2800000000000001,2,3,5,4,44,106,0.6300000000000002,0.08,1.6800000000000013,0.01,3,1,6,1,4,1,10,1,6,0,19,7,Lc,0.15750000000000003,0.08,0.16800000000000007,0.01
10,18,35,1,8,0.5900000000000003,3,4,112,67,14,113,1.0200000000000005,0.15,0.17,0.04,5,1,1,1,6,1,1,1,2,0,14,7,Lc,0.17000000000000007,0.15,0.17,0.04
10,18,36,1,7,0.24000000000000007,2,3,96,90,106,4,0.7700000000000004,0.09,0.34000000000000014,0.04,4,1,2,1,6,1,2,1,3,0,14,7,Lc,0.12833333333333335,0.09,0.17000000000000004,0.04
10,19,37,1,5,0.37000000000000016,2,2,2,7,41,98,0.9400000000000004,0.24000000000000007,0.05,0.01,3,1,1,1,3,1,1,1,6,0,19,7,Lc,0.31333333333333346,0.24000000000000007,0.05,0.01
10,19,38,1,10,0.21000000000000005,2,3,14,22,117,116,0.6400000000000002,0.08,0.2700000000000001,0.10999999999999999,4,1,2,1,6,1,2,1,6,0,16,7,Lc,0.10666666666666667,0.08,0.13500000000000004,0.10999999999999999
10,20,39,1,4,0.3000000000000001,3,4,13,89,20,94,13.259999999999769,0.01,0.07,0.01,15,1,1,1,24,1,1,1,2,0,18,7,Lc,0.5525000000000001,0.01,0.07,0.01
10,20,40,1,1,0.20000000000000004,2,3,28,84,29,82,0.7100000000000003,0.16,0.05,0.03,4,1,1,1,5,1,1,1,5,0,16,7,Lc,0.14200000000000004,0.16,0.05,0.03
10,21,41,1,4,0.3200000000000001,3,5,106,97,14,63,0.8500000000000003,0.05,0.17,0.11999999999999998,5,1,1,1,9,1,1,1,2,0,14,7,Lc,0.09444444444444446,0.05,0.17,0.11999999999999998
10,21,42,1,8,0.2900000000000001,2,3,110,112,116,56,0.7900000000000003,0.13999999999999999,0.12999999999999998,0.5300000000000002,5,1,1,3,7,1,1,3,2,0.5,16,7,Lc,0.11285714285714286,0.13999999999999999,0.12999999999999998,0.1766666666666667
10,22,43,1,6,0.19000000000000003,2,3,14,53,42,13,0.6600000000000003,0.07,0.3100000000000001,0.7400000000000004,4,1,2,2,6,1,2,2,4,0,21,7,Lc,0.11000000000000001,0.07,0.15500000000000005,0.3700000000000002
10,22,44,1,8,0.26000000000000006,2,5,119,120,1,80,0.9700000000000004,5.179999999999934,9.56999999999984,0.7900000000000005,4,11,13,2,9,14,20,2,2,0,13,7,Lc,0.1077777777777778,0.37000000000000016,0.47850000000000026,0.39500000000000024
11,1,1,0,7,0.15,2,4,94,87,55,59,0.7300000000000003,0.03,0.09999999999999999,0.08,4,1,1,1,15,1,1,1,3,0,14,7,Lc,0.048666666666666664,0.03,0.09999999999999999,0.08
11,1,2,0,5,0.24000000000000007,2,6,11,33,7,69,0.8000000000000004,0.19000000000000003,0.05,0.24000000000000007,4,2,2,3,13,3,2,3,6,0,21,7,Lc,0.061538461538461535,0.06333333333333334,0.025,0.08000000000000002
11,2,3,0,3,0.25000000000000006,5,7,41,113,49,117,0.8400000000000003,0.11999999999999998,0.10999999999999999,0.09999999999999999,7,2,2,2,13,2,2,2,5,0,13,7,Lc,0.06461538461538462,0.06,0.05500000000000001,0.049999999999999996
11,2,4,0,4,0.10999999999999999,2,4,1,2,97,83,2.63999999999999,0.01,0.01,0.01,13,1,1,1,32,1,1,1,2,0,17,7,Lc,0.0825,0.01,0.01,0.01
11,3,5,0,5,0.21000000000000005,2,4,10,116,114,78,0.6300000000000002,0.3000000000000001,0.07,0.21000000000000005,4,3,1,2,12,9,1,2,6,0,13,7,Lc,0.052500000000000005,0.03333333333333333,0.07,0.10500000000000001
11,3,6,0,6,0.23000000000000007,2,5,55,20,92,17,0.6500000000000002,0.7200000000000004,0.09,0.01,4,3,1,1,11,9,1,1,4,0,19,7,Lc,0.0590909090909091,0.08,0.09,0.01
11,4,7,0,4,0.20000000000000004,2,3,97,65,17,108,0.6500000000000002,0.26000000000000006,0.060000000000000005,0.3300000000000001,6,2,1,2,11,3,1,2,2,0,14,7,Lc,0.05909090909090909,0.08666666666666667,0.060000000000000005,0.16500000000000006
11,4,8,0,5,0.15,2,5,3,4,56,93,0.5600000000000002,1.2300000000000009,0.01,0.01,4,9,1,1,8,19,1,1,6,0,19,7,Lc,0.07,0.06473684210526316,0.01,0.01
11,5,9,0,5,0.24000000000000007,4,7,11,9,117,80,0.6600000000000003,0.2700000000000001,0.09,0.09,6,7,2,2,13,8,3,4,6,0,17,7,Lc,0.05076923076923077,0.03375,0.030000000000000002,0.0225
11,5,10,0,3,0.09,2,5,38,47,94,18,0.4900000000000002,0.07,0.19000000000000003,0.04,4,1,4,2,10,1,6,2,5,0,19,7,Lc,0.048999999999999995,0.07,0.03166666666666667,0.02
11,6,11,0,10,0.22000000000000006,3,4,24,87,23,13,0.5600000000000002,0.35000000000000014,0.03,1.6400000000000012,5,3,1,13,8,6,1,24,6,0.5,39,7,Lc,0.06999999999999999,0.058333333333333334,0.03,0.06833333333333333
11,6,12,0,9,0.16,2,3,69,11,8,6,0.6300000000000002,0.2800000000000001,0.09999999999999999,0.09,4,3,2,2,11,3,2,2,4,0.5,40,7,Lc,0.057272727272727274,0.09333333333333335,0.05,0.045
11,7,13,1,3,0.10999999999999999,2,3,61,37,3,12,0.7700000000000004,0.04,0.09999999999999999,0.01,4,2,2,1,10,2,2,1,5,0,21,7,Lc,0.07700000000000001,0.02,0.05,0.01
11,7,14,1,4,0.22000000000000006,2,5,106,85,16,95,0.7000000000000003,0.36000000000000015,0.02,0.03,5,3,1,1,13,3,1,1,2,0,14,7,Lc,0.05384615384615385,0.12000000000000004,0.02,0.03
11,8,15,1,4,0.12999999999999998,2,3,105,98,100,63,0.4800000000000001,0.19000000000000003,0.05,0.2900000000000001,4,2,1,4,6,3,1,5,2,0.5,16,7,Lc,0.08000000000000002,0.06333333333333334,0.05,0.057999999999999996
11,8,16,1,5,0.19000000000000003,2,3,58,8,6,86,0.8900000000000005,0.04,0.01,0.24000000000000007,6,2,1,3,10,2,1,3,6,0,19,7,Lc,0.08900000000000001,0.02,0.01,0.07999999999999999
11,9,17,1,9,0.09,2,2,4,69,70,38,1.410000000000001,0.01,0.01,0.01,7,1,1,1,27,1,1,1,4,0,19,7,Lc,0.052222222222222225,0.01,0.01,0.01
11,9,18,1,1,0.17,2,4,30,22,15,112,0.7200000000000003,0.07,0.25000000000000006,0.04,4,1,4,2,10,1,4,3,5,0,19,7,Lc,0.07200000000000001,0.07,0.0625,0.013333333333333334
11,10,19,1,4,0.19000000000000003,2,8,105,99,108,91,0.5300000000000001,0.16,0.2700000000000001,0.01,6,2,3,1,14,3,4,1,2,0.5,15,7,Lc,0.03785714285714285,0.05333333333333333,0.06749999999999999,0.01
11,10,20,1,2,0.17,3,5,73,56,75,38,0.5900000000000002,0.15,0.04,0.07,5,2,1,1,10,2,1,1,3,0,15,7,Lc,0.059000000000000004,0.075,0.04,0.07
11,11,21,1,4,0.19000000000000003,2,6,41,23,47,107,0.8200000000000004,0.13999999999999999,0.04,0.04,6,2,2,1,15,5,2,1,2,0,18,7,Lc,0.05466666666666667,0.028,0.02,0.04
11,11,22,1,9,0.16,2,4,64,61,84,66,0.6300000000000002,0.13999999999999999,0.2700000000000001,0.02,6,2,5,1,16,4,5,1,4,0.5,27,7,Lc,0.039375,0.035,0.054,0.02
11,12,23,1,5,0.12999999999999998,2,3,5,11,3,49,0.5400000000000001,0.10999999999999999,1.2000000000000008,0.02,4,2,13,2,8,3,17,2,6,0.5,40,7,Lc,0.0675,0.03666666666666667,0.07058823529411766,0.01
11,12,24,1,7,0.22000000000000006,2,9,43,16,61,45,0.8100000000000004,0.7800000000000005,0.13999999999999999,0.2800000000000001,5,5,1,5,16,7,1,5,3,0,20,7,Lc,0.050625,0.11142857142857146,0.13999999999999999,0.055999999999999994
11,13,25,1,2,0.19000000000000003,2,6,79,103,83,81,0.6700000000000003,0.24000000000000007,0.07,0.01,4,2,2,1,14,4,2,1,3,0.5,20,7,Lc,0.047857142857142855,0.060000000000000005,0.035,0.01
11,13,26,1,8,0.15,2,6,117,68,72,89,0.6400000000000002,0.25000000000000006,0.15,0.01,5,2,3,1,14,3,6,1,2,0,13,7,Lc,0.045714285714285714,0.08333333333333334,0.025,0.01
11,14,27,1,1,0.16,2,3,31,21,116,88,0.6500000000000002,0.13999999999999999,0.10999999999999999,0.060000000000000005,5,2,2,2,9,2,2,3,5,0,16,7,Lc,0.07222222222222222,0.06999999999999999,0.05500000000000001,0.02
11,14,28,1,2,0.2900000000000001,4,4,47,74,79,54,0.7600000000000003,0.060000000000000005,0.08,0.05,6,1,2,1,11,1,2,1,3,0,15,7,Lc,0.06909090909090909,0.060000000000000005,0.04,0.05
11,15,29,1,4,0.19000000000000003,3,5,71,13,93,86,1.0300000000000005,0.01,0.060000000000000005,0.01,5,1,2,1,14,1,2,1,2,0,16,7,Lc,0.0735714285714286,0.01,0.030000000000000002,0.01
11,15,30,1,8,0.3100000000000001,2,4,118,57,113,110,0.8600000000000003,0.09,0.03,0.060000000000000005,4,2,1,1,13,2,1,1,2,0.5,16,7,Lc,0.06615384615384615,0.045,0.03,0.060000000000000005
11,16,31,1,4,0.34000000000000014,3,8,12,97,2,40,1.0000000000000004,0.01,0.07,0.060000000000000005,8,1,1,1,21,1,1,1,2,0,19,7,Lc,0.04761904761904762,0.01,0.07,0.060000000000000005
11,16,32,1,2,0.11999999999999998,3,4,13,50,59,77,3.179999999999979,0.01,0.01,0.02,17,1,1,1,39,1,1,1,3,0,17,7,Lc,0.08153846153846155,0.01,0.01,0.02
11,17,33,1,4,0.36000000000000015,6,10,108,104,67,99,1.1400000000000006,0.05,0.02,0.04,9,1,2,1,23,1,2,1,2,0.5,16,7,Lc,0.04956521739130435,0.05,0.01,0.04
11,17,34,1,10,0.21000000000000005,2,4,21,117,58,54,0.5300000000000001,0.2900000000000001,0.3100000000000001,0.09999999999999999,4,2,3,3,6,4,4,4,6,0,16,7,Lc,0.08833333333333333,0.07250000000000001,0.0775,0.025
11,18,35,1,7,0.22000000000000006,6,9,94,90,1,72,0.5900000000000002,0.17,0.47000000000000025,0.26000000000000006,8,1,4,4,11,1,8,4,3,0,16,7,Lc,0.05363636363636364,0.17,0.05875,0.065
11,18,36,1,4,0.25000000000000006,2,6,83,97,105,33,0.9000000000000004,0.10999999999999999,0.08,0.03,4,2,2,1,11,3,2,1,2,0,12,7,Lc,0.08181818181818182,0.03666666666666667,0.04,0.03
11,19,37,1,5,0.18000000000000002,2,6,6,12,2,5,0.7400000000000003,0.03,0.16,2.4599999999999915,4,1,2,13,11,1,3,26,6,1,72,7,Lc,0.06727272727272728,0.03,0.05333333333333333,0.09461538461538463
11,19,38,1,6,0.6500000000000004,8,11,55,59,14,49,0.8600000000000004,0.22000000000000006,0.26000000000000006,0.02,10,2,2,1,15,3,2,1,4,0.5,30,7,Lc,0.05733333333333333,0.07333333333333333,0.13,0.02
11,20,39,1,3,0.3000000000000001,12,13,40,41,77,21,0.7100000000000003,0.6300000000000003,0.09999999999999999,0.12999999999999998,14,5,2,3,16,5,2,4,5,0,19,7,Lc,0.044375000000000005,0.12600000000000003,0.05,0.0325
11,20,40,1,7,0.24000000000000007,9,10,7,68,12,4,2.1700000000000017,0.05,0.12999999999999998,0.01,20,1,2,1,28,1,2,1,3,0.5,40,7,Lc,0.0775,0.05,0.06499999999999999,0.01
11,21,41,1,9,0.17,3,4,4,5,64,48,2.4299999999999957,0.01,0.01,0.19000000000000003,16,1,1,4,39,1,1,4,4,0,21,7,Lc,0.06230769230769231,0.01,0.01,0.0475
11,21,42,1,4,0.15,2,5,102,16,106,13,0.6100000000000002,0.4000000000000002,0.01,2.389999999999993,4,2,1,11,11,6,1,22,2,0,16,7,Lc,0.05545454545454545,0.06666666666666667,0.01,0.10863636363636366
11,22,43,1,8,0.24000000000000007,4,4,14,119,63,22,1.9700000000000013,0.01,0.02,0.01,14,1,1,1,32,1,1,1,2,0,18,7,Lc,0.0615625,0.01,0.02,0.01
11,22,44,1,3,0.21000000000000005,3,4,79,42,37,107,0.8700000000000004,0.02,0.09999999999999999,0.21000000000000005,5,1,3,1,15,1,3,1,5,0,15,7,Lc,0.058,0.02,0.03333333333333333,0.21000000000000005
12,1,1,0,10,0.25000000000000006,2,8,18,17,95,115,0.7000000000000003,0.9000000000000006,0.03,0.01,6,4,1,1,21,13,1,1,6,0,17,7,Lc,0.03333333333333333,0.06923076923076923,0.03,0.01
12,1,2,0,2,0.24000000000000007,2,10,84,83,46,7,0.7600000000000003,0.08,0.12999999999999998,0.060000000000000005,4,2,2,1,16,3,2,1,3,0,17,7,Lc,0.0475,0.02666666666666667,0.06499999999999999,0.060000000000000005
12,2,3,0,4,0.17,3,5,100,101,6,86,0.5700000000000002,0.23000000000000007,0.17,0.05,5,2,2,1,12,7,6,1,2,0,13,7,Lc,0.0475,0.032857142857142856,0.028333333333333332,0.05
12,2,4,0,2,0.23000000000000007,2,10,83,74,15,33,0.7800000000000004,0.04,0.15,0.09,4,1,2,2,23,1,4,2,3,0,17,7,Lc,0.03391304347826087,0.04,0.0375,0.045
12,3,5,0,7,0.18000000000000002,2,5,96,89,119,71,0.5500000000000002,0.35000000000000014,0.15,0.15,4,2,2,2,8,7,3,3,3,0,12,7,Lc,0.06874999999999999,0.05000000000000001,0.05,0.05
12,3,6,0,5,0.20000000000000004,3,9,8,80,12,81,0.7700000000000004,0.10999999999999999,0.060000000000000005,0.9100000000000006,5,2,2,11,19,2,3,15,6,0,18,7,Lc,0.04052631578947368,0.055,0.02,0.06066666666666667
12,4,7,0,10,0.23000000000000007,2,4,15,14,56,58,0.8500000000000004,0.7700000000000005,0.01,0.09999999999999999,4,5,1,1,14,12,1,1,6,0,20,7,Lc,0.060714285714285714,0.06416666666666666,0.01,0.09999999999999999
12,4,8,0,8,0.3300000000000001,2,8,110,78,113,73,0.8300000000000003,0.12999999999999998,0.10999999999999999,0.05,4,1,2,1,18,1,3,1,2,0,10,7,Lc,0.04611111111111111,0.12999999999999998,0.03666666666666667,0.05
12,5,9,0,7,0.19000000000000003,2,5,87,21,59,60,0.6500000000000002,0.2800000000000001,0.060000000000000005,0.08,7,2,2,2,17,5,3,3,3,0,17,7,Lc,0.03823529411764706,0.056,0.02,0.026666666666666665
12,5,10,0,1,0.18000000000000002,2,5,34,33,74,120,0.4800000000000001,0.21000000000000005,0.13999999999999999,0.09,4,3,3,2,9,4,3,2,5,0,15,7,Lc,0.05333333333333334,0.0525,0.04666666666666667,0.045
12,6,11,0,3,0.18000000000000002,2,3,45,78,98,83,0.5900000000000002,0.25000000000000006,0.11999999999999998,0.060000000000000005,4,2,2,1,13,7,3,1,5,0,13,7,Lc,0.045384615384615384,0.03571428571428571,0.04,0.060000000000000005
12,6,12,0,1,0.26000000000000006,2,4,27,30,86,67,0.8300000000000003,0.13999999999999999,0.02,0.12999999999999998,4,2,1,2,12,4,1,3,5,0,17,7,Lc,0.06916666666666667,0.035,0.02,0.043333333333333335
12,7,13,1,1,0.36000000000000015,2,5,25,76,11,118,0.6600000000000003,0.3100000000000001,0.10999999999999999,0.07,4,2,2,2,9,5,4,3,5,0,16,7,Lc,0.07333333333333333,0.062,0.0275,0.023333333333333334
12,7,14,1,7,0.13999999999999999,2,8,92,95,72,99,0.5600000000000002,0.10999999999999999,0.26000000000000006,0.060000000000000005,4,1,5,2,17,1,5,2,3,0,12,7,Lc,0.03294117647058824,0.10999999999999999,0.052,0.03
12,8,15,1,7,0.23000000000000007,2,9,94,28,88,36,0.7400000000000003,0.08,0.12999999999999998,0.04,5,1,2,2,17,1,4,2,3,0,16,7,Lc,0.04352941176470588,0.08,0.0325,0.02
12,8,16,1,2,0.37000000000000016,8,10,83,5,65,105,1.0600000000000005,0.6800000000000004,0.02,0.07,10,3,2,2,23,14,2,2,3,0,15,7,Lc,0.04608695652173913,0.04857142857142857,0.01,0.035
12,9,17,1,6,0.21000000000000005,2,6,57,12,4,7,0.6400000000000002,0.35000000000000014,0.03,0.04,4,2,1,2,16,8,1,2,4,0.5,40,7,Lc,0.04,0.04375,0.03,0.02
12,9,18,1,3,0.17,3,6,45,48,14,78,0.6500000000000002,0.08,0.09,0.11999999999999998,5,1,2,1,13,1,3,1,5,0,19,7,Lc,0.05,0.08,0.030000000000000002,0.11999999999999998
12,10,19,1,10,0.19000000000000003,2,4,22,52,18,16,0.7300000000000003,0.17,0.07,0.07,4,2,1,2,12,4,1,2,6,0.5,40,7,Lc,0.060833333333333336,0.0425,0.07,0.035
12,10,20,1,9,0.24000000000000007,2,5,72,65,101,43,0.7300000000000003,0.12999999999999998,0.09,0.03,5,2,2,1,23,3,3,1,4,0,15,7,Lc,0.03173913043478261,0.043333333333333335,0.03,0.03
12,11,21,1,6,0.25000000000000006,2,8,52,103,42,3,0.7300000000000003,0.16,0.24000000000000007,0.04,4,4,2,1,19,6,8,1,4,0,17,7,Lc,0.038421052631578946,0.026666666666666665,0.03,0.04
12,11,22,1,7,0.12999999999999998,2,3,89,96,69,64,0.6700000000000003,0.09,0.03,0.09999999999999999,4,2,1,2,12,3,1,4,3,0,14,7,Lc,0.05583333333333333,0.03,0.03,0.025
12,12,23,1,1,0.21000000000000005,2,5,35,106,62,61,0.8000000000000004,0.05,0.060000000000000005,0.03,4,2,1,1,17,3,1,1,5,0,15,7,Lc,0.047058823529411764,0.016666666666666666,0.060000000000000005,0.03
12,12,24,1,5,0.15,2,5,8,9,5,2,0.6200000000000002,0.11999999999999998,0.49000000000000027,0.26000000000000006,4,2,4,5,15,5,10,6,6,1,72,7,Lc,0.04133333333333333,0.024,0.049,0.043333333333333335
12,13,25,1,7,0.19000000000000003,2,5,85,104,10,40,0.6400000000000002,0.16,0.09999999999999999,0.07,4,2,2,2,15,4,4,3,3,0,16,7,Lc,0.042666666666666665,0.039999999999999994,0.025,0.02333333333333333
12,13,26,1,8,0.18000000000000002,2,4,109,74,54,15,0.7100000000000003,0.24000000000000007,0.11999999999999998,0.04,4,3,2,1,18,7,3,1,2,0,15,7,Lc,0.03944444444444444,0.03428571428571428,0.039999999999999994,0.04
12,14,27,1,4,0.19000000000000003,2,5,99,107,103,98,0.8000000000000004,0.02,0.08,0.05,4,1,1,1,16,1,1,1,2,1,24,7,Lc,0.05,0.02,0.08,0.05
12,14,28,1,6,0.3000000000000001,4,6,76,49,112,119,0.8000000000000003,0.07,0.23000000000000007,0.05,6,1,2,2,17,1,5,2,4,0,11,7,Lc,0.047058823529411764,0.07,0.04599999999999999,0.025
12,15,29,1,7,0.22000000000000006,2,6,92,117,120,87,0.5900000000000002,0.2800000000000001,0.07,0.02,4,2,1,1,12,7,1,1,3,0,10,7,Lc,0.049166666666666664,0.04,0.07,0.02
12,15,30,1,10,0.17,2,5,17,22,16,15,0.4800000000000001,0.17,0.2800000000000001,4.9199999999999395,4,1,4,17,9,2,7,99,6,1,72,7,Lc,0.05333333333333334,0.08499999999999999,0.04,0.0496969696969697
12,16,31,1,3,0.19000000000000003,2,4,39,61,102,37,0.8000000000000004,0.15,0.07,0.03,4,1,2,2,16,1,2,2,5,0,16,7,Lc,0.05,0.15,0.035,0.015
12,16,32,1,8,0.2700000000000001,2,7,118,88,89,96,0.6700000000000003,0.20000000000000004,0.05,0.13999999999999999,4,2,1,2,13,5,1,3,2,0.5,20,7,Lc,0.05153846153846154,0.04,0.05,0.04666666666666667
12,17,33,1,4,0.23000000000000007,2,6,98,52,101,6,0.7400000000000003,0.13999999999999999,0.04,0.060000000000000005,5,2,1,2,11,2,1,3,2,0,14,7,Lc,0.06727272727272728,0.06999999999999999,0.04,0.02
12,17,34,1,3,0.21000000000000005,2,5,44,43,41,118,0.7000000000000003,0.11999999999999998,0.11999999999999998,0.21000000000000005,4,2,3,2,12,3,6,3,5,0.5,32,7,Lc,0.058333333333333334,0.04,0.02,0.06999999999999999
12,18,35,1,1,0.16,2,6,30,5,36,12,0.5600000000000002,0.15,0.060000000000000005,0.04,4,2,2,1,20,3,2,1,5,0,22,7,Lc,0.028,0.05,0.030000000000000002,0.04
12,18,36,1,6,0.20000000000000004,2,9,50,37,55,40,0.7800000000000004,0.15,0.04,0.16,8,2,1,2,26,2,1,2,4,0,18,7,Lc,0.03,0.07499999999999998,0.04,0.07999999999999999
12,19,37,1,10,0.18000000000000002,2,5,19,23,64,14,0.6200000000000002,0.060000000000000005,0.38000000000000017,0.03,4,1,5,2,10,1,8,2,6,0.5,40,7,Lc,0.062000000000000006,0.060000000000000005,0.04750000000000001,0.015
