Subject,Round,Phase,afterbreak,Schema,Schema_RT,Schema_OB,Schema_AS,Cho_1,Cho_2,Cho_3,Cho_4,RT_1,RT_2,RT_3,RT_4,OB_1,OB_2,OB_3,OB_4,AS_1,AS_2,AS_3,AS_4,schema_payoff,AC,performance,breakR,type,dwellmean_1,dwellmean_2,dwellmean_3,dwellmean_4
1,1,1,0,3,0.5500000000000003,2,7,44,8,76,113,1.720000000000001,0.2800000000000001,0.8600000000000005,0.18000000000000002,4,1,2,1,10,1,3,1,5,0,16,7,Lc,0.17200000000000004,0.2800000000000001,0.28666666666666674,0.18000000000000002
1,1,2,0,10,0.8200000000000005,2,5,104,52,34,98,2.1200000000000014,0.8000000000000005,1.9200000000000015,0.4200000000000002,4,2,5,1,12,5,10,1,6,0,13,7,Lc,0.1766666666666667,0.16000000000000003,0.19200000000000006,0.4200000000000002
1,2,3,0,6,0.35000000000000014,2,3,60,22,51,49,1.3500000000000008,0.36000000000000015,0.2700000000000001,0.25000000000000006,5,1,1,1,9,1,1,1,4,0.5,30,7,Lc,0.15000000000000002,0.36000000000000015,0.2700000000000001,0.25000000000000006
1,2,4,0,3,0.9900000000000007,5,8,48,42,12,4,1.710000000000001,0.48000000000000026,0.20000000000000004,1.7600000000000013,6,1,1,4,9,1,1,5,5,0,22,7,Lc,0.19000000000000006,0.48000000000000026,0.20000000000000004,0.35200000000000015
1,3,5,0,6,0.34000000000000014,2,3,56,5,113,83,1.3200000000000007,0.9400000000000006,0.4100000000000002,0.48000000000000026,5,2,2,2,11,5,3,3,4,0,15,7,Lc,0.12000000000000002,0.18800000000000006,0.13666666666666666,0.16
1,3,6,0,10,0.4000000000000002,2,3,21,17,29,104,1.0300000000000005,2.8799999999999826,0.13999999999999999,2.809999999999984,3,7,2,7,4,11,2,14,6,0,19,7,Lc,0.25750000000000006,0.26181818181818195,0.06999999999999999,0.20071428571428576
1,4,7,0,1,0.3200000000000001,2,3,30,3,6,53,1.4200000000000008,0.8100000000000005,0.23000000000000007,0.16,4,2,2,1,9,3,2,1,5,0,21,7,Lc,0.1577777777777778,0.2700000000000001,0.11500000000000003,0.16
1,4,8,0,9,0.2900000000000001,2,3,67,18,37,62,1.1900000000000006,0.4300000000000002,0.4400000000000002,0.12999999999999998,4,1,2,1,5,1,2,1,4,0,19,7,Lc,0.23800000000000007,0.4300000000000002,0.22000000000000003,0.12999999999999998
1,5,9,0,2,0.4000000000000002,2,3,58,119,56,81,2.4000000000000017,0.3200000000000001,0.18000000000000002,0.12999999999999998,5,2,1,2,13,2,1,2,3,0,13,7,Lc,0.18461538461538465,0.16000000000000003,0.18000000000000002,0.065
1,5,10,0,9,0.3100000000000001,2,4,69,27,21,32,0.7900000000000004,0.9000000000000006,0.34000000000000014,0.5800000000000003,4,2,1,2,6,4,1,2,4,0,20,7,Lc,0.1316666666666667,0.22500000000000006,0.34000000000000014,0.2900000000000001
1,6,11,0,10,0.34000000000000014,2,4,17,14,13,21,1.4500000000000008,0.47000000000000025,0.22000000000000006,0.19000000000000003,5,2,1,1,13,2,1,1,6,1,72,7,Lc,0.11153846153846156,0.23500000000000004,0.22000000000000006,0.19000000000000003
1,6,12,0,9,0.24000000000000007,2,3,44,102,76,83,1.2600000000000007,0.7800000000000005,0.2900000000000001,0.35000000000000014,4,2,1,2,6,7,1,3,4,0,13,7,Lc,0.21000000000000008,0.11142857142857145,0.2900000000000001,0.11666666666666667
1,7,13,1,7,0.3200000000000001,2,3,92,107,100,98,0.9200000000000004,1.6500000000000012,1.8800000000000014,1.9100000000000015,4,3,3,6,5,7,8,10,3,0.5,15,7,Lc,0.18400000000000005,0.2357142857142858,0.2350000000000001,0.1910000000000001
1,7,14,1,8,0.4400000000000002,2,3,118,59,5,79,0.9200000000000005,1.7200000000000013,0.22000000000000006,0.24000000000000007,4,4,1,1,5,7,1,1,2,0,15,7,Lc,0.18400000000000002,0.2457142857142858,0.22000000000000006,0.24000000000000007
1,8,15,1,4,0.5500000000000003,2,4,103,28,29,71,1.2500000000000007,0.7800000000000005,0.9000000000000006,0.36000000000000015,4,2,2,1,6,3,3,1,2,0,16,7,Lc,0.2083333333333334,0.2600000000000001,0.30000000000000016,0.36000000000000015
1,8,16,1,7,0.6400000000000003,8,10,89,23,55,94,1.9100000000000013,0.3300000000000001,0.8200000000000005,0.09,10,2,3,1,16,2,4,1,3,0,16,7,Lc,0.11937500000000002,0.16500000000000004,0.20500000000000007,0.09
1,9,17,1,5,0.21000000000000005,1,2,113,61,109,69,3.859999999999966,0.2700000000000001,0.23000000000000007,0.11999999999999998,9,1,2,1,13,1,2,1,6,0,12,7,Lc,0.29692307692307707,0.2700000000000001,0.11499999999999999,0.11999999999999998
1,9,18,1,4,0.5000000000000002,2,3,75,59,17,105,1.670000000000001,1.7000000000000013,0.15,0.11999999999999998,5,3,1,2,8,8,1,2,2,0,15,7,Lc,0.20875000000000007,0.21250000000000008,0.15,0.060000000000000005
1,10,19,1,5,0.6300000000000003,2,7,41,1,3,91,3.359999999999986,0.16,2.949999999999981,0.03,8,2,7,1,17,2,11,1,6,0,20,7,Lc,0.19764705882352948,0.08,0.2681818181818183,0.03
1,10,20,1,9,0.45000000000000023,3,7,62,16,64,77,1.1700000000000006,2.389999999999993,0.060000000000000005,0.3000000000000001,5,4,1,1,9,4,1,1,4,0,17,7,Lc,0.13000000000000003,0.5975000000000004,0.060000000000000005,0.3000000000000001
1,11,21,1,7,0.2700000000000001,2,3,94,24,111,22,1.4000000000000008,1.480000000000001,0.21000000000000005,0.5600000000000003,4,5,1,2,7,7,1,2,3,0,17,7,Lc,0.20000000000000007,0.2114285714285715,0.21000000000000005,0.2800000000000001
1,11,22,1,2,0.5700000000000003,2,3,78,77,79,8,1.8400000000000012,0.9200000000000006,0.21000000000000005,0.09999999999999999,5,2,1,1,6,4,1,1,3,0.5,24,7,Lc,0.3066666666666668,0.2300000000000001,0.21000000000000005,0.09999999999999999
1,12,23,1,7,0.4200000000000002,2,3,90,65,64,88,2.0100000000000016,1.0000000000000007,0.8600000000000005,0.09,7,4,3,2,9,6,3,2,3,0,14,7,Lc,0.22333333333333338,0.1666666666666667,0.2866666666666668,0.045
1,12,24,1,10,0.45000000000000023,3,5,16,74,103,83,1.3000000000000007,0.9200000000000006,0.48000000000000026,0.7800000000000005,5,4,2,2,8,6,2,3,6,0,14,7,Lc,0.16250000000000003,0.15333333333333338,0.24000000000000005,0.2600000000000001
1,13,25,1,8,0.3000000000000001,2,3,110,76,115,17,1.4000000000000008,0.5100000000000002,0.5800000000000003,0.23000000000000007,4,2,5,1,6,2,5,1,2,0,13,7,Lc,0.23333333333333342,0.25500000000000006,0.11600000000000002,0.23000000000000007
1,13,26,1,7,0.35000000000000014,2,3,90,95,46,61,0.9900000000000004,1.330000000000001,0.34000000000000014,0.5000000000000002,4,3,1,2,6,8,1,2,3,0,15,7,Lc,0.16500000000000004,0.16625000000000004,0.34000000000000014,0.25000000000000006
1,14,27,1,7,0.26000000000000006,1,2,91,100,107,2,2.0800000000000014,0.5100000000000002,0.6300000000000003,0.34000000000000014,4,2,3,2,7,3,3,2,3,0,13,7,Lc,0.29714285714285726,0.17000000000000004,0.21000000000000008,0.17000000000000004
1,14,28,1,2,0.3300000000000001,2,3,84,45,74,46,0.7400000000000003,1.490000000000001,0.22000000000000006,0.5200000000000002,4,3,2,2,5,5,2,3,3,0,16,7,Lc,0.14800000000000005,0.2980000000000001,0.11,0.17333333333333334
1,15,29,1,9,0.4100000000000002,2,4,61,105,91,67,1.7700000000000011,1.1500000000000008,0.4100000000000002,0.20000000000000004,4,3,3,2,12,5,3,2,4,0,13,7,Lc,0.14750000000000002,0.23000000000000007,0.1366666666666667,0.09999999999999999
1,15,30,1,2,0.7400000000000004,9,10,77,13,112,21,2.4800000000000018,2.0400000000000005,4.559999999999947,6.829999999999899,14,5,6,15,15,8,15,24,3,0,17,7,Lc,0.1653333333333334,0.25500000000000006,0.30400000000000016,0.28458333333333347
1,16,31,1,6,0.2700000000000001,2,3,50,56,103,10,1.2000000000000006,0.46000000000000024,1.1900000000000008,0.4200000000000002,4,2,5,1,7,2,8,1,4,0,16,7,Lc,0.17142857142857146,0.23000000000000004,0.14875000000000002,0.4200000000000002
1,16,32,1,1,0.4300000000000002,4,5,32,33,86,28,1.1100000000000005,0.47000000000000025,0.25000000000000006,0.22000000000000006,6,2,2,2,8,3,2,2,5,0.5,33,7,Lc,0.13875,0.1566666666666667,0.12500000000000003,0.11000000000000001
1,17,33,1,1,0.6100000000000003,11,11,84,97,63,64,3.339999999999986,2.0300000000000007,1.8200000000000014,0.02,15,5,4,1,20,6,5,1,5,0,13,7,Lc,0.16700000000000007,0.3383333333333335,0.3640000000000002,0.02
1,17,34,1,8,0.4000000000000002,2,4,13,39,119,41,2.370000000000002,0.37000000000000016,0.2900000000000001,0.10999999999999999,6,2,2,1,10,2,2,1,2,0,18,7,Lc,0.2370000000000001,0.18500000000000003,0.14500000000000002,0.10999999999999999
1,18,35,1,6,0.5200000000000002,4,5,10,3,52,103,1.720000000000001,0.24000000000000007,2.239999999999996,0.13999999999999999,7,1,6,1,10,1,9,1,4,0,18,7,Lc,0.17200000000000004,0.24000000000000007,0.248888888888889,0.13999999999999999
1,18,36,1,10,0.5100000000000002,2,5,21,19,90,47,0.8800000000000003,8.139999999999871,0.02,0.01,4,16,1,1,7,38,1,1,6,0,20,7,Lc,0.12571428571428575,0.21421052631578955,0.02,0.01
1,19,37,1,7,0.5700000000000003,7,7,111,109,51,96,3.029999999999992,3.9599999999999596,0.49000000000000027,0.01,13,8,3,1,15,22,4,1,3,0,11,7,Lc,0.20200000000000007,0.18000000000000005,0.12250000000000003,0.01
1,19,38,1,1,0.26000000000000006,2,3,6,29,34,108,1.7700000000000011,0.3200000000000001,0.17,0.25000000000000006,4,2,2,2,7,2,3,2,5,0,18,7,Lc,0.25285714285714295,0.16000000000000003,0.05666666666666667,0.12500000000000003
1,20,39,1,1,0.3000000000000001,2,3,53,99,86,54,1.9500000000000013,0.5400000000000003,0.26000000000000006,0.10999999999999999,5,2,1,1,8,2,1,1,5,0,13,7,Lc,0.24375000000000008,0.2700000000000001,0.26000000000000006,0.10999999999999999
1,20,40,1,5,0.7500000000000004,2,3,47,39,76,5,2.660000000000002,0.5200000000000002,2.239999999999996,1.310000000000001,7,2,4,4,14,2,8,4,6,0,19,7,Lc,0.19000000000000006,0.26000000000000006,0.2800000000000001,0.3275000000000002
1,21,41,1,3,0.5500000000000003,2,5,9,44,1,3,1.3300000000000007,0.48000000000000026,0.17,0.18000000000000002,4,2,1,2,8,3,1,2,5,0.5,41,7,Lc,0.16625000000000004,0.16000000000000003,0.17,0.09
1,21,42,1,8,0.3900000000000002,2,3,110,115,50,73,2.0700000000000016,0.18000000000000002,0.13999999999999999,0.37000000000000016,4,1,1,2,11,2,1,2,2,0,11,7,Lc,0.18818181818181823,0.09,0.13999999999999999,0.18500000000000003
1,22,43,1,9,0.46000000000000024,2,6,67,62,79,61,1.1100000000000005,0.6900000000000004,0.37000000000000016,0.13999999999999999,4,2,1,1,10,3,2,1,4,0.5,27,7,Lc,0.11100000000000002,0.23000000000000007,0.18500000000000005,0.13999999999999999
1,22,44,1,7,0.4100000000000002,2,3,55,92,23,20,1.720000000000001,0.22000000000000006,0.7800000000000005,0.3200000000000001,4,1,2,4,8,1,3,5,3,0,19,7,Lc,0.21500000000000005,0.22000000000000006,0.2600000000000001,0.064
2,1,1,0,8,0.38000000000000017,2,6,118,17,91,30,1.1500000000000006,0.7700000000000005,0.05,0.07,5,4,1,2,10,4,1,2,2,0,16,7,Lc,0.11500000000000002,0.1925000000000001,0.05,0.035
2,1,2,0,5,0.3200000000000001,2,3,102,6,78,101,0.9100000000000004,0.12999999999999998,0.3000000000000001,0.35000000000000014,4,1,2,2,6,1,2,4,6,0,13,7,Lc,0.1516666666666667,0.12999999999999998,0.15000000000000005,0.0875
2,2,3,0,1,0.34000000000000014,2,3,25,84,27,107,0.9700000000000004,0.21000000000000005,0.20000000000000004,0.3200000000000001,4,1,2,2,6,1,2,3,5,0,15,7,Lc,0.1616666666666667,0.21000000000000005,0.09999999999999999,0.10666666666666666
2,2,4,0,7,0.3200000000000001,2,3,116,56,44,50,1.2400000000000007,0.3200000000000001,0.09999999999999999,0.25000000000000006,4,2,1,1,7,2,1,1,3,0,15,7,Lc,0.17714285714285719,0.16000000000000003,0.09999999999999999,0.25000000000000006
2,3,5,0,9,0.3200000000000001,2,5,48,62,119,16,1.0700000000000005,0.060000000000000005,0.3200000000000001,0.09999999999999999,5,1,1,2,8,1,1,2,4,0,17,7,Lc,0.13375000000000004,0.060000000000000005,0.3200000000000001,0.05
2,3,6,0,7,0.5700000000000003,10,11,12,106,49,94,1.0300000000000005,0.47000000000000025,0.17,0.02,11,2,1,1,12,2,1,1,3,0,15,7,Lc,0.08583333333333336,0.23500000000000007,0.17,0.02
2,4,7,0,2,0.12999999999999998,2,2,13,68,21,79,10.20999999999983,0.01,0.01,0.01,15,1,1,1,21,1,1,1,3,0,19,7,Lc,0.48619047619047645,0.01,0.01,0.01
2,4,8,0,5,0.3300000000000001,2,4,2,59,9,94,0.7200000000000003,0.5100000000000002,0.08,0.3100000000000001,4,1,1,1,6,1,1,1,6,0,19,7,Lc,0.12000000000000002,0.5100000000000002,0.08,0.3100000000000001
2,5,9,0,7,0.5500000000000003,2,3,51,50,92,22,1.3900000000000008,0.13999999999999999,0.5500000000000003,0.01,4,1,5,1,6,1,5,1,3,0,17,7,Lc,0.23166666666666674,0.13999999999999999,0.11000000000000003,0.01
2,5,10,0,4,0.4400000000000002,9,11,99,98,83,72,0.7400000000000003,0.23000000000000007,0.6200000000000003,0.10999999999999999,10,1,4,2,12,1,4,2,2,0,11,7,Lc,0.061666666666666675,0.23000000000000007,0.15500000000000003,0.055
2,6,11,0,9,0.36000000000000015,8,8,67,69,118,110,0.7400000000000003,0.36000000000000015,0.8900000000000006,1.9700000000000015,9,2,3,2,9,3,3,2,4,0,12,7,Lc,0.08222222222222224,0.12000000000000002,0.29666666666666675,0.9850000000000008
2,6,12,0,7,0.3900000000000002,4,4,100,108,34,54,5.189999999999943,0.01,0.01,0.01,16,1,1,1,20,1,1,1,3,0,13,7,Lc,0.2595000000000001,0.01,0.01,0.01
2,7,13,1,3,0.4200000000000002,7,8,16,22,42,21,1.4100000000000008,0.09999999999999999,0.03,0.2900000000000001,10,2,1,2,14,3,1,2,5,0.5,41,7,Lc,0.10071428571428574,0.03333333333333333,0.03,0.14500000000000005
2,7,14,1,8,0.3100000000000001,2,4,113,6,96,52,0.8200000000000003,0.4200000000000002,0.16,0.26000000000000006,4,1,1,2,6,1,2,2,2,0,15,7,Lc,0.1366666666666667,0.4200000000000002,0.08,0.13000000000000003
2,8,15,1,9,0.3200000000000001,9,10,6,72,63,73,1.7700000000000011,0.01,0.18000000000000002,3.46999999999997,12,1,3,7,13,1,3,7,4,0,17,7,Lc,0.13615384615384624,0.01,0.06,0.49571428571428494
2,8,16,1,7,0.3000000000000001,2,4,60,13,54,46,2.0900000000000016,0.21000000000000005,0.07,0.04,5,1,2,1,8,1,2,1,3,0,19,7,Lc,0.26125000000000015,0.21000000000000005,0.035,0.04
2,9,17,1,7,0.4100000000000002,2,4,91,64,66,21,0.8700000000000004,0.46000000000000024,0.25000000000000006,1.280000000000001,3,2,2,2,5,2,2,2,3,0,17,7,Lc,0.17400000000000004,0.23000000000000004,0.12500000000000003,0.6400000000000005
2,9,18,1,8,0.49000000000000027,2,5,74,114,117,55,0.9000000000000005,0.38000000000000017,0.3900000000000002,0.05,3,2,3,1,6,2,5,1,2,0,11,7,Lc,0.15000000000000002,0.19000000000000009,0.078,0.05
2,10,19,1,2,0.6300000000000003,12,15,21,16,75,18,1.520000000000001,0.09999999999999999,1.430000000000001,0.01,16,1,3,1,19,1,3,1,3,0.5,39,7,Lc,0.08000000000000002,0.09999999999999999,0.47666666666666696,0.01
2,10,20,1,7,0.34000000000000014,2,4,91,88,113,72,1.1000000000000005,0.4100000000000002,0.04,0.07,5,3,2,1,7,5,2,1,3,0,12,7,Lc,0.1571428571428572,0.08200000000000002,0.02,0.07
2,11,21,1,10,0.23000000000000007,3,3,14,22,47,45,0.9600000000000005,0.20000000000000004,1.0600000000000007,0.01,5,1,5,1,6,1,5,1,6,0,22,7,Lc,0.16000000000000006,0.20000000000000004,0.21200000000000005,0.01
2,11,22,1,5,0.22000000000000006,2,4,5,112,4,117,0.6400000000000002,0.7800000000000005,2.0300000000000007,0.01,5,2,9,1,8,6,12,1,6,0,16,7,Lc,0.08,0.13,0.16916666666666672,0.01
2,12,23,1,1,0.5900000000000003,15,16,34,30,72,112,1.1300000000000006,6.359999999999909,11.829999999999792,2.9899999999999802,16,7,16,8,17,9,33,9,5,0,16,7,Lc,0.06647058823529413,0.7066666666666671,0.35848484848484863,0.33222222222222236
2,12,24,1,2,4.119999999999957,6,13,17,79,104,51,4.889999999999957,0.13999999999999999,0.02,0.08,7,2,1,1,14,2,1,1,3,0,15,7,Lc,0.3492857142857145,0.06999999999999999,0.02,0.08
2,13,25,1,10,3.379999999999972,10,19,24,78,104,79,3.659999999999972,1.2100000000000009,2.149999999999998,1.2500000000000009,12,6,6,5,21,7,6,5,6,0,14,7,Lc,0.17428571428571435,0.1728571428571429,0.3583333333333335,0.2500000000000001
2,13,26,1,7,0.060000000000000005,2,2,91,46,111,89,182.95999999997863,0.5100000000000002,0.01,0.01,20,2,1,1,463,2,1,1,3,0,13,7,Lc,0.3951619870410369,0.2550000000000001,0.01,0.01
2,14,27,1,4,0.16,2,3,81,101,108,61,0.9400000000000005,0.3000000000000001,1.0600000000000007,0.03,4,2,3,1,5,2,4,1,2,0,11,7,Lc,0.18800000000000006,0.15000000000000002,0.2650000000000002,0.03
2,14,28,1,10,0.3000000000000001,2,3,20,89,51,46,0.7500000000000003,0.3200000000000001,0.3200000000000001,0.8600000000000005,4,2,2,3,5,2,3,3,6,0,18,7,Lc,0.15000000000000002,0.16000000000000006,0.10666666666666667,0.2866666666666668
2,15,29,1,9,0.37000000000000016,6,7,63,92,64,93,0.9300000000000004,0.10999999999999999,0.2800000000000001,0.05,8,1,2,1,9,1,3,1,4,0,14,7,Lc,0.10333333333333336,0.10999999999999999,0.09333333333333334,0.05
2,15,30,1,5,0.26000000000000006,2,4,4,3,8,56,0.5800000000000002,10.819999999999814,24.990000000001107,0.2700000000000001,3,15,18,2,5,31,62,2,6,0.5,40,7,Lc,0.11600000000000002,0.34903225806451627,0.4030645161290323,0.13500000000000004
2,16,31,1,6,0.25000000000000006,2,5,58,100,73,101,1.1600000000000006,0.11999999999999998,0.07,0.20000000000000004,5,1,1,2,8,1,1,3,4,0,11,7,Lc,0.14500000000000005,0.11999999999999998,0.07,0.06666666666666665
2,16,32,1,8,2.3799999999999932,7,12,65,16,96,109,2.7899999999999934,12.119999999999786,2.819999999999984,0.01,10,16,4,1,15,30,4,1,2,0,15,7,Lc,0.18600000000000008,0.4040000000000002,0.7050000000000004,0.01
2,17,33,1,4,0.12999999999999998,2,2,14,75,97,59,24.76000000000105,0.13999999999999999,0.01,0.02,20,1,1,1,60,1,1,1,2,0,15,7,Lc,0.4126666666666666,0.13999999999999999,0.01,0.02
2,17,34,1,8,0.4000000000000002,3,4,96,119,10,114,1.0800000000000005,0.19000000000000003,0.09999999999999999,0.07,5,1,1,1,6,1,1,1,2,0,13,7,Lc,0.18000000000000005,0.19000000000000003,0.09999999999999999,0.07
2,18,35,1,8,0.3200000000000001,2,3,110,93,52,40,0.8900000000000003,0.23000000000000007,0.21000000000000005,0.10999999999999999,5,1,2,1,7,1,2,1,2,0,14,7,Lc,0.12714285714285714,0.23000000000000007,0.10500000000000001,0.10999999999999999
2,18,36,1,2,0.5200000000000002,6,8,10,105,6,102,1.3100000000000007,0.09,0.12999999999999998,0.03,10,1,2,1,15,1,2,1,3,0,16,7,Lc,0.08733333333333335,0.09,0.065,0.03
2,19,37,1,5,0.5800000000000003,2,4,8,107,12,108,1.2900000000000007,0.18000000000000002,0.19000000000000003,0.7200000000000004,6,1,3,2,8,1,4,3,6,0,16,7,Lc,0.16125000000000003,0.18000000000000002,0.0475,0.24000000000000013
2,19,38,1,1,0.38000000000000017,3,7,25,110,58,20,0.8500000000000004,0.24000000000000007,0.20000000000000004,0.09999999999999999,5,1,1,1,9,1,1,1,5,0,17,7,Lc,0.09444444444444446,0.24000000000000007,0.20000000000000004,0.09999999999999999
2,20,39,1,5,0.25000000000000006,2,3,6,89,52,106,0.6600000000000003,0.4400000000000002,0.6900000000000004,0.21000000000000005,4,2,3,1,5,4,3,1,6,0,15,7,Lc,0.13200000000000003,0.11000000000000001,0.23000000000000012,0.21000000000000005
2,20,40,1,10,0.24000000000000007,2,3,118,15,113,79,1.2600000000000007,0.11999999999999998,0.6300000000000003,0.17,5,2,2,2,6,2,2,2,6,0,13,7,Lc,0.21000000000000008,0.06,0.31500000000000017,0.085
3,1,1,0,9,0.34000000000000014,2,3,112,66,83,67,4.659999999999952,1.7500000000000013,0.6700000000000004,0.21000000000000005,6,3,1,1,8,3,1,1,4,0,13,7,Lc,0.5825000000000004,0.5833333333333337,0.6700000000000004,0.21000000000000005
3,1,2,0,5,1.420000000000001,2,7,10,37,46,44,9.569999999999872,0.16,0.5800000000000003,0.6800000000000004,7,1,2,2,18,1,3,2,6,0.5,36,7,Lc,0.531666666666667,0.16,0.19333333333333336,0.34000000000000014
3,2,3,0,9,0.3000000000000001,2,3,3,109,113,68,5.089999999999942,0.6300000000000003,0.5300000000000002,2.0300000000000007,6,1,1,2,11,1,1,2,4,0,14,7,Lc,0.462727272727273,0.6300000000000003,0.5300000000000002,1.0150000000000008
3,2,4,0,4,0.6000000000000003,2,4,15,17,49,76,3.1199999999999903,13.35999999999976,0.02,0.01,3,12,1,1,6,26,1,1,2,0,19,7,Lc,0.5200000000000004,0.5138461538461542,0.02,0.01
3,3,5,0,7,0.4100000000000002,3,4,3,46,85,54,4.84999999999995,1.0500000000000007,0.2900000000000001,0.6000000000000003,7,1,1,1,9,1,1,1,3,0,18,7,Lc,0.5388888888888892,1.0500000000000007,0.2900000000000001,0.6000000000000003
3,3,6,0,9,0.45000000000000023,2,3,36,79,18,13,4.88999999999995,1.0000000000000007,1.0200000000000007,0.34000000000000014,6,2,2,2,11,2,3,2,4,0,20,7,Lc,0.4445454545454548,0.5000000000000002,0.34000000000000014,0.17000000000000007
3,4,7,0,4,0.4200000000000002,2,3,66,92,89,20,6.319999999999919,1.1200000000000008,0.7700000000000005,0.18000000000000002,5,1,1,1,11,1,1,1,2,0,16,7,Lc,0.5745454545454549,1.1200000000000008,0.7700000000000005,0.18000000000000002
3,4,8,0,2,0.9500000000000006,2,5,115,55,116,28,6.209999999999933,1.370000000000001,0.37000000000000016,0.3300000000000001,6,2,1,2,16,7,1,3,3,0,13,7,Lc,0.3881250000000002,0.19571428571428576,0.37000000000000016,0.11000000000000003
3,5,9,0,1,0.6300000000000003,2,4,73,97,53,108,5.859999999999934,1.2000000000000008,0.45000000000000023,0.45000000000000023,6,2,1,1,21,2,1,1,5,0,11,7,Lc,0.27904761904761916,0.6000000000000003,0.45000000000000023,0.45000000000000023
3,5,10,0,7,0.7100000000000004,7,7,14,88,65,48,15.46999999999973,0.01,0.01,0.15,15,1,1,1,34,1,1,1,3,0,18,7,Lc,0.45500000000000024,0.01,0.01,0.15
3,6,11,0,9,0.7800000000000005,2,4,62,107,34,91,5.70999999999994,2.3199999999999945,0.2800000000000001,0.2900000000000001,5,2,1,2,16,7,1,3,4,0,14,7,Lc,0.35687500000000016,0.33142857142857157,0.2800000000000001,0.09666666666666669
3,6,12,0,3,0.5700000000000003,2,3,47,46,74,55,4.019999999999971,2.4599999999999915,0.5800000000000003,1.0300000000000007,5,2,2,2,11,7,5,4,5,0,17,7,Lc,0.36545454545454564,0.3514285714285716,0.11600000000000002,0.2575000000000001
3,7,13,1,1,0.46000000000000024,2,4,36,26,97,67,2.55,4.1699999999999555,1.0200000000000007,0.7800000000000005,4,5,2,2,7,10,2,2,5,0,16,7,Lc,0.3642857142857145,0.4170000000000002,0.5100000000000002,0.3900000000000002
3,7,14,1,5,0.8100000000000005,3,5,112,51,8,53,4.169999999999973,1.340000000000001,0.8700000000000006,0.5100000000000002,5,2,2,2,8,2,2,2,6,0,16,7,Lc,0.5212500000000003,0.6700000000000004,0.4350000000000002,0.25500000000000006
3,8,15,1,4,0.6000000000000003,3,5,99,86,57,48,2.3600000000000017,2.149999999999998,0.9500000000000006,0.8800000000000006,5,2,2,2,7,3,2,3,2,0,14,7,Lc,0.33714285714285736,0.7166666666666671,0.4750000000000002,0.29333333333333345
3,8,16,1,8,0.5500000000000003,2,3,119,30,73,79,6.759999999999913,1.480000000000001,0.35000000000000014,0.2800000000000001,5,2,2,2,18,3,2,2,2,0,13,7,Lc,0.37555555555555575,0.49333333333333357,0.17500000000000002,0.14
3,9,17,1,6,0.9400000000000006,3,4,76,73,74,50,5.419999999999949,1.6000000000000012,1.450000000000001,0.3100000000000001,5,2,2,1,9,4,5,1,4,0.5,22,7,Lc,0.6022222222222227,0.4000000000000002,0.2900000000000001,0.3100000000000001
3,9,18,1,1,0.37000000000000016,2,4,94,31,93,88,4.34999999999996,1.8900000000000015,1.2200000000000009,0.3100000000000001,5,4,2,1,10,7,4,1,5,0.5,23,7,Lc,0.4350000000000003,0.27000000000000013,0.3050000000000001,0.3100000000000001
3,10,19,1,10,0.4400000000000002,2,4,65,21,61,32,7.039999999999904,0.16,1.8700000000000014,1.8000000000000014,7,1,3,3,17,1,3,4,6,0,19,7,Lc,0.41411764705882376,0.16,0.6233333333333337,0.45000000000000023
3,10,20,1,7,0.38000000000000017,2,3,88,56,52,105,5.089999999999944,0.3900000000000002,1.0100000000000007,2.3199999999999945,6,1,3,4,15,1,4,5,3,0,13,7,Lc,0.3393333333333335,0.3900000000000002,0.25250000000000006,0.46400000000000025
3,11,21,1,8,0.2800000000000001,2,3,112,119,7,68,2.3400000000000003,1.8600000000000014,14.75999999999973,0.01,4,2,9,1,6,2,31,1,2,0,14,7,Lc,0.39000000000000024,0.9300000000000006,0.4761290322580648,0.01
3,11,22,1,4,0.4400000000000002,2,4,100,82,50,106,4.609999999999956,1.5200000000000011,1.0300000000000007,0.5700000000000003,6,2,2,2,16,3,3,2,2,0,11,7,Lc,0.28812500000000013,0.5066666666666669,0.3433333333333335,0.2850000000000001
3,12,23,1,6,0.3900000000000002,2,3,22,36,81,18,7.819999999999887,0.9300000000000006,0.09999999999999999,0.5400000000000003,8,2,1,1,19,3,1,1,4,0,20,7,Lc,0.41157894736842127,0.3100000000000001,0.09999999999999999,0.5400000000000003
3,12,24,1,4,0.5800000000000003,2,4,105,107,87,67,3.649999999999979,2.52999999999999,0.7800000000000005,1.2200000000000009,4,2,2,2,7,7,4,6,2,0,11,7,Lc,0.5214285714285716,0.3614285714285716,0.19500000000000006,0.2033333333333334
3,13,25,1,6,0.4100000000000002,2,5,100,34,108,51,3.9199999999999693,1.6600000000000013,1.0700000000000007,0.46000000000000024,5,3,2,2,8,5,3,2,4,0,13,7,Lc,0.4900000000000003,0.3320000000000002,0.3566666666666668,0.23000000000000004
3,13,26,1,10,0.7000000000000004,3,4,87,69,20,23,4.029999999999974,1.410000000000001,0.6400000000000003,0.5200000000000002,6,3,2,2,11,3,2,2,6,0,19,7,Lc,0.36636363636363656,0.47000000000000025,0.3200000000000002,0.2600000000000001
3,14,27,1,9,0.5700000000000003,3,4,61,38,24,68,3.6899999999999777,3.2599999999999745,0.3900000000000002,0.47000000000000025,5,2,1,2,13,4,1,2,4,0,19,7,Lc,0.28384615384615397,0.8150000000000005,0.3900000000000002,0.23500000000000004
3,14,28,1,7,0.5800000000000003,2,6,87,26,57,59,5.359999999999943,1.400000000000001,0.48000000000000026,2.439999999999992,7,2,2,3,21,2,2,4,3,0,16,7,Lc,0.2552380952380953,0.7000000000000004,0.24000000000000005,0.6100000000000004
3,15,29,1,3,0.5900000000000003,2,5,39,21,114,53,3.5699999999999807,2.2799999999999954,1.0000000000000007,0.5000000000000002,5,2,2,2,10,4,5,2,5,0,17,7,Lc,0.35700000000000015,0.5700000000000003,0.20000000000000007,0.2500000000000001
3,15,30,1,4,0.3100000000000001,2,3,97,65,34,67,3.399999999999978,2.3699999999999934,1.300000000000001,0.17,4,2,2,1,13,7,7,1,2,0,15,7,Lc,0.26153846153846166,0.3385714285714287,0.18571428571428578,0.17
3,16,31,1,8,0.5500000000000003,4,4,63,116,117,109,16.959999999999766,1.340000000000001,0.01,0.8000000000000005,17,3,1,2,33,3,1,2,2,0.5,16,7,Lc,0.5139393939393941,0.44666666666666693,0.01,0.40000000000000024
3,16,32,1,6,1.390000000000001,5,9,55,23,26,74,6.8999999999999275,2.5499999999999896,13.429999999999758,1.5500000000000012,9,3,8,4,17,5,15,4,4,0,18,7,Lc,0.4058823529411767,0.5100000000000003,0.8953333333333305,0.3875000000000002
3,17,33,1,8,1.460000000000001,7,9,58,29,55,76,5.309999999999963,0.6500000000000004,1.7900000000000014,0.48000000000000026,9,1,2,1,13,1,4,1,2,0,16,7,Lc,0.40846153846153865,0.6500000000000004,0.44750000000000023,0.48000000000000026
3,17,34,1,3,0.4400000000000002,2,3,101,38,41,61,4.969999999999948,0.8700000000000006,0.8000000000000005,1.1000000000000008,4,2,2,2,16,4,4,3,5,0,16,7,Lc,0.31062500000000015,0.21750000000000008,0.20000000000000004,0.3666666666666668
3,18,35,1,2,0.5000000000000002,2,3,71,28,77,25,4.569999999999958,1.400000000000001,0.3000000000000001,0.6100000000000003,6,3,1,4,14,5,1,6,3,0,17,7,Lc,0.32642857142857157,0.2800000000000001,0.3000000000000001,0.10166666666666668
3,18,36,1,4,0.37000000000000016,2,3,20,106,56,103,7.279999999999897,0.2800000000000001,0.19000000000000003,0.8400000000000005,7,2,1,3,21,3,1,4,2,0,14,7,Lc,0.34666666666666685,0.09333333333333334,0.19000000000000003,0.21000000000000008
3,19,37,1,4,0.6500000000000004,3,5,105,31,50,104,6.3399999999999235,1.0500000000000007,0.3300000000000001,2.020000000000001,7,3,1,5,15,4,1,5,2,0,13,7,Lc,0.42266666666666686,0.26250000000000007,0.3300000000000001,0.40400000000000025
3,19,38,1,8,0.3300000000000001,2,3,70,68,78,19,4.239999999999961,3.189999999999976,0.5500000000000003,0.2900000000000001,5,3,1,1,11,4,1,1,2,0,17,7,Lc,0.38545454545454566,0.7974999999999998,0.5500000000000003,0.2900000000000001
3,20,39,1,4,0.37000000000000016,2,3,107,102,63,101,4.879999999999948,0.4400000000000002,0.2900000000000001,1.7300000000000013,5,1,1,2,18,1,1,10,2,0.5,16,7,Lc,0.2711111111111112,0.4400000000000002,0.2900000000000001,0.17300000000000004
3,20,40,1,10,1.1600000000000008,2,5,20,31,15,16,4.64999999999997,1.5900000000000012,0.7500000000000004,4.649999999999945,4,2,1,6,13,6,1,7,6,0.5,41,7,Lc,0.35769230769230786,0.2650000000000001,0.7500000000000004,0.6642857142857147
4,1,1,0,10,0.35000000000000014,2,3,46,13,50,14,0.7200000000000003,2.3799999999999932,0.8300000000000005,0.01,3,5,2,1,4,7,2,1,6,0,21,7,Lc,0.18000000000000005,0.3400000000000002,0.41500000000000026,0.01
4,1,2,0,5,0.36000000000000015,2,3,29,108,102,64,0.7400000000000003,0.11999999999999998,0.21000000000000005,0.16,4,1,2,1,6,1,2,1,6,0,13,7,Lc,0.12333333333333335,0.11999999999999998,0.10499999999999998,0.16
4,2,3,0,10,0.34000000000000014,2,3,118,22,19,26,0.7100000000000003,0.16,0.8800000000000006,0.02,3,2,4,1,4,2,4,1,6,0,19,7,Lc,0.17750000000000005,0.08,0.22000000000000008,0.02
4,2,4,0,4,0.24000000000000007,2,4,4,10,104,9,2.829999999999989,0.01,0.01,0.01,6,1,1,1,9,1,1,1,2,0.5,38,7,Lc,0.31444444444444464,0.01,0.01,0.01
4,3,5,0,10,0.3100000000000001,2,3,48,44,15,56,0.6900000000000003,0.5500000000000003,3.189999999999976,0.21000000000000005,3,2,6,2,4,3,7,2,6,0,20,7,Lc,0.17250000000000004,0.18333333333333338,0.45571428571428596,0.105
4,3,6,0,5,0.2900000000000001,2,4,2,12,79,65,0.5300000000000001,0.15,0.45000000000000023,0.17,3,1,1,1,5,1,1,1,6,0,19,7,Lc,0.10600000000000001,0.15,0.45000000000000023,0.17
4,4,7,0,8,0.22000000000000006,2,3,117,45,110,44,0.5500000000000002,0.19000000000000003,0.11999999999999998,0.15,4,1,2,2,5,1,3,2,2,0,14,7,Lc,0.11,0.19000000000000003,0.04,0.07499999999999998
4,4,8,0,10,0.45000000000000023,2,3,20,16,14,97,0.7600000000000003,0.4000000000000002,9.889999999999834,0.02,4,2,11,1,5,3,18,1,6,0.5,38,7,Lc,0.15200000000000002,0.13333333333333333,0.5494444444444447,0.02
4,5,9,0,3,0.25000000000000006,2,3,45,37,120,42,0.5400000000000001,0.16,0.13999999999999999,0.05,3,1,1,1,4,1,1,1,5,0.5,32,7,Lc,0.135,0.16,0.13999999999999999,0.05
4,5,10,0,1,0.2700000000000001,2,3,28,33,52,4,0.5000000000000001,0.17,0.36000000000000015,1.410000000000001,4,1,2,5,5,1,2,5,5,0,20,7,Lc,0.09999999999999999,0.17,0.18000000000000002,0.28200000000000014
4,6,11,0,7,0.18000000000000002,2,3,89,94,25,93,0.36000000000000004,0.10999999999999999,0.26000000000000006,0.07,3,1,1,1,4,1,1,1,3,0.5,23,7,Lc,0.09000000000000001,0.10999999999999999,0.26000000000000006,0.07
4,6,12,0,4,0.35000000000000014,6,7,105,101,62,10,0.5700000000000002,0.12999999999999998,0.2900000000000001,0.9500000000000006,7,1,1,1,8,1,1,1,2,0,14,7,Lc,0.07125000000000001,0.12999999999999998,0.2900000000000001,0.9500000000000006
4,7,13,1,2,0.23000000000000007,2,4,77,42,39,63,0.36000000000000004,0.3200000000000001,0.20000000000000004,0.17,4,1,1,2,6,1,1,2,3,0,17,7,Lc,0.06,0.3200000000000001,0.20000000000000004,0.08499999999999999
4,7,14,1,5,0.35000000000000014,6,7,4,7,52,51,0.7000000000000003,0.18000000000000002,0.25000000000000006,0.09,8,1,3,1,9,1,3,1,6,0,20,7,Lc,0.07777777777777778,0.18000000000000002,0.08333333333333333,0.09
4,8,15,1,5,0.3000000000000001,2,5,34,91,29,2,0.7600000000000003,0.5100000000000002,0.04,0.09,3,2,1,2,6,2,1,2,6,0,19,7,Lc,0.1266666666666667,0.25500000000000006,0.04,0.045
4,8,16,1,2,0.2800000000000001,4,5,80,19,18,43,0.5200000000000001,0.3300000000000001,0.07,0.08,6,2,1,1,7,2,1,1,3,0,20,7,Lc,0.07428571428571429,0.165,0.07,0.08
4,9,17,1,7,0.2800000000000001,2,3,86,40,98,91,0.4800000000000001,0.47000000000000025,0.09999999999999999,0.8200000000000005,4,2,1,3,5,2,1,4,3,0,13,7,Lc,0.09599999999999999,0.2350000000000001,0.09999999999999999,0.20500000000000007
4,9,18,1,8,0.34000000000000014,6,6,118,119,15,36,0.8300000000000004,0.03,1.7000000000000013,0.07,8,1,3,1,9,1,3,1,2,0,15,7,Lc,0.09222222222222223,0.03,0.566666666666667,0.07
4,10,19,1,4,0.24000000000000007,2,3,8,5,90,29,0.6300000000000002,0.22000000000000006,0.08,0.12999999999999998,3,2,1,1,4,2,1,1,2,0,20,7,Lc,0.15750000000000003,0.11000000000000001,0.08,0.12999999999999998
4,10,20,1,6,0.47000000000000025,9,9,45,82,115,60,2.54,1.370000000000001,0.01,0.01,12,2,1,1,14,2,1,1,4,0,14,7,Lc,0.18142857142857152,0.6850000000000005,0.01,0.01
4,11,21,1,1,0.4000000000000002,2,4,27,111,4,91,0.6400000000000002,0.48000000000000026,0.18000000000000002,0.13999999999999999,4,1,1,1,6,1,1,1,5,0,16,7,Lc,0.10666666666666666,0.48000000000000026,0.18000000000000002,0.13999999999999999
4,11,22,1,4,0.6000000000000003,14,14,103,39,20,104,0.7800000000000004,0.11999999999999998,1.8400000000000014,1.8900000000000015,15,2,4,4,15,2,4,7,2,0,15,7,Lc,0.052,0.06,0.46000000000000024,0.27000000000000013
4,12,23,1,4,0.20000000000000004,2,3,98,44,45,104,0.5300000000000001,0.12999999999999998,0.22000000000000006,0.04,4,1,2,1,5,1,2,1,2,0,14,7,Lc,0.10600000000000001,0.12999999999999998,0.11,0.04
4,12,24,1,8,0.21000000000000005,2,4,109,118,114,26,0.37000000000000005,1.1700000000000008,0.01,0.01,4,4,1,1,6,4,1,1,2,0.5,17,7,Lc,0.06166666666666667,0.29250000000000015,0.01,0.01
4,13,25,1,8,0.35000000000000014,6,7,114,47,95,23,0.6100000000000002,0.18000000000000002,0.09999999999999999,0.3100000000000001,8,1,1,1,9,1,1,1,2,0,16,7,Lc,0.06777777777777777,0.18000000000000002,0.09999999999999999,0.3100000000000001
4,13,26,1,1,0.36000000000000015,7,8,33,106,54,36,0.5600000000000002,0.6700000000000004,1.2500000000000009,1.0900000000000007,8,2,2,4,9,2,3,4,5,0,16,7,Lc,0.06222222222222223,0.33500000000000013,0.4166666666666669,0.27250000000000013
4,14,27,1,9,0.47000000000000025,11,11,104,14,29,27,3.249999999999985,0.04,0.03,0.02,15,1,1,1,16,1,1,1,4,0,18,7,Lc,0.2031250000000001,0.04,0.03,0.02
4,14,28,1,6,0.4000000000000002,6,7,51,6,59,52,0.7000000000000003,2.1299999999999986,0.45000000000000023,0.15,8,2,2,1,9,2,2,1,4,0.5,30,7,Lc,0.07777777777777778,1.0649999999999993,0.2250000000000001,0.15
4,15,29,1,5,0.21000000000000005,2,4,9,5,108,54,0.5500000000000002,0.07,0.18000000000000002,0.45000000000000023,3,1,1,2,5,1,1,2,6,0,18,7,Lc,0.11000000000000003,0.07,0.18000000000000002,0.2250000000000001
4,15,30,1,9,0.36000000000000015,7,7,72,42,115,87,0.9500000000000004,4.189999999999955,0.01,0.16,9,9,1,2,10,11,1,3,4,0,14,7,Lc,0.09500000000000001,0.38090909090909114,0.01,0.05333333333333334
4,16,31,1,1,0.6300000000000003,17,17,97,104,33,22,3.3799999999999857,0.01,0.18000000000000002,0.07,20,1,2,2,21,1,2,2,5,0,15,7,Lc,0.16095238095238104,0.01,0.09000000000000001,0.035
4,16,32,1,2,0.16,2,3,77,80,82,49,0.27,0.21000000000000005,0.07,0.2700000000000001,4,2,1,2,5,2,1,2,3,0.5,22,7,Lc,0.054,0.105,0.07,0.135
4,17,33,1,4,0.20000000000000004,2,4,105,33,27,25,0.4900000000000001,0.24000000000000007,0.11999999999999998,0.13999999999999999,4,1,1,1,6,1,1,1,2,0.5,32,7,Lc,0.08166666666666667,0.24000000000000007,0.11999999999999998,0.13999999999999999
4,17,34,1,7,0.6100000000000003,15,15,111,42,21,20,3.3599999999999857,0.01,0.7500000000000004,0.36000000000000015,20,1,3,2,23,1,3,2,3,0,19,7,Lc,0.1460869565217392,0.01,0.2500000000000001,0.18000000000000008
4,18,35,1,6,0.26000000000000006,2,3,53,90,51,11,0.6100000000000002,0.5800000000000003,0.03,0.09,4,2,1,1,5,2,1,1,4,0,17,7,Lc,0.12200000000000001,0.2900000000000001,0.03,0.09
4,18,36,1,9,0.5300000000000002,11,12,61,17,69,48,0.7200000000000003,0.3200000000000001,0.060000000000000005,0.09,12,2,1,1,13,2,1,1,4,0,19,7,Lc,0.055384615384615386,0.16000000000000003,0.060000000000000005,0.09
4,19,37,1,6,1.6200000000000012,8,14,39,37,4,108,2.730000000000002,0.38000000000000017,2.8799999999999826,1.500000000000001,11,2,4,4,17,2,5,5,4,0,18,7,Lc,0.1605882352941177,0.19000000000000009,0.5760000000000004,0.30000000000000016
4,19,38,1,10,0.37000000000000016,2,4,113,22,91,31,0.6400000000000002,0.22000000000000006,0.23000000000000007,0.060000000000000005,3,1,2,1,5,1,2,1,6,0,16,7,Lc,0.128,0.22000000000000006,0.11499999999999999,0.060000000000000005
4,20,39,1,10,0.2800000000000001,2,3,24,20,37,17,0.5500000000000002,0.18000000000000002,0.11999999999999998,6.879999999999898,4,2,1,10,5,2,1,16,6,0.5,41,7,Lc,0.11,0.09000000000000001,0.11999999999999998,0.43000000000000027
4,20,40,1,5,0.2700000000000001,3,4,36,1,96,113,0.6300000000000002,0.6200000000000003,0.3200000000000001,0.01,4,2,1,1,5,2,1,1,6,0,16,7,Lc,0.12600000000000003,0.31000000000000016,0.3200000000000001,0.01
4,21,41,1,2,0.3000000000000001,2,4,76,110,117,11,0.44000000000000006,0.21000000000000005,0.19000000000000003,0.08,4,1,1,1,6,1,1,1,3,0,13,7,Lc,0.07333333333333333,0.21000000000000005,0.19000000000000003,0.08
4,21,42,1,4,0.3300000000000001,2,4,108,46,45,86,0.4900000000000001,0.3100000000000001,0.13999999999999999,0.11999999999999998,4,1,1,1,6,1,1,1,2,0,15,7,Lc,0.08166666666666667,0.3100000000000001,0.13999999999999999,0.11999999999999998
4,22,43,1,8,0.48000000000000026,2,3,112,58,53,91,0.5900000000000003,1.5900000000000012,0.04,0.3100000000000001,3,2,1,1,4,3,1,1,2,0,13,7,Lc,0.14750000000000002,0.5300000000000004,0.04,0.3100000000000001
4,22,44,1,9,0.3300000000000001,2,3,67,8,27,35,0.6700000000000003,0.09999999999999999,0.2900000000000001,0.03,3,1,2,1,4,1,2,1,4,0,20,7,Lc,0.16750000000000004,0.09999999999999999,0.14500000000000002,0.03
5,1,1,0,9,0.5700000000000003,2,4,68,6,35,108,2.560000000000002,0.6500000000000004,0.6900000000000004,1.480000000000001,5,2,3,5,10,3,4,5,4,0,17,7,Lc,0.25600000000000006,0.21666666666666673,0.17250000000000004,0.29600000000000015
5,1,2,0,6,1.0900000000000007,2,7,47,13,60,117,4.299999999999976,0.37000000000000016,1.1000000000000008,0.03,5,2,4,1,21,3,7,1,4,0,17,7,Lc,0.2047619047619048,0.12333333333333334,0.15714285714285717,0.03
5,2,3,0,4,0.8900000000000006,2,7,101,25,65,105,1.730000000000001,1.6600000000000013,0.8200000000000005,0.4000000000000002,4,4,3,3,9,5,3,3,2,0,13,7,Lc,0.19222222222222227,0.33200000000000013,0.27333333333333343,0.13333333333333333
5,2,4,0,6,0.8800000000000006,2,4,48,18,113,58,4.0599999999999765,0.3900000000000002,0.2700000000000001,0.37000000000000016,7,3,2,2,16,4,2,3,4,0,17,7,Lc,0.2537500000000001,0.09749999999999999,0.13500000000000004,0.12333333333333332
5,3,5,0,3,0.6400000000000003,2,5,42,104,79,100,3.17999999999999,1.400000000000001,1.1500000000000008,0.48000000000000026,9,5,3,2,18,6,5,2,5,0,12,7,Lc,0.17666666666666672,0.23333333333333342,0.23000000000000007,0.2400000000000001
5,3,6,0,10,1.1200000000000008,3,8,59,19,18,117,4.209999999999979,0.2900000000000001,3.8799999999999613,0.5900000000000003,7,2,7,3,23,2,12,3,6,0,18,7,Lc,0.1830434782608696,0.14500000000000002,0.3233333333333335,0.1966666666666667
5,4,7,0,5,0.47000000000000025,2,4,4,12,6,7,1.9800000000000013,0.6400000000000003,4.489999999999949,1.350000000000001,6,4,7,5,10,6,17,7,6,1,72,7,Lc,0.19800000000000006,0.10666666666666669,0.2641176470588236,0.19285714285714295
5,4,8,0,1,0.5200000000000002,2,3,33,54,15,116,2.3400000000000016,0.8300000000000005,2.0500000000000003,0.4000000000000002,4,3,4,1,12,3,6,1,5,0,17,7,Lc,0.19500000000000006,0.2766666666666668,0.34166666666666684,0.4000000000000002
5,5,9,0,9,0.8200000000000005,3,5,64,47,37,19,3.329999999999991,0.6500000000000004,0.21000000000000005,0.4300000000000002,5,2,1,2,17,4,1,2,4,0,20,7,Lc,0.19588235294117654,0.1625,0.21000000000000005,0.21500000000000005
5,5,10,0,6,0.6700000000000004,9,10,55,118,9,7,2.839999999999998,1.440000000000001,4.3599999999999515,11.079999999999808,12,5,11,16,17,8,22,44,4,0,18,7,Lc,0.16705882352941182,0.18000000000000005,0.19818181818181826,0.25181818181818194
5,6,11,0,4,0.26000000000000006,3,3,8,104,59,107,5.799999999999926,0.01,0.08,0.03,10,1,2,1,19,1,2,1,2,0,14,7,Lc,0.30526315789473696,0.01,0.04,0.03
5,6,12,0,8,0.5100000000000002,2,3,115,64,61,32,1.4300000000000008,1.7400000000000013,1.1600000000000008,0.4400000000000002,4,4,4,2,7,12,4,2,2,0,15,7,Lc,0.20428571428571438,0.14500000000000002,0.2900000000000001,0.22000000000000006
5,7,13,1,6,0.5900000000000003,2,6,60,50,100,102,1.4500000000000008,1.1600000000000008,1.320000000000001,0.5600000000000003,5,3,3,2,10,10,4,5,4,0,12,7,Lc,0.14500000000000002,0.116,0.3300000000000001,0.11200000000000002
5,7,14,1,8,1.2100000000000009,17,20,120,110,28,61,2.870000000000002,0.38000000000000017,1.340000000000001,0.36000000000000015,19,1,4,1,31,1,5,1,2,0,13,7,Lc,0.09258064516129033,0.38000000000000017,0.26800000000000007,0.36000000000000015
5,8,15,1,10,0.5000000000000002,8,8,22,58,14,104,7.2499999999999005,0.05,0.5700000000000003,0.36000000000000015,20,1,5,2,30,1,5,2,6,0,18,7,Lc,0.24166666666666678,0.05,0.11400000000000003,0.18000000000000005
5,8,16,1,9,1.5500000000000012,15,18,68,1,9,109,4.859999999999975,0.25000000000000006,0.25000000000000006,0.34000000000000014,18,1,1,3,29,1,1,3,4,0,18,7,Lc,0.16758620689655176,0.25000000000000006,0.25000000000000006,0.11333333333333336
5,9,17,1,5,1.360000000000001,2,10,8,3,7,102,2.800000000000002,0.8600000000000005,8.15999999999987,0.01,4,2,13,1,15,2,28,1,6,0.5,38,7,Lc,0.1866666666666667,0.4300000000000002,0.29142857142857154,0.01
5,9,18,1,1,1.260000000000001,14,16,18,26,24,14,2.1900000000000013,1.6300000000000012,0.26000000000000006,0.46000000000000024,16,5,1,2,19,8,1,2,5,0.5,41,7,Lc,0.11526315789473687,0.20375000000000007,0.26000000000000006,0.23000000000000004
5,10,19,1,6,0.5800000000000003,2,4,52,16,13,55,1.9200000000000013,2.5999999999999885,1.0400000000000007,0.02,4,4,5,1,10,10,5,1,4,0,20,7,Lc,0.19200000000000003,0.2600000000000001,0.20800000000000007,0.02
5,10,20,1,1,1.1600000000000008,2,8,25,26,110,12,3.479999999999995,0.47000000000000025,0.6700000000000004,3.0299999999999794,5,2,2,6,19,2,3,10,5,0,18,7,Lc,0.18315789473684216,0.23500000000000004,0.2233333333333334,0.30300000000000016
5,11,21,1,6,0.8900000000000006,7,9,56,52,49,109,3.3299999999999925,0.22000000000000006,0.2800000000000001,0.11999999999999998,14,1,2,1,22,1,2,1,4,0.5,26,7,Lc,0.1513636363636364,0.22000000000000006,0.13999999999999999,0.11999999999999998
5,11,22,1,9,0.9700000000000006,13,15,63,29,20,34,3.349999999999994,0.48000000000000026,0.47000000000000025,0.6100000000000003,16,2,2,2,27,5,2,2,4,0,20,7,Lc,0.1240740740740741,0.09599999999999999,0.23500000000000004,0.3050000000000001
5,12,23,1,2,0.6000000000000003,2,4,75,84,26,83,2.0200000000000014,0.49000000000000027,0.5100000000000002,0.23000000000000007,4,2,2,1,11,2,3,1,3,0.5,23,7,Lc,0.18363636363636368,0.24500000000000005,0.17000000000000004,0.23000000000000007
5,12,24,1,7,0.5300000000000002,2,5,88,90,18,112,1.550000000000001,1.8200000000000014,0.6900000000000004,0.21000000000000005,5,3,2,1,10,9,2,1,3,0,14,7,Lc,0.15500000000000003,0.20222222222222228,0.34500000000000014,0.21000000000000005
5,13,25,1,7,2.99999999999998,13,20,93,91,4,3,4.239999999999981,0.8600000000000005,0.22000000000000006,0.05,15,3,2,1,25,3,2,1,3,0,18,7,Lc,0.16960000000000006,0.2866666666666668,0.10999999999999999,0.05
5,13,26,1,8,0.47000000000000025,6,7,20,71,111,84,7.519999999999895,3.3499999999999726,0.01,0.6900000000000004,13,12,1,4,28,15,1,5,2,0,15,7,Lc,0.2685714285714287,0.2233333333333334,0.01,0.13800000000000004
5,14,27,1,1,1.0300000000000007,3,11,113,83,120,35,3.7599999999999865,2.4499999999999917,0.09999999999999999,0.08,8,5,1,1,27,9,1,1,5,0,12,7,Lc,0.1392592592592593,0.2722222222222223,0.09999999999999999,0.08
5,14,28,1,4,0.5200000000000002,3,4,106,99,104,96,2.2600000000000016,0.5000000000000002,0.3300000000000001,0.5900000000000003,5,2,2,2,8,4,2,2,2,0.5,15,7,Lc,0.28250000000000014,0.12500000000000003,0.16500000000000004,0.29500000000000015
5,15,29,1,5,1.2500000000000009,3,7,4,109,37,57,3.9399999999999875,0.5300000000000002,0.12999999999999998,0.12999999999999998,6,2,1,1,21,3,1,1,6,0,17,7,Lc,0.18761904761904769,0.1766666666666667,0.12999999999999998,0.12999999999999998
5,15,30,1,2,0.6800000000000004,2,4,78,25,32,20,2.1800000000000015,3.8199999999999625,0.02,0.04,4,5,1,1,14,7,1,1,3,0,19,7,Lc,0.15571428571428575,0.545714285714286,0.02,0.04
5,16,31,1,5,1.5100000000000011,2,8,9,40,39,38,3.7299999999999978,0.5500000000000003,0.8500000000000005,0.20000000000000004,6,3,3,2,15,3,3,2,6,0.5,36,7,Lc,0.24866666666666676,0.18333333333333338,0.28333333333333344,0.09999999999999999
5,16,32,1,8,1.350000000000001,13,15,82,30,78,115,2.760000000000002,0.6200000000000003,1.360000000000001,0.09999999999999999,16,2,4,1,24,3,5,1,2,0,13,7,Lc,0.11500000000000002,0.20666666666666675,0.27200000000000013,0.09999999999999999
5,17,33,1,2,0.16,2,3,17,27,66,78,13.259999999999765,0.01,0.01,0.01,20,1,1,1,55,1,1,1,3,0,18,7,Lc,0.2410909090909092,0.01,0.01,0.01
5,17,34,1,7,0.6800000000000004,7,8,38,6,4,47,2.7200000000000006,5.989999999999917,0.5500000000000003,1.1800000000000008,10,14,3,3,17,20,3,3,3,0,22,7,Lc,0.16000000000000006,0.2995000000000001,0.18333333333333338,0.39333333333333353
5,18,35,1,7,0.49000000000000027,2,7,94,17,89,34,1.9500000000000013,1.6200000000000012,0.13999999999999999,0.7600000000000005,6,3,1,3,14,6,1,4,3,0,17,7,Lc,0.13928571428571432,0.2700000000000001,0.13999999999999999,0.19000000000000006
5,18,36,1,5,1.0600000000000007,10,12,77,115,39,47,2.3000000000000016,0.8100000000000005,1.0400000000000007,1.2400000000000009,12,2,5,4,18,3,7,4,6,0,15,7,Lc,0.1277777777777778,0.27000000000000013,0.1485714285714286,0.31000000000000016
5,19,37,1,4,0.4400000000000002,3,6,99,105,108,1,1.3300000000000007,2.679999999999987,3.2199999999999753,2.479999999999991,5,3,9,12,8,10,10,18,2,0.5,18,7,Lc,0.16625000000000006,0.26800000000000007,0.3220000000000001,0.1377777777777778
5,19,38,1,10,1.1900000000000008,5,8,14,26,72,95,2.5500000000000016,2.6899999999999866,0.8200000000000005,0.6400000000000003,7,6,3,2,14,11,4,2,6,0,18,7,Lc,0.1821428571428572,0.24454545454545465,0.2050000000000001,0.3200000000000001
5,20,39,1,6,0.7500000000000004,2,3,60,39,42,13,2.889999999999999,0.6000000000000003,1.0400000000000007,0.09,4,2,4,1,9,2,4,2,4,0,20,7,Lc,0.32111111111111124,0.3000000000000001,0.26000000000000006,0.045
5,20,40,1,2,0.5300000000000002,2,5,1,30,29,82,3.0399999999999907,3.4399999999999706,0.04,0.03,5,8,1,1,12,10,1,1,3,0,19,7,Lc,0.2533333333333334,0.34400000000000014,0.04,0.03
5,21,41,1,2,1.0200000000000007,2,8,81,24,34,17,2.0800000000000014,0.6000000000000003,1.0100000000000007,0.18000000000000002,4,3,4,1,12,6,6,1,3,0,20,7,Lc,0.1733333333333334,0.1,0.1683333333333334,0.18000000000000002
5,21,42,1,5,0.7200000000000004,3,5,2,53,95,96,1.7700000000000011,1.320000000000001,0.6400000000000003,0.38000000000000017,6,2,2,2,11,3,4,2,6,0,16,7,Lc,0.16090909090909095,0.44000000000000017,0.16000000000000006,0.19000000000000006
6,1,1,0,7,0.23000000000000007,2,7,89,111,87,34,0.32000000000000006,0.23000000000000007,0.07,0.060000000000000005,4,1,2,1,9,1,3,1,3,0,13,7,Lc,0.035555555555555556,0.23000000000000007,0.023333333333333334,0.060000000000000005
6,1,2,0,3,0.23000000000000007,2,3,41,24,14,77,0.33000000000000007,0.24000000000000007,0.03,0.12999999999999998,4,2,1,1,5,7,1,1,5,0,20,7,Lc,0.066,0.03428571428571429,0.03,0.12999999999999998
6,2,3,0,9,0.21000000000000005,2,7,62,74,29,71,0.29000000000000004,0.3100000000000001,0.08,0.03,4,2,2,1,9,6,3,1,4,0,16,7,Lc,0.03222222222222222,0.051666666666666666,0.02666666666666667,0.03
6,2,4,0,3,0.23000000000000007,2,4,39,105,90,38,0.4200000000000001,0.21000000000000005,0.09,0.02,4,2,2,1,6,3,3,1,5,0,15,7,Lc,0.06999999999999999,0.07,0.030000000000000002,0.02
6,3,5,0,5,0.23000000000000007,2,5,1,46,6,92,0.37000000000000005,0.16,0.20000000000000004,0.05,4,2,3,1,7,3,3,1,6,0,20,7,Lc,0.05285714285714286,0.05333333333333334,0.06666666666666667,0.05
6,3,6,0,10,0.23000000000000007,2,5,21,23,69,102,0.4000000000000001,0.21000000000000005,1.6900000000000013,0.16,4,2,11,3,8,3,19,3,6,0,18,7,Lc,0.05,0.07,0.08894736842105262,0.05333333333333333
6,4,7,0,6,0.25000000000000006,2,7,11,56,87,93,0.44000000000000006,0.02,0.08,0.12999999999999998,3,1,1,2,8,1,1,3,4,0,16,7,Lc,0.05500000000000001,0.02,0.08,0.043333333333333335
6,4,8,0,10,0.3200000000000001,3,8,14,62,118,83,0.45000000000000007,1.1700000000000008,1.5700000000000012,0.2900000000000001,5,6,7,3,12,12,9,3,6,0,15,7,Lc,0.0375,0.09750000000000002,0.1744444444444445,0.09666666666666666
6,5,9,0,4,0.21000000000000005,2,4,107,100,11,70,0.29000000000000004,0.11999999999999998,0.13999999999999999,0.15,3,2,2,2,5,3,4,2,2,0,14,7,Lc,0.058,0.04,0.035,0.07500000000000001
6,5,10,0,6,0.24000000000000007,2,5,50,39,117,58,0.3000000000000001,0.47000000000000025,0.04,0.02,4,2,2,1,7,4,2,1,4,0,15,7,Lc,0.04285714285714286,0.11750000000000002,0.02,0.02
6,6,11,0,1,0.2700000000000001,2,5,3,26,101,52,0.4700000000000001,0.01,0.08,0.15,3,1,3,1,6,1,3,2,5,0,17,7,Lc,0.07833333333333334,0.01,0.02666666666666667,0.075
6,6,12,0,7,0.2700000000000001,2,4,89,48,96,95,0.38000000000000006,0.09,0.07,0.07,4,2,1,1,7,2,1,1,3,0.5,23,7,Lc,0.054285714285714284,0.045,0.07,0.07
6,7,13,1,8,0.21000000000000005,2,3,113,30,120,49,0.30000000000000004,0.24000000000000007,0.02,0.08,4,2,1,2,5,4,1,5,2,0,13,7,Lc,0.06,0.06,0.02,0.016
6,7,14,1,7,0.3300000000000001,2,5,89,64,107,7,0.5200000000000001,0.17,0.04,0.04,5,2,2,2,9,3,3,3,3,0,15,7,Lc,0.057777777777777775,0.05666666666666667,0.013333333333333334,0.013333333333333334
6,8,15,1,10,0.22000000000000006,2,4,15,14,49,50,0.38000000000000006,0.02,0.17,0.13999999999999999,4,1,2,2,8,1,3,3,6,0,20,7,Lc,0.0475,0.02,0.05666666666666667,0.04666666666666666
6,8,16,1,3,0.24000000000000007,4,7,38,41,66,11,0.4000000000000001,0.01,0.23000000000000007,0.03,6,1,2,1,10,1,2,1,5,0,20,7,Lc,0.04,0.01,0.11499999999999999,0.03
6,9,17,1,5,0.23000000000000007,2,5,10,3,6,26,0.33000000000000007,0.25000000000000006,1.0500000000000007,0.01,4,2,8,1,7,6,13,1,6,0.5,41,7,Lc,0.047142857142857146,0.04166666666666667,0.08076923076923077,0.01
6,9,18,1,3,0.3000000000000001,2,8,41,62,15,98,0.4100000000000001,0.15,0.15,0.07,4,2,2,1,10,4,3,1,5,0,17,7,Lc,0.041,0.0375,0.05,0.07
6,10,19,1,1,0.24000000000000007,2,5,28,100,27,23,0.3400000000000001,0.21000000000000005,0.01,0.09,4,2,1,1,7,4,1,1,5,0,18,7,Lc,0.04857142857142857,0.0525,0.01,0.09
6,10,20,1,3,0.26000000000000006,2,6,39,54,50,117,0.4800000000000001,0.08,0.10999999999999999,0.09,4,1,3,1,8,2,3,1,5,0,15,7,Lc,0.060000000000000005,0.04,0.03666666666666667,0.09
6,11,21,1,9,0.21000000000000005,2,3,62,70,99,36,0.4100000000000001,0.01,0.15,0.060000000000000005,3,1,2,2,4,1,2,3,4,0,15,7,Lc,0.10250000000000001,0.01,0.075,0.02
6,11,22,1,5,0.22000000000000006,2,3,7,5,80,58,0.36000000000000004,1.260000000000001,0.01,0.01,4,10,1,1,5,23,1,1,6,0,19,7,Lc,0.072,0.05478260869565217,0.01,0.01
6,12,23,1,7,0.23000000000000007,5,6,91,11,104,97,0.3400000000000001,0.2900000000000001,0.07,0.01,7,2,2,1,8,4,3,1,3,0,13,7,Lc,0.0425,0.07250000000000001,0.023333333333333334,0.01
6,12,24,1,10,0.24000000000000007,2,9,19,67,14,74,0.4500000000000001,0.04,0.8400000000000005,0.9700000000000006,4,2,3,11,11,3,10,17,6,0,19,7,Lc,0.040909090909090916,0.013333333333333334,0.084,0.05705882352941176
6,13,25,1,5,0.23000000000000007,2,7,3,2,95,91,0.26000000000000006,0.8400000000000005,0.01,0.05,3,3,1,1,8,13,1,1,6,0,18,7,Lc,0.0325,0.06461538461538462,0.01,0.05
6,13,26,1,1,0.2900000000000001,2,5,78,33,17,32,0.42000000000000004,0.060000000000000005,0.13999999999999999,0.05,4,2,2,2,10,3,3,3,5,0,19,7,Lc,0.042,0.02,0.04666666666666667,0.016666666666666666
6,14,27,1,6,0.18000000000000002,2,7,58,52,25,117,0.3,0.03,0.3100000000000001,0.01,4,1,2,1,10,1,6,1,4,0,15,7,Lc,0.030000000000000002,0.03,0.051666666666666666,0.01
6,14,28,1,9,0.25000000000000006,2,5,71,89,40,105,0.38,0.19000000000000003,0.16,0.02,4,2,2,1,9,2,2,1,4,0,14,7,Lc,0.042222222222222223,0.095,0.07999999999999999,0.02
6,15,29,1,10,0.3900000000000002,11,14,18,16,116,26,0.5500000000000002,0.09999999999999999,0.10999999999999999,0.04,13,1,3,1,16,1,3,1,6,0,19,7,Lc,0.034375,0.09999999999999999,0.03666666666666667,0.04
6,15,30,1,5,0.3000000000000001,3,6,9,65,42,106,0.5200000000000001,0.18000000000000002,0.05,0.45000000000000023,6,3,1,4,10,5,1,5,6,0,17,7,Lc,0.052000000000000005,0.036000000000000004,0.05,0.09000000000000001
6,16,31,1,4,0.26000000000000006,2,8,21,105,107,92,0.4900000000000001,0.02,0.13999999999999999,0.01,4,1,2,1,11,1,3,1,2,0,13,7,Lc,0.04454545454545455,0.02,0.04666666666666667,0.01
6,16,32,1,8,0.3900000000000002,5,7,113,7,9,111,0.6700000000000003,0.10999999999999999,0.03,0.060000000000000005,7,2,1,1,14,3,1,1,2,0,16,7,Lc,0.047857142857142855,0.03666666666666667,0.03,0.060000000000000005
6,17,33,1,1,0.25000000000000006,2,4,36,29,119,13,0.3400000000000001,0.21000000000000005,0.05,0.17,4,2,1,4,6,3,1,5,5,0,18,7,Lc,0.05666666666666667,0.07,0.05,0.034
6,17,34,1,3,0.3200000000000001,3,6,48,101,85,95,0.5600000000000002,0.03,0.060000000000000005,0.08,5,1,1,2,10,1,1,3,5,0,13,7,Lc,0.055999999999999994,0.03,0.060000000000000005,0.026666666666666665
6,18,35,1,1,0.2800000000000001,2,5,30,63,105,72,0.43000000000000005,0.09999999999999999,0.10999999999999999,0.08,4,1,1,1,7,1,1,1,5,0,15,7,Lc,0.06142857142857142,0.09999999999999999,0.10999999999999999,0.08
6,18,36,1,6,0.3100000000000001,4,5,58,50,21,94,0.5000000000000001,0.08,0.12999999999999998,0.09999999999999999,6,1,1,2,9,1,1,2,4,0,17,7,Lc,0.05555555555555556,0.08,0.12999999999999998,0.05
6,19,37,1,1,0.26000000000000006,2,8,35,98,87,86,0.37000000000000005,0.12999999999999998,0.3900000000000002,0.03,4,2,4,1,10,3,4,1,5,0,13,7,Lc,0.037,0.043333333333333335,0.09750000000000002,0.03
6,19,38,1,3,0.25000000000000006,3,5,37,119,64,116,0.44000000000000006,0.22000000000000006,0.060000000000000005,0.05,5,2,2,1,7,4,2,1,5,0,13,7,Lc,0.06285714285714286,0.055,0.03,0.05
6,20,39,1,5,0.19000000000000003,2,4,4,2,6,82,0.38000000000000006,0.8700000000000006,0.01,0.03,4,5,1,1,6,13,1,1,6,0.5,39,7,Lc,0.06333333333333334,0.06692307692307692,0.01,0.03
6,20,40,1,7,0.18000000000000002,2,4,96,87,66,68,0.31,0.01,0.2900000000000001,0.09999999999999999,4,1,2,1,7,1,4,2,3,0,14,7,Lc,0.04428571428571429,0.01,0.0725,0.05
6,21,41,1,2,0.20000000000000004,3,7,81,80,59,34,0.33,0.18000000000000002,0.02,0.12999999999999998,5,2,1,2,9,4,1,2,3,0,15,7,Lc,0.03666666666666667,0.045000000000000005,0.02,0.065
6,21,42,1,9,0.22000000000000006,2,5,68,69,113,46,0.4000000000000001,0.01,0.22000000000000006,0.09999999999999999,4,1,2,2,8,1,3,2,4,0,15,7,Lc,0.049999999999999996,0.01,0.07333333333333333,0.05
6,22,43,1,9,0.3000000000000001,2,4,66,106,30,12,0.4200000000000001,0.5000000000000002,0.13999999999999999,0.02,4,3,1,1,6,11,1,1,4,0,17,7,Lc,0.07,0.045454545454545456,0.13999999999999999,0.02
6,22,44,1,7,0.3100000000000001,5,8,47,116,43,59,0.6600000000000003,0.07,0.09999999999999999,0.04,8,2,2,2,15,2,2,2,3,0,16,7,Lc,0.044000000000000004,0.035,0.05,0.02
7,1,1,0,6,0.2700000000000001,2,3,57,114,56,120,0.8600000000000003,0.2700000000000001,0.04,0.15,4,2,1,1,5,3,1,1,4,0,12,7,Lc,0.17200000000000004,0.09,0.04,0.15
7,1,2,0,10,0.3200000000000001,2,4,16,105,92,62,1.0100000000000005,0.07,0.34000000000000014,0.16,4,1,2,2,10,2,2,2,6,0,15,7,Lc,0.10100000000000002,0.035,0.17000000000000004,0.07999999999999999
7,2,3,0,7,0.22000000000000006,2,3,93,89,19,21,0.6100000000000002,0.25000000000000006,0.24000000000000007,0.02,4,1,2,1,5,1,3,1,3,0,18,7,Lc,0.12200000000000003,0.25000000000000006,0.07999999999999999,0.02
7,2,4,0,6,0.4200000000000002,2,4,50,108,60,104,0.9200000000000004,0.16,0.20000000000000004,0.16,4,1,3,2,6,1,3,2,4,0,12,7,Lc,0.15333333333333335,0.16,0.06666666666666667,0.08
7,3,5,0,5,0.2700000000000001,2,3,4,111,33,29,0.6100000000000002,2.439999999999992,1.430000000000001,1.0700000000000007,4,5,5,3,7,7,6,3,6,0,18,7,Lc,0.08714285714285715,0.3485714285714287,0.23833333333333342,0.35666666666666685
7,3,6,0,4,0.3200000000000001,2,3,99,54,73,80,0.8100000000000004,0.6900000000000004,0.01,0.16,4,2,1,2,6,4,1,2,2,0,12,7,Lc,0.135,0.17250000000000004,0.01,0.07999999999999999
7,4,7,0,2,0.3000000000000001,2,4,82,116,45,16,0.7500000000000003,0.5200000000000002,0.05,0.07,4,2,1,1,6,2,1,1,3,0,16,7,Lc,0.12500000000000003,0.26000000000000006,0.05,0.07
7,4,8,0,5,0.4400000000000002,2,5,3,34,2,104,0.9300000000000005,0.4200000000000002,0.5600000000000003,2.249999999999996,4,2,3,5,7,3,3,6,6,0,19,7,Lc,0.13285714285714287,0.14,0.18666666666666673,0.3750000000000002
7,5,9,0,10,0.36000000000000015,2,4,22,20,101,32,1.0000000000000004,0.19000000000000003,0.15,0.060000000000000005,4,1,1,1,8,1,1,1,6,0,19,7,Lc,0.125,0.19000000000000003,0.15,0.060000000000000005
7,5,10,0,9,0.23000000000000007,2,4,65,38,68,39,0.6200000000000002,0.6200000000000003,0.02,0.21000000000000005,4,2,1,1,7,2,1,1,4,0,18,7,Lc,0.08857142857142858,0.31000000000000016,0.02,0.21000000000000005
7,6,11,0,7,0.18000000000000002,3,3,107,89,2,92,2.3099999999999987,0.17,0.02,0.01,8,1,1,1,16,1,1,1,3,0,14,7,Lc,0.14437500000000003,0.17,0.02,0.01
7,6,12,0,9,0.19000000000000003,1,2,70,65,24,74,0.5500000000000002,0.3100000000000001,0.3300000000000001,0.25000000000000006,3,2,2,1,4,2,3,1,4,0,17,7,Lc,0.1375,0.155,0.10999999999999999,0.25000000000000006
7,7,13,1,6,0.2900000000000001,2,3,50,15,59,76,0.7600000000000003,0.15,0.18000000000000002,0.24000000000000007,4,1,1,2,5,1,1,3,4,0,17,7,Lc,0.15200000000000002,0.15,0.18000000000000002,0.08000000000000002
7,7,14,1,9,0.3100000000000001,2,3,71,6,99,38,0.6400000000000002,0.47000000000000025,0.19000000000000003,0.11999999999999998,4,2,2,2,5,2,3,2,4,0,17,7,Lc,0.12800000000000003,0.2350000000000001,0.06333333333333334,0.06
7,8,15,1,10,0.37000000000000016,2,5,19,18,17,49,0.8200000000000004,0.3300000000000001,2.9199999999999817,0.01,4,1,6,1,7,1,8,1,6,0.5,40,7,Lc,0.11714285714285716,0.3300000000000001,0.3650000000000002,0.01
7,8,16,1,5,0.3100000000000001,2,4,70,45,114,12,1.2600000000000007,0.4300000000000002,0.20000000000000004,0.4000000000000002,4,3,2,3,9,3,2,3,6,0,17,7,Lc,0.14000000000000004,0.14333333333333334,0.10000000000000002,0.13333333333333336
7,9,17,1,3,0.6200000000000003,9,11,37,47,44,43,1.0100000000000005,0.15,0.38000000000000017,0.45000000000000023,11,1,2,2,14,1,2,2,5,1,60,7,Lc,0.07214285714285715,0.15,0.19000000000000006,0.22500000000000012
7,9,18,1,5,0.2800000000000001,2,4,2,8,3,7,0.7600000000000003,0.17,0.19000000000000003,1.7800000000000014,4,2,2,9,8,3,2,12,6,1,72,7,Lc,0.095,0.05666666666666666,0.095,0.14833333333333337
7,10,19,1,6,0.2700000000000001,2,5,49,52,57,106,0.6200000000000002,0.6800000000000004,0.3000000000000001,0.22000000000000006,4,2,2,1,7,2,2,1,4,0.5,26,7,Lc,0.08857142857142858,0.3400000000000002,0.15000000000000005,0.22000000000000006
7,10,20,1,1,0.26000000000000006,2,3,36,116,14,18,1.0000000000000004,0.08,0.15,0.060000000000000005,4,1,1,1,5,1,1,1,5,0,19,7,Lc,0.20000000000000007,0.08,0.15,0.060000000000000005
7,11,21,1,5,0.19000000000000003,2,3,4,66,71,72,0.8300000000000004,3.099999999999978,0.5300000000000002,2.619999999999988,4,7,4,7,5,7,4,9,6,0.5,30,7,Lc,0.16600000000000006,0.4428571428571431,0.13250000000000003,0.29111111111111126
7,11,22,1,6,0.2900000000000001,2,3,57,18,14,103,0.7900000000000003,0.18000000000000002,0.15,0.16,4,2,1,1,6,3,1,1,4,0,18,7,Lc,0.13166666666666668,0.05999999999999999,0.15,0.16
7,12,23,1,3,0.49000000000000027,11,12,39,46,52,18,1.1400000000000006,0.12999999999999998,0.17,0.060000000000000005,13,1,1,1,14,1,1,1,5,0,20,7,Lc,0.08142857142857145,0.12999999999999998,0.17,0.060000000000000005
7,12,24,1,7,0.12999999999999998,2,2,95,85,61,98,2.319999999999997,0.05,0.26000000000000006,0.02,5,2,2,1,10,2,2,1,3,0,12,7,Lc,0.2320000000000001,0.025,0.13,0.02
7,13,25,1,7,0.23000000000000007,2,7,89,93,97,39,0.6900000000000003,0.12999999999999998,0.2700000000000001,0.05,4,1,2,1,13,1,2,1,3,0,13,7,Lc,0.05307692307692308,0.12999999999999998,0.13500000000000004,0.05
7,13,26,1,6,0.26000000000000006,2,4,56,54,36,27,0.8000000000000003,0.02,0.2700000000000001,0.09999999999999999,4,1,3,1,6,1,3,1,4,0,18,7,Lc,0.13333333333333336,0.02,0.09,0.09999999999999999
7,14,27,1,9,0.26000000000000006,2,3,64,27,61,100,0.9300000000000004,0.02,0.13999999999999999,0.2800000000000001,4,1,1,2,5,1,1,2,4,0,15,7,Lc,0.18600000000000005,0.02,0.13999999999999999,0.14
7,14,28,1,8,0.21000000000000005,2,4,117,110,42,22,0.7300000000000003,0.11999999999999998,0.2700000000000001,1.500000000000001,4,1,2,4,10,1,2,6,2,0,15,7,Lc,0.07300000000000001,0.11999999999999998,0.135,0.2500000000000001
7,15,29,1,3,0.3100000000000001,2,3,37,102,53,6,0.9300000000000004,0.3000000000000001,0.4200000000000002,0.19000000000000003,5,2,3,1,9,2,5,1,5,0,17,7,Lc,0.10333333333333335,0.15000000000000005,0.08400000000000002,0.19000000000000003
7,15,30,1,8,0.26000000000000006,2,3,112,114,71,69,0.7600000000000002,0.09,1.260000000000001,0.01,4,1,4,1,6,1,4,1,2,0,12,7,Lc,0.1266666666666667,0.09,0.31500000000000017,0.01
7,16,31,1,5,0.21000000000000005,2,3,12,9,108,71,0.7000000000000003,0.3100000000000001,0.04,0.5600000000000003,4,2,1,2,6,3,1,3,6,0,18,7,Lc,0.11666666666666668,0.10333333333333335,0.04,0.1866666666666667
7,16,32,1,6,0.26000000000000006,2,3,60,22,116,34,0.6900000000000003,0.5900000000000003,1.0100000000000007,0.07,4,3,4,1,5,3,4,1,4,0,17,7,Lc,0.138,0.19666666666666668,0.2525000000000001,0.07
7,17,33,1,5,0.3900000000000002,3,5,6,104,105,99,0.8000000000000004,1.360000000000001,0.01,0.02,5,3,1,1,7,3,1,1,6,0.5,18,7,Lc,0.11428571428571431,0.4533333333333336,0.01,0.02
7,17,34,1,9,0.25000000000000006,2,3,69,65,13,115,0.8100000000000003,0.11999999999999998,0.4300000000000002,0.01,3,1,2,1,4,1,3,1,4,0,16,7,Lc,0.20250000000000007,0.11999999999999998,0.1433333333333333,0.01
7,18,35,1,7,0.2900000000000001,2,3,91,54,88,105,0.7800000000000004,1.0600000000000007,0.01,1.0600000000000007,4,3,1,2,5,3,1,2,3,0,12,7,Lc,0.15600000000000003,0.3533333333333335,0.01,0.5300000000000004
7,18,36,1,8,0.3200000000000001,2,4,117,72,47,3,0.9400000000000004,0.03,0.21000000000000005,0.16,4,1,1,2,8,1,1,2,2,0,17,7,Lc,0.11750000000000001,0.03,0.21000000000000005,0.07999999999999999
7,19,37,1,4,0.3100000000000001,2,3,71,105,106,26,0.8900000000000003,0.13999999999999999,0.13999999999999999,0.26000000000000006,4,1,1,1,8,1,1,1,2,0,13,7,Lc,0.11125,0.13999999999999999,0.13999999999999999,0.26000000000000006
7,19,38,1,5,0.22000000000000006,3,3,3,6,51,39,0.9100000000000005,0.01,0.18000000000000002,0.24000000000000007,5,1,1,2,10,1,1,3,6,0,21,7,Lc,0.09100000000000001,0.01,0.18000000000000002,0.08
7,20,39,1,4,0.26000000000000006,2,3,7,103,12,8,0.8000000000000003,0.07,0.16,0.13999999999999999,4,1,1,2,6,1,1,2,2,0.5,38,7,Lc,0.13333333333333336,0.07,0.16,0.06999999999999999
7,20,40,1,2,0.26000000000000006,2,4,83,120,79,72,0.5600000000000002,0.36000000000000015,0.26000000000000006,0.10999999999999999,4,1,3,1,6,1,3,1,3,0,12,7,Lc,0.09333333333333334,0.36000000000000015,0.08666666666666667,0.10999999999999999
7,21,41,1,8,0.37000000000000016,2,5,114,9,76,54,0.9800000000000004,0.07,0.5600000000000003,0.04,4,1,2,1,7,1,2,1,2,0,15,7,Lc,0.14000000000000004,0.07,0.28000000000000014,0.04
7,21,42,1,10,0.17,2,3,21,23,20,72,0.45000000000000007,0.2700000000000001,1.2100000000000009,0.8000000000000005,4,1,4,4,5,1,6,4,6,0.5,40,7,Lc,0.09000000000000001,0.2700000000000001,0.20166666666666674,0.20000000000000007
7,22,43,1,10,0.35000000000000014,2,4,22,64,78,46,0.9500000000000004,0.2800000000000001,0.10999999999999999,1.1500000000000008,4,2,2,2,6,3,2,2,6,0,18,7,Lc,0.15833333333333338,0.09333333333333335,0.05500000000000001,0.5750000000000004
7,22,44,1,6,0.8000000000000005,4,6,51,25,57,115,1.4200000000000008,0.18000000000000002,0.09,0.5400000000000003,6,2,1,2,10,2,1,2,4,0,15,7,Lc,0.14200000000000004,0.09,0.09,0.27000000000000013
8,1,1,0,9,0.20000000000000004,2,4,32,64,84,69,0.7200000000000003,0.04,0.12999999999999998,0.03,5,1,2,1,11,1,3,1,4,0,16,7,Lc,0.06545454545454546,0.04,0.043333333333333335,0.03
8,1,2,0,4,0.2900000000000001,2,6,106,18,108,21,0.7100000000000003,0.09,0.6000000000000003,0.2800000000000001,4,1,3,3,14,1,5,4,2,0,16,7,Lc,0.05071428571428571,0.09,0.12000000000000002,0.07000000000000002
8,2,3,0,1,0.15,2,2,4,77,103,8,4.1099999999999595,0.01,0.02,0.01,20,1,2,1,46,1,2,1,5,0,17,7,Lc,0.08934782608695653,0.01,0.01,0.01
8,2,4,0,10,0.25000000000000006,2,4,24,115,54,43,0.6300000000000002,0.25000000000000006,0.05,0.060000000000000005,4,2,1,1,7,4,1,1,6,0,17,7,Lc,0.09,0.0625,0.05,0.060000000000000005
8,3,5,0,6,0.45000000000000023,17,19,51,52,37,17,0.7300000000000003,0.03,0.09,0.09999999999999999,19,1,2,1,22,1,2,1,4,0,19,7,Lc,0.03318181818181818,0.03,0.045,0.09999999999999999
8,3,6,0,4,0.26000000000000006,2,3,83,67,10,11,0.8800000000000003,0.09999999999999999,0.03,0.03,4,2,1,1,6,3,1,1,2,0,19,7,Lc,0.1466666666666667,0.03333333333333333,0.03,0.03
8,4,7,0,8,0.3000000000000001,4,5,27,7,67,112,0.7600000000000003,0.25000000000000006,0.04,0.46000000000000024,8,2,2,2,9,3,3,2,2,0,17,7,Lc,0.08444444444444446,0.08333333333333333,0.013333333333333334,0.23000000000000012
8,4,8,0,6,0.24000000000000007,2,3,59,106,102,83,0.5300000000000001,0.23000000000000007,1.6000000000000012,0.01,4,2,6,1,9,2,9,1,4,0,11,7,Lc,0.058888888888888886,0.11499999999999999,0.17777777777777787,0.01
8,5,9,0,3,0.20000000000000004,2,3,45,48,79,107,0.4000000000000001,0.22000000000000006,0.26000000000000006,0.05,4,2,2,1,5,3,3,1,5,0,15,7,Lc,0.08,0.07333333333333333,0.08666666666666667,0.05
8,5,10,0,7,0.18000000000000002,2,3,88,85,30,119,0.5500000000000002,0.22000000000000006,0.04,0.060000000000000005,4,2,1,1,7,3,1,1,3,0,13,7,Lc,0.07857142857142857,0.07333333333333333,0.04,0.060000000000000005
8,6,11,0,9,0.2800000000000001,2,8,69,71,117,110,1.8500000000000012,0.13999999999999999,0.4200000000000002,0.04,11,2,4,1,25,2,5,1,4,0,12,7,Lc,0.07400000000000001,0.06999999999999999,0.084,0.04
8,6,12,0,3,0.23000000000000007,2,4,41,59,20,104,0.5700000000000002,0.25000000000000006,0.07,0.03,4,3,2,1,6,4,3,1,5,0,17,7,Lc,0.095,0.0625,0.02333333333333333,0.03
8,7,13,1,6,0.3200000000000001,2,5,53,54,47,113,0.6200000000000002,0.08,0.23000000000000007,0.04,4,1,3,1,7,1,4,1,4,0,15,7,Lc,0.08857142857142858,0.08,0.0575,0.04
8,7,14,1,4,0.23000000000000007,2,3,103,62,8,5,0.5500000000000002,0.23000000000000007,0.07,0.13999999999999999,4,2,1,2,7,4,1,3,2,0,18,7,Lc,0.07857142857142857,0.057499999999999996,0.07,0.04666666666666667
8,8,15,1,6,0.3200000000000001,2,4,53,115,60,44,0.5400000000000001,0.37000000000000016,0.02,0.060000000000000005,3,2,1,1,5,4,1,1,4,0,15,7,Lc,0.10800000000000001,0.09250000000000001,0.02,0.060000000000000005
8,8,16,1,9,0.25000000000000006,2,6,65,105,1,62,0.5000000000000001,0.6700000000000004,0.25000000000000006,0.01,4,3,2,1,10,9,2,1,4,0,16,7,Lc,0.05,0.07444444444444445,0.12500000000000003,0.01
8,9,17,1,5,0.22000000000000006,2,5,11,47,46,4,0.5600000000000002,0.12999999999999998,0.47000000000000025,0.05,4,1,4,3,7,1,4,3,6,0,22,7,Lc,0.08000000000000002,0.12999999999999998,0.11750000000000002,0.016666666666666666
8,9,18,1,9,0.3000000000000001,6,9,70,61,72,25,0.6800000000000003,0.5500000000000003,0.07,0.24000000000000007,8,3,1,4,17,4,1,4,4,0.5,29,7,Lc,0.04,0.13750000000000004,0.07,0.060000000000000005
8,10,19,1,5,0.18000000000000002,2,5,9,51,25,32,0.38000000000000006,0.4200000000000002,0.09999999999999999,0.4000000000000002,4,4,2,4,7,4,2,6,6,0,20,7,Lc,0.05428571428571429,0.105,0.05,0.06666666666666667
8,10,20,1,10,0.36000000000000015,10,13,13,14,15,120,0.6600000000000003,0.13999999999999999,0.16,0.01,11,1,2,1,14,1,2,1,6,0.5,38,7,Lc,0.04714285714285715,0.13999999999999999,0.08,0.01
8,11,21,1,3,0.21000000000000005,2,5,37,44,107,102,0.5700000000000002,0.07,0.24000000000000007,0.11999999999999998,4,1,2,2,9,1,6,3,5,0,14,7,Lc,0.06333333333333334,0.07,0.04,0.04
8,11,22,1,2,0.15,1,2,112,80,77,30,0.6000000000000002,0.05,0.11999999999999998,0.03,3,1,2,1,7,1,2,1,3,0,13,7,Lc,0.08571428571428572,0.05,0.06,0.03
8,12,23,1,9,0.18000000000000002,2,3,61,4,104,105,0.5000000000000001,0.7500000000000004,0.01,0.4300000000000002,4,6,1,4,9,6,1,4,4,0,14,7,Lc,0.05555555555555555,0.125,0.01,0.1075
8,12,24,1,8,0.21000000000000005,2,7,109,47,48,21,0.6300000000000002,0.08,0.09,0.47000000000000025,5,1,1,5,13,1,1,6,2,0,18,7,Lc,0.04846153846153846,0.08,0.09,0.07833333333333334
8,13,25,1,7,0.13999999999999999,2,3,96,85,10,12,0.4,0.08,0.21000000000000005,0.17,3,1,2,3,4,1,2,5,3,0,18,7,Lc,0.10000000000000002,0.08,0.10500000000000001,0.034
8,13,26,1,1,0.2700000000000001,2,4,34,119,23,14,0.6900000000000003,0.07,0.12999999999999998,0.07,5,1,2,1,10,1,3,1,5,0,19,7,Lc,0.069,0.07,0.043333333333333335,0.07
8,14,27,1,5,0.15,2,2,5,8,61,92,0.6400000000000002,0.03,0.15,0.10999999999999999,4,1,1,2,9,1,1,3,6,0,19,7,Lc,0.07111111111111111,0.03,0.15,0.03666666666666667
8,14,28,1,10,0.3000000000000001,7,9,19,23,99,81,1.0000000000000004,0.01,0.4000000000000002,0.03,9,1,5,1,18,1,6,1,6,0,17,7,Lc,0.05555555555555556,0.01,0.06666666666666667,0.03
8,15,29,1,1,0.20000000000000004,2,3,29,74,30,80,0.4200000000000001,0.38000000000000017,0.02,0.37000000000000016,4,2,1,2,7,7,1,3,5,0,16,7,Lc,0.06,0.054285714285714284,0.02,0.12333333333333335
8,15,30,1,10,0.5000000000000002,14,17,37,13,14,90,0.8300000000000003,0.19000000000000003,0.060000000000000005,0.12999999999999998,17,2,1,2,20,3,1,2,6,0,20,7,Lc,0.0415,0.06333333333333332,0.060000000000000005,0.065
8,16,31,1,8,0.5000000000000002,20,23,116,91,112,86,0.6400000000000002,0.19000000000000003,0.060000000000000005,0.03,20,1,1,1,27,1,1,1,2,0,10,7,Lc,0.023703703703703706,0.19000000000000003,0.060000000000000005,0.03
8,16,32,1,6,0.24000000000000007,2,7,54,58,80,47,0.4400000000000001,0.09,0.3100000000000001,0.060000000000000005,4,1,3,1,9,2,5,2,4,0,16,7,Lc,0.048888888888888885,0.045,0.062,0.03
8,17,33,1,8,0.34000000000000014,2,4,86,13,61,28,0.7700000000000004,0.24000000000000007,0.060000000000000005,0.08,4,3,1,1,7,4,1,2,2,0,18,7,Lc,0.11,0.06,0.060000000000000005,0.04
8,17,34,1,4,0.17,2,5,102,40,39,77,0.5800000000000002,0.18000000000000002,0.13999999999999999,0.02,4,3,2,1,8,5,3,1,2,0,15,7,Lc,0.07250000000000001,0.036000000000000004,0.04666666666666666,0.02
8,18,35,1,5,0.35000000000000014,9,11,4,94,116,2,0.5600000000000002,1.6700000000000013,1.0900000000000007,0.5200000000000002,11,11,6,7,15,18,9,8,6,0,17,7,Lc,0.037333333333333336,0.09277777777777779,0.12111111111111113,0.065
8,18,36,1,6,0.20000000000000004,2,6,58,104,73,80,0.5700000000000002,0.060000000000000005,0.3200000000000001,0.4100000000000002,4,1,2,3,10,1,5,5,4,0,12,7,Lc,0.056999999999999995,0.060000000000000005,0.064,0.08200000000000002
8,19,37,1,5,0.18000000000000002,3,4,7,6,97,48,0.5800000000000002,2.3699999999999934,0.01,0.01,5,15,1,1,10,27,1,1,6,0,19,7,Lc,0.057999999999999996,0.08777777777777779,0.01,0.01
8,19,38,1,8,0.8500000000000005,4,10,109,24,14,83,0.9900000000000005,0.35000000000000014,0.16,0.01,6,2,2,1,12,5,3,1,2,0,17,7,Lc,0.0825,0.07,0.05333333333333332,0.01
8,20,39,1,8,0.23000000000000007,3,5,109,78,115,34,0.5400000000000001,0.19000000000000003,0.05,0.12999999999999998,5,2,1,2,7,2,1,2,2,0,12,7,Lc,0.07714285714285714,0.095,0.05,0.065
8,20,40,1,4,0.34000000000000014,2,4,97,20,45,108,0.9900000000000004,0.02,0.060000000000000005,0.19000000000000003,7,1,1,3,12,1,1,4,2,0,15,7,Lc,0.0825,0.02,0.060000000000000005,0.047499999999999994
8,21,41,1,9,0.10999999999999999,2,3,2,89,67,95,2.0400000000000014,0.01,0.02,0.01,15,1,1,1,24,1,1,1,4,0,16,7,Lc,0.085,0.01,0.02,0.01
8,21,42,1,6,1.320000000000001,7,20,98,30,79,15,1.570000000000001,0.36000000000000015,0.08,0.02,8,2,1,1,21,3,1,1,4,0,16,7,Lc,0.07476190476190477,0.12000000000000002,0.08,0.02
8,22,43,1,5,0.13999999999999999,2,3,1,10,102,84,0.5600000000000002,0.07,0.15,0.02,4,1,2,1,6,1,2,1,6,0,17,7,Lc,0.09333333333333334,0.07,0.07499999999999998,0.02
8,22,44,1,3,0.36000000000000015,2,6,45,94,96,60,0.6700000000000003,0.23000000000000007,0.05,0.17,4,3,1,1,10,5,1,1,5,0,15,7,Lc,0.067,0.046,0.05,0.17
9,1,1,0,8,1.0200000000000007,2,7,110,112,35,36,2.0200000000000014,0.6600000000000004,0.7000000000000004,1.6000000000000012,4,2,1,3,10,3,1,5,2,0,14,7,Lc,0.20200000000000004,0.22000000000000006,0.7000000000000004,0.3200000000000001
9,1,2,0,3,0.49000000000000027,2,3,47,49,44,104,1.3900000000000008,2.7499999999999853,0.37000000000000016,0.36000000000000015,4,4,2,2,7,13,4,2,5,0,16,7,Lc,0.19857142857142865,0.21153846153846162,0.0925,0.18000000000000002
9,2,3,0,3,1.1100000000000008,3,10,58,49,117,73,4.659999999999969,0.16,0.08,0.9200000000000006,9,1,1,2,23,1,1,3,5,0,13,7,Lc,0.202608695652174,0.16,0.08,0.3066666666666668
9,2,4,0,9,0.5800000000000003,2,6,63,106,98,67,2.1300000000000017,0.6000000000000003,0.6200000000000003,0.21000000000000005,7,2,2,2,13,2,3,2,4,0,12,7,Lc,0.1638461538461539,0.3000000000000001,0.20666666666666672,0.10499999999999998
9,3,5,0,1,0.3000000000000001,2,3,29,106,34,99,0.6200000000000002,1.470000000000001,0.2800000000000001,1.8300000000000014,4,2,2,3,5,7,2,13,5,0,14,7,Lc,0.12400000000000003,0.21000000000000005,0.14,0.14076923076923079
9,3,6,0,8,0.20000000000000004,2,2,14,109,22,111,14.829999999999732,0.01,0.01,0.02,20,1,1,1,56,1,1,1,2,0,16,7,Lc,0.26482142857142865,0.01,0.01,0.02
9,4,7,0,5,0.4400000000000002,2,4,1,5,53,100,0.9500000000000004,3.5499999999999683,0.5000000000000002,2.1399999999999983,4,7,1,6,6,10,1,11,6,0,18,7,Lc,0.15833333333333338,0.35500000000000015,0.5000000000000002,0.1945454545454546
9,4,8,0,8,0.6200000000000003,2,7,113,117,21,16,2.370000000000002,0.7700000000000005,0.23000000000000007,1.5900000000000012,8,2,1,4,17,4,1,5,2,0,16,7,Lc,0.1394117647058824,0.19250000000000006,0.23000000000000007,0.31800000000000017
9,5,9,0,2,0.3100000000000001,2,3,81,13,74,17,1.3900000000000008,1.8500000000000014,0.10999999999999999,0.17,6,5,2,1,7,10,2,1,3,0,18,7,Lc,0.19857142857142862,0.18500000000000005,0.055,0.17
9,5,10,0,1,0.7500000000000004,8,9,31,1,29,28,1.2600000000000007,1.1900000000000008,0.8100000000000005,0.3900000000000002,10,2,3,2,11,4,6,4,5,0.5,36,7,Lc,0.11454545454545458,0.2975000000000001,0.135,0.09749999999999999
9,6,11,0,9,0.5800000000000003,2,7,62,65,72,114,1.9000000000000012,3.93999999999996,0.12999999999999998,0.17,5,10,2,1,13,17,2,1,4,0.5,26,7,Lc,0.1461538461538462,0.23176470588235304,0.065,0.17
9,6,12,0,6,0.49000000000000027,2,6,54,97,28,55,1.610000000000001,1.6400000000000012,2.06,0.4000000000000002,4,4,6,2,14,9,8,2,4,0,15,7,Lc,0.11500000000000002,0.18222222222222229,0.25750000000000006,0.2000000000000001
9,7,13,1,5,0.4000000000000002,6,8,5,12,11,28,0.7300000000000003,1.8100000000000014,0.26000000000000006,0.8500000000000005,7,5,3,1,9,9,3,1,6,0.5,41,7,Lc,0.08111111111111112,0.20111111111111118,0.08666666666666666,0.8500000000000005
9,7,14,1,8,0.34000000000000014,2,3,117,113,14,114,2.559999999999997,0.6300000000000003,0.9800000000000006,0.4000000000000002,9,2,5,2,13,2,8,2,2,0.5,18,7,Lc,0.19692307692307698,0.3150000000000001,0.12250000000000003,0.20000000000000007
9,8,15,1,9,0.34000000000000014,2,2,14,69,72,23,4.249999999999961,0.04,0.9600000000000006,1.8100000000000014,8,1,3,6,23,1,4,11,4,0,20,7,Lc,0.18478260869565222,0.04,0.2400000000000001,0.1645454545454546
9,8,16,1,4,0.21000000000000005,3,3,1,28,101,32,11.769999999999799,1.5900000000000012,0.9600000000000006,0.01,19,2,2,1,63,3,2,1,2,0,18,7,Lc,0.18682539682539687,0.5300000000000004,0.4800000000000003,0.01
9,9,17,1,1,0.5300000000000002,2,3,31,2,12,4,2.3900000000000015,0.7900000000000005,1.5600000000000012,0.5700000000000003,8,2,5,5,13,2,6,5,5,0.5,41,7,Lc,0.18384615384615388,0.3950000000000002,0.2600000000000001,0.11400000000000002
9,9,18,1,3,0.35000000000000014,2,3,39,100,101,73,0.9300000000000004,0.7000000000000004,2.389999999999993,0.7700000000000005,4,2,4,2,7,3,11,4,5,0,12,7,Lc,0.13285714285714287,0.23333333333333342,0.21727272727272737,0.1925000000000001
9,10,19,1,5,0.23000000000000007,2,3,2,1,3,99,1.4300000000000008,4.939999999999939,11.329999999999803,0.02,5,10,16,1,8,16,32,1,6,0.5,38,7,Lc,0.17875000000000005,0.30875000000000014,0.35406250000000017,0.02
9,10,20,1,7,0.38000000000000017,2,4,94,92,21,113,2.0200000000000014,0.3300000000000001,0.8400000000000005,1.400000000000001,7,2,2,3,15,3,4,4,3,0,14,7,Lc,0.13466666666666668,0.11000000000000001,0.21000000000000005,0.3500000000000002
9,11,21,1,2,0.6100000000000003,3,5,105,11,78,2,1.8700000000000012,0.4100000000000002,0.3000000000000001,1.1900000000000008,8,1,1,6,14,1,1,9,3,0,17,7,Lc,0.1335714285714286,0.4100000000000002,0.3000000000000001,0.13222222222222224
9,11,22,1,7,0.47000000000000025,2,5,91,96,90,109,1.0800000000000005,1.6000000000000012,0.21000000000000005,0.5200000000000002,4,6,1,3,7,11,1,3,3,0.5,20,7,Lc,0.15428571428571433,0.14545454545454548,0.21000000000000005,0.17333333333333334
9,12,23,1,1,0.4200000000000002,3,4,34,36,119,111,2.0900000000000016,0.23000000000000007,1.6200000000000012,0.3100000000000001,5,1,4,3,14,1,5,4,5,0,14,7,Lc,0.1492857142857143,0.23000000000000007,0.3240000000000001,0.07750000000000001
9,12,24,1,6,0.18000000000000002,2,3,50,49,106,108,0.5900000000000002,1.360000000000001,0.5100000000000002,0.46000000000000024,4,4,2,3,5,7,2,4,4,0,12,7,Lc,0.11800000000000001,0.19428571428571434,0.2550000000000001,0.11499999999999999
9,13,25,1,10,0.4200000000000002,3,5,83,19,82,77,1.720000000000001,0.6200000000000003,1.1400000000000008,0.49000000000000027,7,2,5,3,14,3,6,3,6,0.5,24,7,Lc,0.12285714285714287,0.2066666666666667,0.19000000000000006,0.16333333333333336
9,13,26,1,9,0.4400000000000002,2,3,67,31,66,110,1.4300000000000008,1.410000000000001,0.4100000000000002,0.6300000000000003,4,3,3,4,9,5,4,4,4,0,15,7,Lc,0.1588888888888889,0.2820000000000001,0.10250000000000001,0.15750000000000003
9,14,27,1,6,0.38000000000000017,2,3,51,59,50,35,0.8000000000000004,0.7400000000000004,1.410000000000001,0.35000000000000014,4,2,6,2,7,3,7,4,4,0.5,29,7,Lc,0.1142857142857143,0.24666666666666673,0.20142857142857148,0.0875
9,14,28,1,8,0.2700000000000001,1,2,109,113,78,41,1.3700000000000008,0.5900000000000003,0.9800000000000006,1.1600000000000008,3,2,2,4,8,2,7,6,2,0,12,7,Lc,0.17125000000000004,0.2950000000000001,0.14,0.19333333333333338
9,15,29,1,2,0.6900000000000004,2,5,83,69,24,77,3.099999999999993,0.26000000000000006,0.37000000000000016,0.15,5,1,2,2,19,1,3,2,3,0,16,7,Lc,0.16315789473684214,0.26000000000000006,0.12333333333333338,0.07499999999999998
9,15,30,1,1,0.38000000000000017,4,5,25,9,4,26,0.8700000000000004,6.489999999999906,1.1100000000000008,1.8800000000000014,6,15,8,6,8,22,11,8,5,0,22,7,Lc,0.10875000000000003,0.29500000000000015,0.10090909090909092,0.2350000000000001
9,16,31,1,6,0.45000000000000023,2,4,56,7,42,9,0.9600000000000004,1.7300000000000013,0.9600000000000006,0.6900000000000004,4,3,4,2,6,9,6,6,4,0,21,7,Lc,0.16000000000000003,0.1922222222222223,0.16000000000000003,0.115
9,16,32,1,10,0.8000000000000005,2,5,19,62,28,14,2.1600000000000015,0.7800000000000005,1.1000000000000008,0.5500000000000003,4,2,4,2,11,2,5,2,6,0,21,7,Lc,0.1963636363636364,0.3900000000000002,0.22000000000000006,0.2750000000000001
9,17,33,1,8,0.5600000000000003,2,3,53,56,110,47,1.1300000000000006,0.8900000000000006,0.5700000000000003,2.3299999999999943,5,2,2,5,8,5,3,10,2,0,15,7,Lc,0.14125000000000004,0.17800000000000002,0.19000000000000003,0.23300000000000007
9,17,34,1,9,0.4100000000000002,2,4,63,64,32,25,0.8800000000000004,1.300000000000001,1.8500000000000014,0.13999999999999999,3,5,3,1,5,6,6,1,4,0,18,7,Lc,0.17600000000000007,0.21666666666666673,0.30833333333333346,0.13999999999999999
9,18,35,1,2,0.12999999999999998,1,2,77,116,32,119,1.3000000000000007,1.1300000000000008,0.5600000000000003,0.38000000000000017,3,2,2,3,8,5,5,5,3,0,12,7,Lc,0.16250000000000003,0.22600000000000003,0.11200000000000002,0.076
9,18,36,1,7,0.5300000000000002,2,5,91,86,65,63,1.4800000000000009,0.5400000000000003,0.5600000000000003,1.0600000000000007,5,2,2,4,13,2,3,8,3,0,14,7,Lc,0.11384615384615386,0.2700000000000001,0.1866666666666667,0.13250000000000003
9,19,37,1,8,0.5100000000000002,2,4,110,4,116,5,0.8800000000000003,2.099999999999999,0.4000000000000002,0.2700000000000001,3,4,2,1,5,7,3,1,2,0,16,7,Lc,0.17600000000000005,0.3000000000000001,0.13333333333333336,0.2700000000000001
9,19,38,1,7,0.8600000000000005,2,7,93,21,51,22,3.9799999999999782,0.5600000000000003,0.2900000000000001,0.12999999999999998,6,3,1,1,15,3,1,1,3,0,19,7,Lc,0.2653333333333335,0.18666666666666673,0.2900000000000001,0.12999999999999998
9,20,39,1,3,0.7100000000000004,4,6,6,66,120,63,3.489999999999985,0.6600000000000004,0.10999999999999999,0.7900000000000005,9,5,1,2,19,8,1,3,5,0,16,7,Lc,0.18368421052631584,0.08250000000000002,0.10999999999999999,0.2633333333333334
9,20,40,1,1,0.11999999999999998,2,2,15,96,36,104,16.219999999999718,0.02,0.01,0.01,20,1,1,1,81,1,1,1,5,0,16,7,Lc,0.200246913580247,0.02,0.01,0.01
9,21,41,1,6,0.2700000000000001,2,3,51,55,58,50,1.1100000000000005,0.5500000000000003,0.23000000000000007,0.18000000000000002,5,2,1,1,7,2,1,1,4,1,48,7,Lc,0.15857142857142859,0.2750000000000001,0.23000000000000007,0.18000000000000002
9,21,42,1,7,0.5900000000000003,2,8,94,36,114,92,1.2500000000000007,0.5700000000000003,0.6300000000000003,0.22000000000000006,4,3,2,1,10,4,4,1,3,0,13,7,Lc,0.12500000000000003,0.14250000000000002,0.15750000000000003,0.22000000000000006
10,1,1,0,2,0.19000000000000003,2,3,75,100,78,72,0.37000000000000005,0.25000000000000006,0.09999999999999999,0.01,4,2,2,1,5,2,2,1,3,0,12,7,Lc,0.07400000000000001,0.125,0.05,0.01
10,1,2,0,6,0.22000000000000006,3,4,55,54,23,120,0.30000000000000004,0.060000000000000005,0.11999999999999998,0.09999999999999999,4,1,2,1,5,1,2,1,4,0,16,7,Lc,0.060000000000000005,0.060000000000000005,0.06,0.09999999999999999
10,2,3,0,10,0.18000000000000002,2,3,21,20,14,69,0.19000000000000003,0.11999999999999998,7.049999999999894,0.01,3,1,14,1,4,1,25,1,6,0.5,40,7,Lc,0.0475,0.11999999999999998,0.28200000000000014,0.01
10,2,4,0,2,0.18000000000000002,2,3,75,42,100,108,0.2,0.26000000000000006,0.5700000000000003,0.01,4,1,1,1,5,1,1,1,3,0,12,7,Lc,0.04,0.26000000000000006,0.5700000000000003,0.01
10,3,5,0,1,0.17,2,3,28,10,100,64,0.23,0.24000000000000007,0.05,0.05,4,2,1,1,5,2,1,1,5,0,17,7,Lc,0.046000000000000006,0.12000000000000001,0.05,0.05
10,3,6,0,7,0.3300000000000001,2,4,93,85,14,113,0.5000000000000001,0.16,0.12999999999999998,0.4100000000000002,4,2,1,1,6,2,1,1,3,0,14,7,Lc,0.08333333333333334,0.07999999999999999,0.12999999999999998,0.4100000000000002
10,4,7,0,2,0.25000000000000006,2,5,77,112,24,65,0.38,0.22000000000000006,0.13999999999999999,0.02,4,1,2,1,7,1,3,1,3,0,15,7,Lc,0.054285714285714284,0.22000000000000006,0.04666666666666667,0.02
10,4,8,0,7,0.16,2,3,44,86,106,40,0.38000000000000006,0.01,0.060000000000000005,0.13999999999999999,3,1,1,2,4,1,1,3,3,0,15,7,Lc,0.09500000000000001,0.01,0.060000000000000005,0.04666666666666667
10,5,9,0,9,0.13999999999999999,2,2,4,95,66,5,3.4899999999999727,0.01,0.01,0.01,10,1,1,1,12,1,1,1,4,0,19,7,Lc,0.2908333333333335,0.01,0.01,0.01
10,5,10,0,6,0.2900000000000001,5,6,55,49,23,56,0.3600000000000001,0.07,0.12999999999999998,0.02,6,1,2,1,7,1,3,1,4,0.5,30,7,Lc,0.05142857142857143,0.07,0.043333333333333335,0.02
10,6,11,0,8,0.3000000000000001,2,4,115,25,52,17,0.4000000000000001,0.09999999999999999,0.10999999999999999,0.09,4,1,1,1,6,1,1,1,2,0,17,7,Lc,0.06666666666666667,0.09999999999999999,0.10999999999999999,0.09
10,6,12,0,2,0.23000000000000007,2,3,106,74,103,61,0.4300000000000001,0.01,0.12999999999999998,0.09,3,1,1,1,4,1,1,1,3,0,11,7,Lc,0.10750000000000001,0.01,0.12999999999999998,0.09
10,7,13,1,10,0.22000000000000006,2,4,19,24,101,15,0.2700000000000001,0.08,1.6700000000000013,0.01,4,1,6,1,6,1,6,1,6,0.5,38,7,Lc,0.045000000000000005,0.08,0.27833333333333343,0.01
10,7,14,1,8,0.4100000000000002,8,9,55,120,51,119,0.5100000000000002,0.11999999999999998,0.11999999999999998,0.060000000000000005,9,1,1,1,10,1,1,1,2,0,12,7,Lc,0.051,0.11999999999999998,0.11999999999999998,0.060000000000000005
10,8,15,1,9,0.19000000000000003,2,3,70,5,62,41,0.38000000000000006,0.15,0.04,0.2800000000000001,4,1,1,1,5,2,1,1,4,0,19,7,Lc,0.07600000000000001,0.07500000000000001,0.04,0.2800000000000001
10,8,16,1,7,0.17,4,4,95,118,111,110,0.26,0.7700000000000005,2.759999999999985,1.8500000000000014,6,2,5,10,7,4,6,12,3,0.5,15,7,Lc,0.037142857142857144,0.19250000000000003,0.46000000000000024,0.1541666666666667
10,9,17,1,3,0.25000000000000006,2,4,44,78,49,45,0.37000000000000005,0.10999999999999999,0.16,0.38000000000000017,4,1,1,2,6,1,1,3,5,0,17,7,Lc,0.06166666666666667,0.10999999999999999,0.16,0.12666666666666668
10,9,18,1,4,0.17,2,3,108,64,103,89,0.27,0.09,0.08,0.24000000000000007,4,1,1,2,5,1,1,2,2,0,11,7,Lc,0.054,0.09,0.08,0.12000000000000002
10,10,19,1,1,0.5800000000000003,11,13,25,32,70,72,0.6700000000000003,0.12999999999999998,3.92999999999996,0.03,12,2,8,1,14,2,11,1,5,0,18,7,Lc,0.04785714285714286,0.065,0.35727272727272746,0.03
10,10,20,1,3,0.23000000000000007,3,4,91,37,90,50,0.39000000000000007,0.03,0.23000000000000007,0.3000000000000001,4,1,2,2,5,1,2,2,5,0,15,7,Lc,0.078,0.03,0.11500000000000002,0.15000000000000005
10,11,21,1,2,0.26000000000000006,2,3,81,78,28,35,0.3500000000000001,0.24000000000000007,0.03,0.18000000000000002,4,2,1,2,5,2,1,2,3,0,16,7,Lc,0.06999999999999999,0.12,0.03,0.09
10,11,22,1,3,0.23000000000000007,2,5,15,44,90,24,0.36000000000000004,0.02,0.12999999999999998,0.07,3,1,1,1,6,1,1,1,5,0,20,7,Lc,0.06,0.02,0.12999999999999998,0.07
10,12,23,1,3,0.23000000000000007,2,3,48,62,66,78,0.8100000000000004,0.5200000000000002,0.01,0.01,4,3,1,1,7,3,1,1,5,0,16,7,Lc,0.11571428571428574,0.1733333333333334,0.01,0.01
10,12,24,1,1,0.22000000000000006,2,3,35,32,5,91,0.38000000000000006,0.03,2.489999999999991,0.03,3,1,4,1,4,1,4,1,5,0,19,7,Lc,0.095,0.03,0.6225000000000004,0.03
10,13,25,1,6,0.21000000000000005,2,3,14,51,27,36,0.30000000000000004,0.01,0.07,0.05,3,1,1,1,4,1,1,1,4,0,20,7,Lc,0.075,0.01,0.07,0.05
10,13,26,1,4,0.49000000000000027,2,3,11,107,70,67,0.7200000000000003,0.02,0.36000000000000015,0.8800000000000006,3,1,1,2,4,1,1,2,2,0,16,7,Lc,0.18000000000000005,0.02,0.36000000000000015,0.4400000000000002
10,14,27,1,6,0.19000000000000003,1,2,95,56,87,46,0.37000000000000005,0.02,0.09,0.03,2,1,2,1,3,1,2,1,4,0,15,7,Lc,0.12333333333333334,0.02,0.045,0.03
10,14,28,1,2,0.15,2,3,84,78,20,26,0.22,0.03,0.15,0.05,3,1,1,1,4,1,1,1,3,0,17,7,Lc,0.05500000000000001,0.03,0.15,0.05
10,15,29,1,6,0.3200000000000001,2,6,52,21,20,100,0.5100000000000001,0.02,0.16,0.22000000000000006,4,1,1,2,8,1,1,2,4,0,18,7,Lc,0.06375,0.02,0.16,0.11000000000000001
10,15,30,1,8,0.17,2,4,78,119,9,114,0.28,0.01,0.13999999999999999,0.02,3,1,2,1,5,1,2,1,2,0,13,7,Lc,0.056,0.01,0.07,0.02
10,16,31,1,2,0.18000000000000002,2,3,83,49,57,32,0.8200000000000004,0.02,0.01,0.08,4,1,1,1,5,1,1,1,3,0,16,7,Lc,0.16400000000000006,0.02,0.01,0.08
10,16,32,1,7,0.22000000000000006,2,2,5,101,97,10,9.979999999999837,0.03,0.01,0.01,16,1,1,1,35,1,1,1,3,0,16,7,Lc,0.28514285714285725,0.03,0.01,0.01
10,17,33,1,1,0.21000000000000005,3,5,29,3,25,103,0.38000000000000006,0.10999999999999999,0.08,0.09999999999999999,5,1,1,1,7,1,1,1,5,0,18,7,Lc,0.054285714285714284,0.10999999999999999,0.08,0.09999999999999999
10,17,34,1,10,0.11999999999999998,2,3,24,15,13,14,0.15999999999999998,0.02,2.959999999999981,2.5599999999999894,4,1,7,8,5,1,13,10,6,1,72,7,Lc,0.032,0.02,0.22769230769230778,0.2560000000000001
10,18,35,1,2,0.4300000000000002,2,4,77,51,22,19,0.6000000000000002,0.01,0.7400000000000004,0.02,4,1,2,1,6,1,2,1,3,0,19,7,Lc,0.1,0.01,0.37000000000000016,0.02
10,18,36,1,7,0.26000000000000006,2,4,85,5,1,37,0.32000000000000006,0.17,0.34000000000000014,0.5700000000000003,4,1,4,2,6,1,4,2,3,0,20,7,Lc,0.05333333333333333,0.17,0.08499999999999999,0.2850000000000001
10,19,37,1,4,0.17,3,4,104,97,107,41,0.22000000000000003,0.03,0.08,0.060000000000000005,4,1,1,1,5,1,1,1,2,0.5,17,7,Lc,0.044,0.03,0.08,0.060000000000000005
10,19,38,1,5,0.35000000000000014,6,7,6,30,7,79,0.4500000000000001,0.08,0.09,0.15,8,1,1,1,9,1,1,1,6,0,20,7,Lc,0.05,0.08,0.09,0.15
10,20,39,1,1,0.18000000000000002,2,3,28,29,92,95,0.27,0.01,0.21000000000000005,0.2800000000000001,3,1,1,2,4,1,1,2,5,0,16,7,Lc,0.0675,0.01,0.21000000000000005,0.14000000000000004
10,20,40,1,2,0.15,2,3,83,80,73,5,0.25,0.02,0.07,0.09,3,1,1,2,4,1,1,2,3,0.5,24,7,Lc,0.0625,0.02,0.07,0.045
10,21,41,1,7,0.23000000000000007,2,3,98,85,26,96,0.5600000000000002,0.04,0.03,0.08,5,1,1,1,6,1,1,1,3,0,13,7,Lc,0.09333333333333334,0.04,0.03,0.08
10,21,42,1,8,0.25000000000000006,2,4,80,120,73,119,0.4,0.03,0.10999999999999999,0.05,3,1,1,1,5,1,1,1,2,0,10,7,Lc,0.08,0.03,0.10999999999999999,0.05
10,22,43,1,8,0.25000000000000006,2,6,118,96,46,37,0.5800000000000002,1.2500000000000009,0.02,0.01,4,5,1,1,8,5,1,1,2,0,15,7,Lc,0.07250000000000001,0.2500000000000001,0.02,0.01
10,22,44,1,2,0.2700000000000001,3,6,28,34,65,83,2.280000000000001,0.02,0.01,1.440000000000001,6,1,1,4,9,1,1,4,3,0,17,7,Lc,0.2533333333333335,0.02,0.01,0.3600000000000002
11,1,1,0,5,0.25000000000000006,2,3,12,52,79,50,1.640000000000001,0.9200000000000006,0.16,0.08,5,3,1,1,7,5,1,1,6,0,17,7,Lc,0.23428571428571437,0.18400000000000005,0.16,0.08
11,1,2,0,4,0.21000000000000005,2,2,19,95,107,42,5.779999999999926,0.01,0.01,0.01,9,1,1,1,14,1,1,1,2,0,16,7,Lc,0.4128571428571428,0.01,0.01,0.01
11,2,3,0,3,0.24000000000000007,2,4,37,103,79,69,2.0500000000000016,0.45000000000000023,0.10999999999999999,0.20000000000000004,6,2,1,1,12,3,1,1,5,0,14,7,Lc,0.1708333333333334,0.15,0.10999999999999999,0.20000000000000004
11,2,4,0,7,0.21000000000000005,2,3,114,111,60,52,2.3299999999999987,0.25000000000000006,0.10999999999999999,0.08,7,1,1,1,9,1,1,1,3,0,12,7,Lc,0.258888888888889,0.25000000000000006,0.10999999999999999,0.08
11,3,5,0,9,0.25000000000000006,2,3,68,46,97,64,1.1400000000000006,0.9400000000000006,0.21000000000000005,0.5500000000000003,4,3,1,2,5,3,2,3,4,0,15,7,Lc,0.22800000000000012,0.31333333333333346,0.10500000000000001,0.1833333333333334
11,3,6,0,7,0.15,2,2,13,93,55,33,2.1200000000000014,0.09,0.3200000000000001,0.16,6,1,2,2,6,1,2,3,3,0,18,7,Lc,0.3533333333333335,0.09,0.16,0.05333333333333332
11,4,7,0,10,0.3100000000000001,3,3,108,31,50,14,2.749999999999992,0.07,0.36000000000000015,0.05,9,1,2,1,12,1,2,1,6,0,17,7,Lc,0.22916666666666674,0.07,0.18000000000000005,0.05
11,4,8,0,7,0.48000000000000026,8,8,94,113,88,38,1.660000000000001,0.6000000000000003,0.11999999999999998,1.6400000000000012,10,2,1,3,11,2,1,4,3,0,13,7,Lc,0.15090909090909096,0.3000000000000001,0.11999999999999998,0.41000000000000025
11,5,9,0,1,0.3200000000000001,5,5,30,1,52,99,1.680000000000001,1.480000000000001,0.07,0.07,7,3,1,1,8,4,1,1,5,0,17,7,Lc,0.21000000000000008,0.37000000000000016,0.07,0.07
11,5,10,0,8,0.25000000000000006,2,3,37,110,74,117,1.4100000000000008,0.23000000000000007,0.4000000000000002,0.11999999999999998,4,1,1,1,6,1,2,1,2,0,12,7,Lc,0.2350000000000001,0.23000000000000007,0.20000000000000007,0.11999999999999998
11,6,11,0,8,0.38000000000000017,2,3,117,55,59,49,2.0300000000000016,0.13999999999999999,0.16,0.10999999999999999,4,1,1,1,7,1,1,1,2,0.5,26,7,Lc,0.2900000000000001,0.13999999999999999,0.16,0.10999999999999999
11,6,12,0,9,0.2700000000000001,2,3,101,105,72,13,1.8500000000000012,0.4000000000000002,0.11999999999999998,0.17,4,1,1,1,6,1,1,1,4,0,14,7,Lc,0.30833333333333346,0.4000000000000002,0.11999999999999998,0.17
11,7,13,1,3,0.3000000000000001,2,3,114,94,17,55,2.2600000000000016,0.5100000000000002,0.09999999999999999,0.17,6,1,1,1,7,1,1,1,5,0,15,7,Lc,0.322857142857143,0.5100000000000002,0.09999999999999999,0.17
11,7,14,1,1,0.17,2,3,5,101,79,32,3.299999999999977,0.01,0.01,0.01,7,1,1,1,14,1,1,1,5,0,16,7,Lc,0.23571428571428582,0.01,0.01,0.01
11,8,15,1,7,0.3000000000000001,2,3,20,88,96,112,1.750000000000001,0.4000000000000002,0.17,0.10999999999999999,3,1,1,1,4,1,1,1,3,0,14,7,Lc,0.4375000000000003,0.4000000000000002,0.17,0.10999999999999999
11,8,16,1,3,0.17,2,3,83,106,8,53,1.4000000000000008,0.5200000000000002,0.23000000000000007,0.46000000000000024,4,2,1,3,7,2,1,3,5,0,15,7,Lc,0.20000000000000007,0.2600000000000001,0.23000000000000007,0.15333333333333335
11,9,17,1,8,0.3200000000000001,2,3,118,54,19,60,1.3400000000000007,0.5200000000000002,0.34000000000000014,0.05,3,2,2,1,4,3,4,1,2,0,16,7,Lc,0.3350000000000002,0.17333333333333334,0.085,0.05
11,9,18,1,9,0.35000000000000014,2,3,64,65,89,6,1.0500000000000005,4.839999999999941,0.02,0.01,4,4,1,1,5,5,1,1,4,0,17,7,Lc,0.21000000000000008,0.9679999999999906,0.02,0.01
11,10,19,1,4,0.26000000000000006,2,3,70,13,16,69,1.8200000000000012,0.18000000000000002,0.19000000000000003,0.35000000000000014,4,1,1,2,5,1,1,2,2,0,20,7,Lc,0.3640000000000002,0.18000000000000002,0.19000000000000003,0.17500000000000002
11,10,20,1,3,0.22000000000000006,2,3,82,52,10,120,2.3199999999999994,2.199999999999997,0.15,0.04,5,2,1,1,6,3,1,1,5,0,15,7,Lc,0.3866666666666669,0.7333333333333338,0.15,0.04
11,11,21,1,9,0.2900000000000001,2,3,88,65,107,9,1.750000000000001,0.5500000000000003,0.34000000000000014,0.19000000000000003,5,2,2,1,7,3,2,1,4,0,15,7,Lc,0.2500000000000001,0.18333333333333338,0.17,0.19000000000000003
11,11,22,1,3,0.08,2,2,37,13,24,41,1.260000000000001,0.45000000000000023,0.21000000000000005,0.09999999999999999,4,1,1,1,5,1,1,1,5,0,22,7,Lc,0.2520000000000001,0.45000000000000023,0.21000000000000005,0.09999999999999999
11,12,23,1,9,0.2900000000000001,2,3,64,108,47,68,1.1300000000000006,0.5300000000000002,0.3000000000000001,0.12999999999999998,4,1,1,1,6,1,1,1,4,0,15,7,Lc,0.1883333333333334,0.5300000000000002,0.3000000000000001,0.12999999999999998
11,12,24,1,6,0.49000000000000027,2,4,55,93,58,15,1.700000000000001,0.3300000000000001,0.3000000000000001,0.24000000000000007,4,1,1,2,6,1,1,3,4,0,17,7,Lc,0.28333333333333344,0.3300000000000001,0.3000000000000001,0.07999999999999999
11,13,25,1,7,0.13999999999999999,1,2,51,55,56,44,1.4600000000000009,0.5400000000000003,0.15,0.07,3,2,1,1,4,3,1,1,3,0.5,29,7,Lc,0.36500000000000016,0.18000000000000002,0.15,0.07
11,13,26,1,1,0.10999999999999999,2,2,31,5,8,66,1.0000000000000004,1.310000000000001,0.8000000000000005,0.03,3,3,2,1,4,3,2,1,5,0,21,7,Lc,0.2500000000000001,0.43666666666666687,0.4000000000000002,0.03
11,14,27,1,6,0.21000000000000005,2,3,109,60,7,83,1.7700000000000011,2.9299999999999815,0.01,0.05,6,3,1,1,8,4,1,1,4,0,15,7,Lc,0.22125000000000009,0.7325000000000005,0.01,0.05
11,14,28,1,1,0.08,2,2,14,90,86,66,18.06000000000001,1.490000000000001,0.02,0.01,18,2,1,1,28,2,1,1,5,0,16,7,Lc,0.645,0.7450000000000006,0.02,0.01
11,15,29,1,10,0.16,2,4,71,38,16,62,1.730000000000001,0.7800000000000005,0.03,0.18000000000000002,5,1,1,1,7,1,1,1,6,0,19,7,Lc,0.24714285714285728,0.7800000000000005,0.03,0.18000000000000002
11,15,30,1,7,0.07,2,2,94,6,87,59,1.1200000000000008,0.7000000000000004,0.08,0.36000000000000015,4,2,1,2,6,4,1,2,3,0,16,7,Lc,0.18666666666666673,0.17500000000000002,0.08,0.18000000000000005
11,16,31,1,2,0.16,2,5,23,76,50,60,1.630000000000001,0.16,0.19000000000000003,0.09,4,1,2,1,7,1,2,1,3,0,17,7,Lc,0.23285714285714298,0.16,0.095,0.09
11,16,32,1,7,0.5200000000000002,8,8,70,95,115,109,19.59000000000018,0.01,0.01,0.01,20,1,1,1,36,1,1,1,3,0,11,7,Lc,0.544166666666667,0.01,0.01,0.01
11,17,33,1,7,0.5500000000000003,2,3,45,12,96,10,3.279999999999986,0.49000000000000027,0.13999999999999999,0.02,7,2,1,1,11,2,1,1,3,0,20,7,Lc,0.2981818181818183,0.24500000000000013,0.13999999999999999,0.02
11,17,34,1,1,0.5500000000000003,6,6,30,110,74,84,1.3200000000000007,0.5100000000000002,0.3100000000000001,0.4200000000000002,7,2,1,2,7,2,1,3,5,0,13,7,Lc,0.18857142857142867,0.25500000000000006,0.3100000000000001,0.14
11,18,35,1,6,2.109999999999999,5,7,96,88,55,112,3.36,0.38000000000000017,0.7300000000000004,0.9000000000000006,8,2,2,3,11,2,2,5,4,0,12,7,Lc,0.30545454545454565,0.19000000000000006,0.3650000000000002,0.18000000000000005
11,18,36,1,9,0.35000000000000014,5,5,62,5,68,11,1.1400000000000006,0.5400000000000003,0.15,0.21000000000000005,7,2,1,2,7,6,1,3,4,0,20,7,Lc,0.1628571428571429,0.09000000000000002,0.15,0.06999999999999999
11,19,37,1,4,0.16,2,4,105,75,102,40,0.7800000000000004,1.2500000000000009,1.6400000000000012,0.09999999999999999,3,4,3,2,5,4,4,2,2,0,12,7,Lc,0.15600000000000006,0.31250000000000017,0.4100000000000002,0.05
11,19,38,1,10,0.03,2,2,18,15,34,93,1.7900000000000014,0.2800000000000001,0.34000000000000014,0.09,4,1,1,1,12,1,1,1,6,0,20,7,Lc,0.1491666666666667,0.2800000000000001,0.34000000000000014,0.09
11,20,39,1,2,0.12999999999999998,2,4,77,104,29,73,0.9500000000000005,2.1699999999999977,0.02,0.04,4,5,1,1,6,5,1,1,3,0,13,7,Lc,0.1583333333333334,0.4340000000000002,0.02,0.04
11,20,40,1,7,0.10999999999999999,2,3,92,20,16,94,1.450000000000001,0.8300000000000005,0.7400000000000004,0.02,5,2,2,1,7,2,2,1,3,0,18,7,Lc,0.2071428571428572,0.41500000000000015,0.3700000000000002,0.02
11,21,41,1,3,1.0900000000000007,4,6,98,97,77,43,2.0100000000000016,1.8700000000000014,0.04,0.19000000000000003,5,2,1,2,7,2,1,2,5,0,12,7,Lc,0.2871428571428573,0.9350000000000007,0.04,0.09500000000000001
11,21,42,1,1,0.4400000000000002,3,5,17,111,32,109,2.4400000000000017,0.38000000000000017,0.07,0.12999999999999998,7,1,1,1,10,1,1,1,5,0,15,7,Lc,0.2440000000000001,0.38000000000000017,0.07,0.12999999999999998
11,22,43,1,10,3.9699999999999593,5,8,16,13,69,40,6.48999999999995,10.829999999999814,0.03,0.01,9,11,2,1,13,17,2,1,6,0,21,7,Lc,0.49923076923076953,0.6370588235294121,0.015,0.01
11,22,44,1,7,0.3100000000000001,2,3,35,12,89,11,2.2800000000000016,0.2800000000000001,0.8700000000000006,0.03,5,1,2,1,10,1,2,1,3,0,20,7,Lc,0.2280000000000001,0.2800000000000001,0.4350000000000003,0.03
12,1,1,0,9,0.09,1,2,68,62,101,32,0.24,0.04,0.060000000000000005,0.05,2,1,1,1,3,1,1,1,4,0,15,7,Lc,0.08,0.04,0.060000000000000005,0.05
12,1,2,0,6,0.12999999999999998,2,3,50,55,45,1,0.26999999999999996,0.05,0.08,0.060000000000000005,3,1,1,1,4,1,1,1,4,0,19,7,Lc,0.0675,0.05,0.08,0.060000000000000005
12,2,3,0,8,0.18000000000000002,2,3,111,69,114,35,0.27,0.22000000000000006,0.02,0.03,3,2,1,1,4,2,1,1,2,0,13,7,Lc,0.0675,0.11,0.02,0.03
12,2,4,0,3,0.12999999999999998,2,3,100,45,9,82,0.31,0.05,0.060000000000000005,0.09,3,1,1,1,4,1,1,1,5,0,16,7,Lc,0.07750000000000001,0.05,0.060000000000000005,0.09
12,3,5,0,3,0.15,2,3,10,45,75,112,0.33,0.03,0.09,0.16,3,1,1,1,4,1,1,1,5,0,16,7,Lc,0.0825,0.03,0.09,0.16
12,3,6,0,1,0.19000000000000003,2,2,60,34,85,98,3.0699999999999825,0.7200000000000004,1.6700000000000013,1.2500000000000009,4,2,2,4,4,2,2,5,5,0,14,7,Lc,0.7675000000000005,0.36000000000000015,0.8350000000000005,0.2500000000000001
12,4,7,0,6,0.13999999999999999,2,3,51,24,35,17,0.34,0.09,0.10999999999999999,0.02,4,1,1,1,5,1,1,1,4,0,21,7,Lc,0.068,0.09,0.10999999999999999,0.02
12,4,8,0,3,0.12999999999999998,2,3,65,39,1,111,0.35000000000000003,0.03,0.13999999999999999,0.02,3,1,1,1,4,1,1,1,5,0,17,7,Lc,0.08750000000000002,0.03,0.13999999999999999,0.02
12,5,9,0,2,0.10999999999999999,2,2,97,1,38,42,0.29000000000000004,0.9100000000000006,0.01,0.01,3,3,1,1,3,3,1,1,3,0,18,7,Lc,0.09666666666666668,0.30333333333333345,0.01,0.01
12,5,10,0,7,0.16,2,3,85,88,113,59,0.3,0.03,0.09,0.04,3,1,1,1,4,1,1,1,3,0,12,7,Lc,0.075,0.03,0.09,0.04
12,6,11,0,6,0.12999999999999998,2,3,26,53,4,8,0.32,0.25000000000000006,0.07,0.01,3,2,1,1,4,3,1,1,4,0,21,7,Lc,0.08,0.08333333333333336,0.07,0.01
12,6,12,0,10,0.16,2,3,98,22,96,70,0.34,0.02,0.08,0.05,3,1,1,1,4,1,1,1,6,0,15,7,Lc,0.085,0.02,0.08,0.05
12,7,13,1,1,0.12999999999999998,2,3,59,35,117,57,0.3,0.03,0.060000000000000005,0.04,3,1,1,1,4,1,1,1,5,0,15,7,Lc,0.075,0.03,0.060000000000000005,0.04
12,7,14,1,3,0.13999999999999999,2,3,45,69,103,46,0.24999999999999997,0.25000000000000006,0.07,0.02,4,2,1,1,5,2,1,1,5,0,16,7,Lc,0.05,0.12499999999999999,0.07,0.02
12,8,15,1,4,0.10999999999999999,2,2,91,101,104,12,4.499999999999951,0.08,0.01,0.5200000000000002,5,2,1,3,5,2,1,3,2,0,13,7,Lc,0.8999999999999979,0.04,0.01,0.17333333333333337
12,8,16,1,6,0.18000000000000002,2,3,54,46,48,116,0.32,0.13999999999999999,0.09,0.02,4,1,1,1,5,1,1,1,4,0,16,7,Lc,0.064,0.13999999999999999,0.09,0.02
12,9,17,1,1,0.13999999999999999,2,3,15,27,112,63,0.44000000000000006,0.02,0.02,0.7500000000000004,3,1,1,2,4,1,1,2,5,0,17,7,Lc,0.11000000000000003,0.02,0.02,0.3750000000000002
12,9,18,1,3,0.21000000000000005,2,3,51,42,90,97,0.38000000000000006,0.03,0.08,0.03,3,1,1,1,4,1,1,1,5,0,14,7,Lc,0.095,0.03,0.08,0.03
12,10,19,1,6,0.12999999999999998,1,2,51,103,100,6,0.38,0.11999999999999998,0.02,0.03,3,2,1,1,4,2,1,2,4,0,14,7,Lc,0.09500000000000001,0.060000000000000005,0.02,0.015
12,10,20,1,3,0.16,2,3,18,46,45,120,0.5100000000000001,0.02,1.1000000000000008,0.01,3,1,3,1,4,1,3,1,5,0,18,7,Lc,0.12750000000000003,0.02,0.3666666666666669,0.01
12,11,21,1,3,0.12999999999999998,2,3,48,16,113,56,0.34,0.060000000000000005,3.899999999999961,0.01,4,1,3,1,5,1,3,1,5,0,17,7,Lc,0.068,0.060000000000000005,1.2999999999999872,0.01
12,11,22,1,7,0.15,2,3,94,85,27,97,0.3,0.04,0.07,0.060000000000000005,3,1,1,1,4,1,1,1,3,0,13,7,Lc,0.075,0.04,0.07,0.060000000000000005
12,12,23,1,4,0.18000000000000002,2,3,92,103,11,57,0.36000000000000004,0.09,0.04,0.03,3,1,1,2,4,1,1,2,2,0,15,7,Lc,0.09,0.09,0.04,0.015
12,12,24,1,2,0.11999999999999998,2,3,22,82,73,18,0.4000000000000001,0.01,0.02,0.10999999999999999,3,1,1,1,4,1,1,1,3,0,18,7,Lc,0.10000000000000002,0.01,0.02,0.10999999999999999
12,13,25,1,1,0.13999999999999999,2,3,14,36,29,77,0.35000000000000003,0.04,0.060000000000000005,0.08,3,1,1,1,4,1,1,1,5,0,19,7,Lc,0.08750000000000001,0.04,0.060000000000000005,0.08
12,13,26,1,3,0.11999999999999998,2,3,5,44,57,8,0.26999999999999996,0.03,0.08,0.060000000000000005,4,1,1,1,5,1,1,1,5,0,21,7,Lc,0.054,0.03,0.08,0.060000000000000005
12,14,27,1,8,0.15,3,4,115,119,36,13,0.29,0.07,0.060000000000000005,0.060000000000000005,4,1,1,1,5,1,1,1,2,0,15,7,Lc,0.057999999999999996,0.07,0.060000000000000005,0.060000000000000005
12,14,28,1,3,0.12999999999999998,2,3,105,46,64,38,0.29,0.04,0.09,0.03,3,1,2,1,4,1,2,1,5,0,16,7,Lc,0.07250000000000001,0.04,0.045000000000000005,0.03
12,15,29,1,8,0.10999999999999999,2,4,109,111,87,4,0.24999999999999997,0.05,0.9700000000000006,0.01,3,1,1,1,5,1,1,1,2,0,13,7,Lc,0.049999999999999996,0.05,0.9700000000000006,0.01
12,15,30,1,9,0.13999999999999999,2,3,66,97,108,17,0.38000000000000006,0.060000000000000005,0.03,0.04,4,1,1,1,5,1,1,1,4,0,14,7,Lc,0.07600000000000001,0.060000000000000005,0.03,0.04
12,16,31,1,5,0.12999999999999998,2,3,92,7,60,54,1.1400000000000006,0.01,0.01,0.02,5,1,1,1,7,1,1,1,6,0,17,7,Lc,0.16285714285714292,0.01,0.01,0.02
12,16,32,1,4,0.23000000000000007,3,5,34,100,15,64,1.660000000000001,0.02,0.03,0.38000000000000017,5,1,1,2,7,1,1,2,2,0,17,7,Lc,0.23714285714285727,0.02,0.03,0.19000000000000003
12,17,33,1,3,0.12999999999999998,2,3,18,40,88,72,0.3,0.03,0.05,0.20000000000000004,3,1,1,2,4,1,1,2,5,0,18,7,Lc,0.07500000000000001,0.03,0.05,0.1
