Subject,Round,Phase,afterbreak,Schema,Schema_RT,Schema_OB,Schema_AS,Cho_1,Cho_2,Cho_3,Cho_4,RT_1,RT_2,RT_3,RT_4,OB_1,OB_2,OB_3,OB_4,AS_1,AS_2,AS_3,AS_4,schema_payoff,AC,performance,breakR,type,dwellmean_1,dwellmean_2,dwellmean_3,dwellmean_4
1,1,1,0,5,0.09,1,2,11,12,3,65,0.9900000000000005,0.7700000000000005,6.149999999999913,0.02,3,3,10,2,18,21,105,2,6,0.5,22,7,Hc,0.055,0.03666666666666667,0.05857142857142857,0.01
1,1,2,0,6,0.15,2,6,52,20,22,42,1.2500000000000007,1.400000000000001,0.25000000000000006,0.45000000000000023,4,2,2,2,26,24,5,10,4,0,21,7,Hc,0.04807692307692308,0.058333333333333334,0.049999999999999996,0.045
1,2,3,0,5,0.16,2,5,10,7,55,38,1.1400000000000006,0.02,0.9000000000000006,1.0800000000000007,4,1,3,3,24,1,13,16,6,0,21,7,Hc,0.0475,0.02,0.06923076923076923,0.0675
1,2,4,0,10,0.20000000000000004,2,7,116,24,22,112,1.670000000000001,0.08,0.4200000000000002,0.46000000000000024,4,1,4,2,34,1,7,8,6,0,16,7,Hc,0.04911764705882353,0.08,0.06000000000000001,0.057499999999999996
1,3,5,0,2,0.20000000000000004,4,8,21,78,43,60,1.2100000000000006,0.060000000000000005,1.2300000000000009,0.5600000000000003,6,1,4,2,27,1,26,9,3,0,18,7,Hc,0.04481481481481482,0.060000000000000005,0.04730769230769231,0.06222222222222223
1,3,6,0,9,0.16,2,5,68,1,6,67,1.1400000000000006,1.370000000000001,0.6600000000000004,0.36000000000000015,4,5,4,4,25,23,13,7,4,0,20,7,Hc,0.0456,0.059565217391304354,0.05076923076923077,0.05142857142857143
1,4,7,0,9,0.20000000000000004,2,6,67,42,9,47,1.1600000000000006,0.9900000000000007,1.1200000000000008,0.25000000000000006,6,3,4,2,20,19,24,5,4,0,20,7,Hc,0.058,0.05210526315789474,0.04666666666666667,0.05
1,4,8,0,7,0.08,2,2,86,93,49,87,0.9200000000000005,0.24000000000000007,1.320000000000001,0.01,4,4,6,1,13,7,18,1,3,0.5,13,7,Hc,0.07076923076923076,0.03428571428571429,0.07333333333333333,0.01
1,5,9,0,9,0.17,2,8,65,24,69,17,0.9500000000000005,0.8700000000000006,0.35000000000000014,0.18000000000000002,5,3,2,2,26,22,2,4,4,0,20,7,Hc,0.03653846153846154,0.03954545454545454,0.17500000000000002,0.045
1,5,10,0,7,0.17,3,3,87,89,3,2,1.630000000000001,0.12999999999999998,1.290000000000001,0.16,5,2,5,2,29,3,24,3,3,0,18,7,Hc,0.05620689655172414,0.043333333333333335,0.05375,0.05333333333333334
1,6,11,0,1,0.16,2,5,35,25,17,34,1.2600000000000007,0.04,0.5100000000000002,0.07,8,1,2,1,28,1,10,1,5,0.5,21,7,Hc,0.045,0.04,0.051000000000000004,0.07
1,6,12,0,5,0.25000000000000006,2,9,2,49,85,60,1.700000000000001,0.6300000000000003,0.7500000000000004,0.21000000000000005,4,2,2,3,25,12,11,4,6,0,17,7,Hc,0.068,0.0525,0.06818181818181818,0.0525
1,7,13,1,4,0.25000000000000006,3,8,100,102,12,97,1.0000000000000004,0.5300000000000002,0.13999999999999999,0.20000000000000004,6,2,3,2,22,11,5,3,2,0.5,12,7,Hc,0.045454545454545456,0.04818181818181818,0.028,0.06666666666666667
1,7,14,1,2,0.07,2,3,73,76,79,44,0.6800000000000004,0.36000000000000015,0.4300000000000002,0.35000000000000014,4,2,2,2,10,3,8,7,3,0.5,14,7,Hc,0.068,0.12000000000000001,0.05375,0.05
1,8,15,1,2,0.09999999999999999,2,3,81,76,73,75,0.9400000000000005,0.10999999999999999,0.37000000000000016,0.4200000000000002,6,2,4,7,13,3,7,10,3,1,36,7,Hc,0.07230769230769231,0.03666666666666667,0.05285714285714286,0.042
1,8,16,1,3,0.11999999999999998,2,5,46,1,7,47,0.9900000000000005,1.370000000000001,0.16,0.12999999999999998,4,3,3,2,21,26,5,3,5,0,22,7,Hc,0.047142857142857146,0.05269230769230769,0.032,0.043333333333333335
1,9,17,1,9,0.09,2,2,69,61,71,89,1.1400000000000008,0.36000000000000015,0.6900000000000004,0.45000000000000023,4,5,8,3,25,9,16,5,4,0.5,15,7,Hc,0.0456,0.04,0.043125,0.09000000000000002
1,9,18,1,8,0.10999999999999999,2,5,110,9,115,5,0.6900000000000003,1.0200000000000007,0.15,0.8700000000000006,4,2,2,3,15,20,2,22,2,0,16,7,Hc,0.046,0.051,0.07499999999999998,0.03954545454545455
1,10,19,1,4,0.08,2,2,98,106,85,103,0.7000000000000003,0.7000000000000004,0.10999999999999999,0.3300000000000001,4,2,2,2,11,11,3,10,2,0.5,9,7,Hc,0.06363636363636364,0.06363636363636364,0.03666666666666667,0.033
1,10,20,1,3,0.11999999999999998,2,5,42,81,43,39,1.2900000000000007,0.13999999999999999,0.48000000000000026,0.3000000000000001,4,1,5,2,27,1,10,5,5,0.5,18,7,Hc,0.04777777777777778,0.13999999999999999,0.048,0.060000000000000005
1,11,21,1,5,0.13999999999999999,2,4,6,4,80,82,0.8500000000000004,9.759999999999836,0.07,0.01,6,18,2,1,12,172,2,1,6,0,18,7,Hc,0.07083333333333333,0.05674418604651163,0.035,0.01
1,11,22,1,7,0.3300000000000001,3,4,88,94,45,48,1.4200000000000008,0.21000000000000005,0.8700000000000006,0.6600000000000004,5,2,6,7,26,3,24,13,3,0,16,7,Hc,0.054615384615384614,0.07,0.03625,0.05076923076923077
1,12,23,1,7,0.09999999999999999,2,3,96,66,72,105,1.2100000000000009,1.9700000000000015,0.12999999999999998,0.7300000000000004,4,5,2,2,21,40,3,17,3,0,13,7,Hc,0.05761904761904762,0.04925,0.043333333333333335,0.04294117647058823
1,12,24,1,2,0.21000000000000005,2,7,81,40,82,47,1.2800000000000007,0.38000000000000017,0.5700000000000003,0.2700000000000001,4,4,3,2,30,8,17,3,3,0,16,7,Hc,0.042666666666666665,0.0475,0.033529411764705884,0.09000000000000001
1,13,25,1,1,0.3900000000000002,3,7,11,32,8,77,1.0300000000000005,0.4100000000000002,0.6700000000000004,0.4200000000000002,5,3,4,2,18,7,13,7,5,0,20,7,Hc,0.057222222222222216,0.05857142857142857,0.05153846153846154,0.06
1,13,26,1,6,0.12999999999999998,2,3,60,41,46,92,0.7500000000000003,1.0700000000000007,0.8000000000000005,0.03,5,2,5,1,13,13,20,1,4,0,17,7,Hc,0.057692307692307696,0.08230769230769232,0.04,0.03
1,14,27,1,6,0.11999999999999998,3,4,52,53,47,100,0.8700000000000004,0.26000000000000006,1.0800000000000007,0.7700000000000005,6,2,2,4,16,3,25,17,4,0,15,7,Hc,0.054375,0.08666666666666667,0.0432,0.045294117647058825
1,14,28,1,1,0.36000000000000015,3,8,64,31,72,67,1.1100000000000005,0.5500000000000003,0.5500000000000003,0.07,5,4,3,2,21,13,6,3,5,0.5,17,7,Hc,0.05285714285714286,0.04230769230769231,0.09166666666666666,0.023333333333333334
1,15,29,1,10,0.09999999999999999,2,3,18,20,51,96,1.340000000000001,0.02,0.6600000000000004,0.11999999999999998,4,1,3,2,25,1,14,3,6,0,19,7,Hc,0.0536,0.02,0.047142857142857146,0.04
1,15,30,1,1,0.12999999999999998,2,3,25,112,36,110,1.3200000000000007,0.01,0.48000000000000026,0.6000000000000003,4,1,5,2,19,1,12,7,5,0,14,7,Hc,0.06947368421052631,0.01,0.04,0.08571428571428572
1,16,31,1,4,0.11999999999999998,2,3,98,105,90,28,1.2300000000000006,0.3900000000000002,0.05,0.26000000000000006,4,2,1,2,20,9,1,3,2,0,12,7,Hc,0.0615,0.043333333333333335,0.05,0.08666666666666666
1,16,32,1,2,0.07,3,3,76,74,67,61,0.43000000000000016,0.4200000000000002,0.6300000000000003,0.3900000000000002,5,2,2,2,10,13,11,5,3,0,14,7,Hc,0.043000000000000003,0.03230769230769231,0.057272727272727274,0.078
1,17,33,1,7,0.20000000000000004,2,5,87,54,85,10,1.0600000000000005,0.5700000000000003,0.6600000000000004,0.01,5,4,3,1,27,19,14,1,3,0,16,7,Hc,0.03925925925925926,0.030000000000000002,0.047142857142857146,0.01
1,17,34,1,2,0.20000000000000004,2,3,79,69,70,24,0.9200000000000005,0.6500000000000004,0.15,0.7100000000000004,4,2,2,2,16,11,4,9,3,0,17,7,Hc,0.057499999999999996,0.05909090909090909,0.0375,0.0788888888888889
1,18,35,1,1,0.20000000000000004,3,3,28,5,26,10,1.0800000000000005,0.47000000000000025,0.02,0.49000000000000027,5,3,1,2,18,6,1,13,5,0,22,7,Hc,0.06,0.07833333333333332,0.02,0.03769230769230769
1,18,36,1,3,0.13999999999999999,2,7,48,104,101,38,1.510000000000001,1.420000000000001,0.20000000000000004,0.34000000000000014,6,8,1,4,25,23,2,7,5,0,14,7,Hc,0.0604,0.06173913043478261,0.10000000000000002,0.04857142857142857
1,19,37,1,1,0.18000000000000002,3,5,33,1,9,2,0.9900000000000005,0.01,0.8300000000000005,0.26000000000000006,7,1,7,2,26,1,17,5,5,0.5,23,7,Hc,0.03807692307692308,0.01,0.04882352941176471,0.052
1,19,38,1,3,0.11999999999999998,2,4,45,84,48,37,1.0400000000000005,0.02,0.5300000000000002,0.35000000000000014,5,1,3,2,18,1,12,8,5,0.5,18,7,Hc,0.057777777777777775,0.02,0.04416666666666667,0.043750000000000004
1,20,39,1,1,0.060000000000000005,2,3,35,32,31,30,0.5600000000000003,0.9300000000000006,0.05,0.2700000000000001,4,7,1,2,9,18,1,3,5,1,60,7,Hc,0.06222222222222222,0.051666666666666666,0.05,0.09000000000000001
1,20,40,1,3,0.12999999999999998,2,3,38,47,39,61,0.7600000000000003,0.6500000000000004,1.330000000000001,0.060000000000000005,5,2,8,1,15,18,26,1,5,0.5,19,7,Hc,0.050666666666666665,0.036111111111111115,0.051153846153846154,0.060000000000000005
1,21,41,1,2,0.09999999999999999,2,3,77,40,47,112,1.0900000000000007,0.5300000000000002,0.09999999999999999,0.4200000000000002,4,2,1,2,25,8,1,5,3,0,15,7,Hc,0.0436,0.06625000000000002,0.09999999999999999,0.084
1,21,42,1,1,0.08,2,5,26,108,103,65,1.2500000000000009,1.1100000000000008,0.4300000000000002,0.09999999999999999,6,2,3,2,29,17,11,3,5,0,13,7,Hc,0.04310344827586207,0.06529411764705882,0.03909090909090909,0.03333333333333333
1,22,43,1,9,0.20000000000000004,5,7,66,70,71,97,1.1200000000000006,0.12999999999999998,0.5800000000000003,0.11999999999999998,7,2,3,1,22,3,12,1,4,0.5,14,7,Hc,0.05090909090909091,0.04333333333333333,0.04833333333333333,0.11999999999999998
1,22,44,1,3,0.23000000000000007,3,5,84,45,37,116,0.9700000000000005,0.9700000000000006,0.10999999999999999,0.4100000000000002,5,3,2,2,16,19,3,9,5,0,15,7,Hc,0.060625000000000005,0.05105263157894737,0.03666666666666667,0.04555555555555556
2,1,1,0,2,0.23000000000000007,2,6,74,73,69,4,0.9600000000000005,0.10999999999999999,0.6400000000000003,0.24000000000000007,4,2,4,2,28,3,25,7,3,0,16,7,Hc,0.03428571428571429,0.03666666666666667,0.0256,0.03428571428571429
2,1,2,0,8,0.23000000000000007,2,13,115,116,109,28,0.7500000000000003,0.4400000000000002,1.1100000000000008,0.2800000000000001,4,5,11,3,29,15,28,10,2,0.5,11,7,Hc,0.02586206896551724,0.029333333333333333,0.039642857142857146,0.028
2,2,3,0,2,0.23000000000000007,2,16,73,37,82,83,0.7800000000000004,2.399999999999993,0.01,0.02,5,5,1,2,34,78,1,2,3,0.5,14,7,Hc,0.022941176470588236,0.03076923076923077,0.01,0.01
2,2,4,0,7,0.19000000000000003,2,8,92,5,28,72,0.7200000000000003,0.49000000000000027,0.4100000000000002,0.02,4,2,2,1,26,17,17,1,3,0,18,7,Hc,0.027692307692307693,0.028823529411764706,0.024117647058823532,0.02
2,3,5,0,4,0.18000000000000002,2,6,104,52,99,56,0.7200000000000003,1.290000000000001,0.12999999999999998,0.16,8,7,2,4,27,45,4,9,2,0,12,7,Hc,0.02666666666666667,0.028666666666666667,0.0325,0.017777777777777778
2,3,6,0,9,0.23000000000000007,2,13,69,3,65,66,0.7700000000000004,0.5400000000000003,0.05,0.26000000000000006,4,4,2,3,27,14,3,12,4,0.5,18,7,Hc,0.02851851851851852,0.03857142857142857,0.016666666666666666,0.021666666666666667
2,4,7,0,3,0.15,2,9,38,59,58,44,0.7300000000000003,0.7100000000000004,0.01,0.10999999999999999,5,3,1,3,35,24,1,4,5,0,18,7,Hc,0.02085714285714286,0.029583333333333333,0.01,0.027500000000000004
2,4,8,0,2,0.16,2,4,76,79,32,26,0.8900000000000005,0.12999999999999998,0.4200000000000002,0.08,4,3,2,2,28,5,16,3,3,0,16,7,Hc,0.031785714285714285,0.026000000000000002,0.026250000000000002,0.02666666666666667
2,5,9,0,4,0.22000000000000006,2,11,98,101,5,89,0.6700000000000003,0.48000000000000026,0.8100000000000005,0.13999999999999999,4,5,2,3,23,16,24,5,2,0,13,7,Hc,0.029130434782608697,0.030000000000000002,0.03375,0.028
2,5,10,0,6,0.18000000000000002,2,7,60,52,76,57,0.7400000000000003,0.3200000000000001,0.5500000000000003,0.35000000000000014,5,2,6,3,31,9,22,14,4,0.5,15,7,Hc,0.023870967741935485,0.035555555555555556,0.025,0.025
2,6,11,0,4,0.21000000000000005,5,12,101,51,38,21,0.5100000000000001,0.8100000000000005,0.09999999999999999,1.0200000000000007,7,4,4,2,24,34,7,32,2,0,17,7,Hc,0.021249999999999998,0.023823529411764705,0.014285714285714285,0.031875
2,6,12,0,2,0.21000000000000005,3,12,79,5,80,10,0.8400000000000004,0.21000000000000005,0.17,0.36000000000000015,6,4,2,2,28,9,4,14,3,0,18,7,Hc,0.03,0.023333333333333334,0.042499999999999996,0.025714285714285714
2,7,13,1,4,0.11999999999999998,2,6,103,106,20,107,0.38000000000000006,0.36000000000000015,0.6600000000000004,0.23000000000000007,5,6,3,4,14,13,16,8,2,0.5,12,7,Hc,0.027142857142857142,0.027692307692307693,0.04125,0.02875
2,7,14,1,8,0.13999999999999999,3,6,115,36,35,58,0.5600000000000002,0.2700000000000001,0.3000000000000001,0.5000000000000002,5,4,2,5,22,7,7,18,2,0,16,7,Hc,0.025454545454545455,0.03857142857142857,0.04285714285714286,0.02777777777777778
2,8,15,1,9,0.19000000000000003,3,5,67,31,63,70,0.7800000000000004,0.05,0.4300000000000002,0.22000000000000006,5,1,3,2,31,1,21,10,4,0.5,17,7,Hc,0.025161290322580646,0.05,0.020476190476190478,0.022000000000000002
2,8,16,1,5,0.23000000000000007,2,10,6,84,106,40,0.7600000000000003,0.3200000000000001,0.02,0.3000000000000001,4,2,1,2,24,13,1,10,6,0,16,7,Hc,0.03166666666666667,0.024615384615384615,0.02,0.030000000000000002
2,9,17,1,5,0.21000000000000005,2,5,11,70,63,68,1.1100000000000005,0.060000000000000005,0.49000000000000027,0.05,4,3,3,2,35,5,17,3,6,0.5,18,7,Hc,0.031714285714285716,0.012,0.028823529411764706,0.016666666666666666
2,9,18,1,10,0.18000000000000002,2,8,13,18,22,97,1.0600000000000005,0.01,0.5900000000000003,0.5900000000000003,4,1,8,4,45,1,15,17,6,0.5,20,7,Hc,0.023555555555555555,0.01,0.03933333333333334,0.03470588235294118
2,10,19,1,10,0.2900000000000001,2,14,20,14,120,26,1.0000000000000004,0.47000000000000025,0.04,0.2800000000000001,4,2,1,2,34,12,1,13,6,0,19,7,Hc,0.029411764705882353,0.03916666666666667,0.04,0.021538461538461538
2,10,20,1,6,0.20000000000000004,3,9,57,60,4,58,0.7200000000000003,0.49000000000000027,0.04,0.24000000000000007,9,2,1,3,27,14,1,9,4,0.5,18,7,Hc,0.02666666666666667,0.035,0.04,0.026666666666666665
2,11,21,1,2,0.10999999999999999,2,6,75,84,78,34,0.6800000000000003,0.04,0.3000000000000001,0.3200000000000001,4,1,3,2,23,1,9,8,3,0.5,14,7,Hc,0.029565217391304348,0.04,0.03333333333333333,0.04
2,11,22,1,7,0.26000000000000006,3,10,87,96,52,56,0.9100000000000004,0.6000000000000003,0.2700000000000001,0.19000000000000003,5,4,3,2,36,21,8,6,3,0,14,7,Hc,0.025277777777777777,0.028571428571428574,0.03375,0.03166666666666667
2,12,23,1,8,0.19000000000000003,3,7,116,66,111,110,0.8400000000000004,0.45000000000000023,0.17,0.2700000000000001,5,7,4,4,29,16,9,10,2,0.5,10,7,Hc,0.028965517241379312,0.028125,0.01888888888888889,0.027
2,12,24,1,2,0.45000000000000023,6,14,73,23,50,60,1.1900000000000006,0.5600000000000003,0.01,0.13999999999999999,8,4,1,3,36,23,1,6,3,0,17,7,Hc,0.03305555555555555,0.02434782608695652,0.01,0.023333333333333334
2,13,25,1,7,0.23000000000000007,4,13,94,92,66,111,0.7100000000000003,0.4200000000000002,0.48000000000000026,0.15,6,3,6,4,29,16,14,7,3,0,12,7,Hc,0.024482758620689656,0.02625,0.03428571428571429,0.02142857142857143
2,13,26,1,6,0.2900000000000001,3,10,54,58,44,12,0.9000000000000004,0.3900000000000002,0.6600000000000004,0.3200000000000001,5,2,2,3,26,13,20,13,4,0,19,7,Hc,0.03461538461538462,0.03,0.033,0.024615384615384615
2,14,27,1,3,0.16,2,6,37,120,41,70,0.7200000000000003,0.7200000000000004,0.19000000000000003,0.11999999999999998,6,3,4,2,21,23,8,3,5,0,16,7,Hc,0.03428571428571429,0.03130434782608696,0.02375,0.04
2,14,28,1,4,0.20000000000000004,2,9,104,106,99,107,0.7300000000000003,1.1200000000000008,0.09,0.01,6,13,2,1,27,31,4,1,2,1,24,7,Hc,0.027037037037037037,0.03612903225806452,0.0225,0.01
2,15,29,1,3,0.07,3,4,39,77,38,82,0.4800000000000002,0.35000000000000014,0.01,0.3300000000000001,5,2,1,2,18,9,1,9,5,0,16,7,Hc,0.02666666666666667,0.03888888888888889,0.01,0.03666666666666667
2,15,30,1,5,0.11999999999999998,2,5,7,87,86,109,0.7400000000000003,0.6800000000000004,0.19000000000000003,0.18000000000000002,11,2,3,2,29,20,9,4,6,0,14,7,Hc,0.025517241379310347,0.034,0.021111111111111112,0.045
2,16,31,1,1,0.21000000000000005,3,9,27,11,28,35,0.6300000000000002,2.6999999999999864,0.08,0.01,6,11,2,1,25,79,2,1,5,0.5,21,7,Hc,0.0252,0.03417721518987342,0.04,0.01
2,16,32,1,6,0.19000000000000003,3,9,57,53,109,45,0.5300000000000001,0.3100000000000001,0.4000000000000002,0.08,6,4,2,1,27,9,16,1,4,0,15,7,Hc,0.01962962962962963,0.034444444444444444,0.025,0.08
2,17,33,1,5,0.18000000000000002,3,8,9,74,8,5,0.7800000000000004,0.19000000000000003,0.09,0.25000000000000006,6,2,2,3,26,11,3,12,6,0.5,21,7,Hc,0.03,0.017272727272727273,0.030000000000000002,0.020833333333333336
2,17,34,1,3,0.12999999999999998,3,6,39,42,120,46,0.9500000000000005,0.09999999999999999,0.5300000000000002,0.08,5,2,6,2,35,3,20,2,5,0.5,17,7,Hc,0.027142857142857142,0.03333333333333333,0.0265,0.04
2,18,35,1,4,0.17,3,7,73,107,56,100,0.8600000000000004,0.08,0.37000000000000016,0.11999999999999998,6,2,4,2,38,3,8,3,2,0,11,7,Hc,0.022631578947368423,0.02666666666666667,0.04625,0.04
2,18,36,1,10,0.12999999999999998,2,7,13,21,111,110,0.4700000000000001,0.35000000000000014,0.5600000000000003,0.3100000000000001,7,6,4,2,22,10,24,8,6,0,16,7,Hc,0.021363636363636362,0.035,0.023333333333333334,0.03875
2,19,37,1,9,0.16,3,8,63,71,62,67,0.6800000000000003,0.19000000000000003,0.26000000000000006,0.3300000000000001,5,4,3,2,24,9,11,18,4,1,48,7,Hc,0.028333333333333332,0.021111111111111112,0.023636363636363636,0.018333333333333333
2,19,38,1,10,0.13999999999999999,3,8,20,13,23,22,0.33,0.24000000000000007,0.07,0.12999999999999998,6,4,2,4,14,7,3,7,6,1,72,7,Hc,0.02357142857142857,0.03428571428571429,0.023333333333333334,0.018571428571428572
2,20,39,1,9,0.25000000000000006,6,9,69,104,101,3,0.7700000000000002,0.08,0.3000000000000001,0.17,8,1,3,3,33,1,12,7,4,0,14,7,Hc,0.023333333333333334,0.08,0.025,0.024285714285714285
2,20,40,1,6,0.09999999999999999,2,4,50,51,49,57,0.6900000000000003,0.01,0.5000000000000002,0.13999999999999999,4,1,10,2,19,1,19,9,4,1,48,7,Hc,0.03631578947368421,0.01,0.026315789473684213,0.015555555555555555
2,21,41,1,9,0.24000000000000007,3,11,72,40,95,90,1.0000000000000004,0.01,0.8500000000000005,0.03,5,1,4,1,37,1,32,1,4,0,15,7,Hc,0.02702702702702703,0.01,0.0265625,0.03
2,21,42,1,1,0.26000000000000006,5,9,33,13,100,84,0.7200000000000003,0.18000000000000002,0.34000000000000014,0.19000000000000003,7,2,4,3,21,8,14,5,5,0,16,7,Hc,0.03428571428571429,0.0225,0.024285714285714285,0.038
2,22,43,1,4,0.17,2,4,105,97,102,73,0.8200000000000004,0.10999999999999999,0.35000000000000014,0.25000000000000006,4,2,4,2,24,5,12,11,2,0.5,9,7,Hc,0.034166666666666665,0.022,0.029166666666666667,0.022727272727272728
2,22,44,1,8,0.4000000000000002,10,15,111,110,16,112,0.8800000000000004,0.03,0.25000000000000006,0.10999999999999999,12,2,3,2,36,3,8,5,2,0.5,12,7,Hc,0.024444444444444446,0.01,0.03125,0.022
3,1,1,0,3,0.22000000000000006,2,9,44,40,9,106,1.3100000000000007,0.5700000000000003,0.03,0.49000000000000027,4,4,1,3,25,16,1,9,5,0,18,7,Hc,0.052399999999999995,0.035625,0.03,0.05444444444444444
3,1,2,0,9,0.20000000000000004,2,8,66,65,31,109,0.7100000000000003,0.7000000000000004,2.1199999999999988,0.04,6,2,6,2,15,15,44,2,4,0,15,7,Hc,0.04733333333333333,0.04666666666666667,0.04818181818181819,0.02
3,2,3,0,8,0.18000000000000002,2,4,112,115,116,119,1.1200000000000006,0.2700000000000001,0.23000000000000007,0.9300000000000006,9,3,4,11,17,7,4,15,2,1,24,7,Hc,0.06588235294117648,0.03857142857142857,0.0575,0.06200000000000001
3,2,4,0,1,0.18000000000000002,2,4,32,67,29,33,0.9400000000000005,1.0700000000000007,0.2700000000000001,0.3200000000000001,6,7,2,3,16,14,8,4,5,0.5,19,7,Hc,0.058750000000000004,0.07642857142857143,0.03375,0.08000000000000002
3,3,5,0,5,0.09999999999999999,3,3,12,1,6,4,0.8200000000000004,0.060000000000000005,0.2700000000000001,0.46000000000000024,5,1,3,8,20,1,4,13,6,1,72,7,Hc,0.041,0.060000000000000005,0.0675,0.03538461538461538
3,3,6,0,2,0.16,2,5,76,75,84,73,0.8800000000000004,0.34000000000000014,0.3000000000000001,0.7500000000000004,4,2,4,10,14,3,7,14,3,1,36,7,Hc,0.06285714285714286,0.11333333333333337,0.04285714285714285,0.053571428571428575
3,4,7,0,1,0.13999999999999999,2,7,26,27,25,71,0.4800000000000001,0.35000000000000014,3.139999999999977,0.5000000000000002,5,3,5,6,15,8,43,8,5,0.5,19,7,Hc,0.032,0.04375,0.0730232558139535,0.0625
3,4,8,0,6,0.20000000000000004,3,5,60,54,99,102,0.8800000000000004,0.36000000000000015,0.09,0.2900000000000001,5,3,1,4,12,9,1,5,4,0,12,7,Hc,0.07333333333333335,0.04,0.09,0.057999999999999996
3,5,9,0,1,0.19000000000000003,3,4,36,33,25,101,0.7000000000000003,0.3100000000000001,0.17,0.47000000000000025,5,3,4,4,13,7,7,6,5,0.5,17,7,Hc,0.05384615384615385,0.04428571428571428,0.024285714285714285,0.07833333333333332
3,5,10,0,6,0.13999999999999999,2,3,57,51,48,114,0.9700000000000005,0.48000000000000026,0.09,0.22000000000000006,5,2,1,3,21,6,1,5,4,0,15,7,Hc,0.04619047619047619,0.08,0.09,0.044
3,6,11,0,5,0.19000000000000003,2,7,6,119,12,1,0.9600000000000005,0.4100000000000002,0.3000000000000001,0.4100000000000002,6,4,4,5,17,8,8,8,6,0.5,20,7,Hc,0.05647058823529411,0.051250000000000004,0.0375,0.051250000000000004
3,6,12,0,10,0.16,4,5,21,22,17,42,0.8300000000000004,0.35000000000000014,0.34000000000000014,0.6000000000000003,6,2,3,5,17,3,6,13,6,0.5,23,7,Hc,0.04882352941176471,0.11666666666666667,0.05666666666666667,0.046153846153846156
3,7,13,1,2,0.09,2,4,5,33,101,75,4.139999999999958,0.01,0.03,0.01,15,1,1,1,75,1,1,1,3,0,16,7,Hc,0.0552,0.01,0.03,0.01
3,7,14,1,7,0.26000000000000006,3,6,91,15,118,109,1.2800000000000007,0.9200000000000006,0.13999999999999999,0.12999999999999998,5,2,2,2,26,12,4,2,3,0,13,7,Hc,0.04923076923076923,0.07666666666666666,0.034999999999999996,0.065
3,8,15,1,6,0.13999999999999999,3,5,57,33,25,49,0.7000000000000003,0.3200000000000001,0.18000000000000002,0.2900000000000001,8,4,2,4,15,6,4,5,4,0,18,7,Hc,0.04666666666666667,0.05333333333333333,0.045,0.057999999999999996
3,8,16,1,9,0.22000000000000006,2,5,70,72,45,65,0.9800000000000005,0.45000000000000023,0.37000000000000016,0.13999999999999999,4,2,2,2,22,10,8,6,4,0.5,17,7,Hc,0.04454545454545455,0.045000000000000005,0.04625,0.023333333333333334
3,9,17,1,2,0.35000000000000014,6,8,79,100,83,15,0.9000000000000004,1.1100000000000008,0.12999999999999998,1.470000000000001,9,2,2,3,17,26,2,21,3,0,14,7,Hc,0.052941176470588235,0.042692307692307696,0.065,0.06999999999999999
3,9,18,1,5,0.23000000000000007,2,3,2,27,31,35,1.2200000000000006,0.01,0.20000000000000004,0.12999999999999998,6,1,3,2,18,1,5,3,6,0.5,21,7,Hc,0.06777777777777778,0.01,0.04,0.043333333333333335
3,10,19,1,8,0.09,2,3,109,117,76,73,0.7300000000000003,0.08,0.8000000000000005,0.46000000000000024,4,1,5,5,17,1,9,10,2,0,10,7,Hc,0.04294117647058823,0.08,0.08888888888888889,0.046
3,10,20,1,4,0.12999999999999998,2,2,3,106,6,7,1.9300000000000013,0.01,0.6900000000000004,0.4000000000000002,5,1,3,3,43,1,4,8,2,0.5,20,7,Hc,0.04488372093023256,0.01,0.17250000000000001,0.05
3,11,21,1,8,0.09999999999999999,2,4,119,113,3,12,0.6100000000000002,0.35000000000000014,1.1600000000000008,0.08,4,2,4,2,10,9,21,3,2,0,16,7,Hc,0.061,0.03888888888888889,0.05523809523809524,0.026666666666666665
3,11,22,1,3,0.16,3,4,46,37,40,102,0.9200000000000005,0.37000000000000016,0.3000000000000001,0.05,8,3,2,1,21,6,7,1,5,0.5,17,7,Hc,0.04380952380952381,0.061666666666666675,0.04285714285714286,0.05
3,12,23,1,7,0.18000000000000002,2,3,92,91,89,39,1.1600000000000006,0.13999999999999999,0.24000000000000007,0.21000000000000005,5,3,2,2,20,7,3,2,3,0.5,14,7,Hc,0.058,0.02,0.08,0.10500000000000001
3,12,24,1,8,0.15,2,5,116,111,120,109,0.6600000000000003,0.8800000000000006,0.21000000000000005,0.25000000000000006,7,11,4,3,13,19,5,7,2,1,24,7,Hc,0.05076923076923077,0.04631578947368421,0.042,0.03571428571428572
3,13,25,1,9,0.13999999999999999,2,4,64,24,71,16,1.1400000000000006,0.6400000000000003,0.26000000000000006,0.01,6,4,3,1,24,15,8,1,4,0,20,7,Hc,0.0475,0.042666666666666665,0.0325,0.01
3,13,26,1,2,0.22000000000000006,2,4,79,83,44,46,0.9300000000000005,0.15,0.6200000000000003,0.35000000000000014,4,2,6,2,15,3,11,5,3,0,16,7,Hc,0.062,0.049999999999999996,0.05636363636363636,0.07
3,14,27,1,3,0.16,2,3,38,48,74,77,1.4200000000000008,0.03,0.5200000000000002,0.05,8,1,8,1,29,1,11,1,5,0,16,7,Hc,0.048965517241379306,0.03,0.04727272727272727,0.05
3,14,28,1,7,0.13999999999999999,3,4,16,87,13,26,0.8100000000000004,0.08,0.26000000000000006,0.45000000000000023,5,3,3,3,13,5,5,7,3,0,20,7,Hc,0.06230769230769231,0.016,0.052000000000000005,0.06428571428571428
3,15,29,1,10,0.23000000000000007,2,6,19,109,21,15,0.8400000000000004,0.19000000000000003,0.3000000000000001,0.07,6,3,2,1,22,7,6,1,6,0.5,20,7,Hc,0.03818181818181818,0.027142857142857142,0.05,0.07
3,15,30,1,2,0.16,3,6,76,78,83,39,0.7300000000000003,0.46000000000000024,0.3000000000000001,0.12999999999999998,5,2,2,2,17,11,3,3,3,0.5,14,7,Hc,0.04294117647058824,0.04181818181818182,0.1,0.043333333333333335
3,16,31,1,2,0.18000000000000002,2,3,76,114,84,68,0.7200000000000003,0.5300000000000002,0.21000000000000005,0.3100000000000001,5,2,3,3,15,6,4,7,3,0,12,7,Hc,0.048,0.08833333333333333,0.0525,0.04428571428571428
3,16,32,1,7,0.2700000000000001,2,5,86,51,30,6,0.9100000000000004,0.46000000000000024,0.11999999999999998,1.8200000000000014,5,3,1,3,14,9,1,29,3,0,18,7,Hc,0.065,0.05111111111111111,0.11999999999999998,0.06275862068965517
3,17,33,1,3,0.3300000000000001,2,9,63,44,10,48,1.0900000000000005,0.10999999999999999,0.46000000000000024,0.46000000000000024,6,2,3,2,18,3,6,8,5,0,20,7,Hc,0.06055555555555556,0.03666666666666667,0.07666666666666667,0.0575
3,17,34,1,6,0.12999999999999998,2,4,55,79,76,57,0.8000000000000004,0.2800000000000001,0.5800000000000003,0.4200000000000002,4,3,4,6,16,7,11,16,4,0,14,7,Hc,0.05,0.04,0.05272727272727273,0.02625
3,18,35,1,4,0.19000000000000003,2,3,105,98,77,79,0.9200000000000005,0.48000000000000026,0.3200000000000001,0.21000000000000005,4,2,3,4,21,10,7,7,2,0,10,7,Hc,0.04380952380952381,0.048,0.045714285714285714,0.030000000000000002
3,18,36,1,7,0.48000000000000026,6,10,5,89,6,10,1.1300000000000006,0.4400000000000002,0.13999999999999999,0.21000000000000005,8,3,2,2,21,8,6,5,3,0.5,21,7,Hc,0.05380952380952381,0.055,0.023333333333333334,0.042
3,19,37,1,3,0.10999999999999999,2,3,39,37,41,115,0.7000000000000003,0.3100000000000001,0.2700000000000001,0.5000000000000002,4,4,2,4,9,7,8,9,5,0.5,17,7,Hc,0.07777777777777778,0.04428571428571428,0.03375,0.05555555555555555
3,19,38,1,4,0.22000000000000006,2,5,99,108,69,105,1.0100000000000005,0.7400000000000004,0.25000000000000006,0.03,6,6,4,1,21,16,7,1,2,0.5,10,7,Hc,0.048095238095238094,0.04625,0.03571428571428571,0.03
3,20,39,1,6,0.10999999999999999,2,2,53,51,117,118,0.9600000000000005,0.15,0.36000000000000015,0.46000000000000024,4,2,4,2,15,3,9,7,4,0,12,7,Hc,0.064,0.05,0.04,0.06571428571428571
3,20,40,1,5,0.19000000000000003,4,6,10,5,6,9,1.1300000000000006,0.09999999999999999,0.5300000000000002,0.7900000000000005,12,1,6,11,24,1,9,17,6,1,72,7,Hc,0.04708333333333333,0.09999999999999999,0.058888888888888886,0.046470588235294125
3,21,41,1,8,0.23000000000000007,2,8,109,78,74,111,1.4100000000000008,1.0800000000000007,0.18000000000000002,0.10999999999999999,5,3,2,4,22,14,3,6,2,0,10,7,Hc,0.0640909090909091,0.07714285714285715,0.06,0.018333333333333333
3,21,42,1,1,0.15,3,10,49,30,25,53,0.8700000000000004,0.01,0.2800000000000001,0.09,7,1,3,1,21,1,4,1,5,0,18,7,Hc,0.041428571428571426,0.01,0.07,0.09
3,22,43,1,9,0.09999999999999999,2,3,65,63,67,8,0.6200000000000002,0.09999999999999999,0.16,1.1000000000000008,4,2,2,9,16,3,5,21,4,0.5,18,7,Hc,0.03875,0.03333333333333333,0.032,0.05238095238095238
3,22,44,1,2,0.34000000000000014,3,7,78,110,19,114,1.2700000000000007,0.21000000000000005,0.060000000000000005,0.37000000000000016,5,2,2,2,21,2,3,11,3,0,13,7,Hc,0.060476190476190475,0.10500000000000001,0.02,0.03363636363636364
4,1,1,0,1,0.9400000000000006,3,6,74,65,62,69,4.249999999999974,0.7200000000000004,0.47000000000000025,0.5800000000000003,7,2,1,2,15,2,1,3,5,0.5,15,7,Hc,0.28333333333333344,0.36000000000000015,0.47000000000000025,0.19333333333333336
4,1,2,0,5,0.7700000000000005,4,6,44,42,90,11,5.859999999999936,0.2900000000000001,2.099999999999999,0.2900000000000001,10,1,3,2,23,1,7,2,6,0,19,7,Hc,0.2547826086956523,0.2900000000000001,0.3000000000000001,0.14500000000000005
4,2,3,0,6,0.4000000000000002,2,5,60,48,49,45,2.8199999999999927,2.709999999999986,0.8900000000000006,0.34000000000000014,5,5,3,1,14,8,4,1,4,0,18,7,Hc,0.20142857142857148,0.33875000000000016,0.22250000000000006,0.34000000000000014
4,2,4,0,1,0.5100000000000002,2,4,11,76,115,35,4.639999999999956,0.4400000000000002,0.5600000000000003,0.26000000000000006,7,1,2,2,11,1,2,2,5,0,16,7,Hc,0.42181818181818204,0.4400000000000002,0.2800000000000001,0.13
4,3,5,0,8,1.0200000000000007,3,9,76,66,115,74,5.239999999999955,1.2000000000000008,0.5900000000000003,0.2700000000000001,8,2,2,1,16,3,3,1,2,0,12,7,Hc,0.3275000000000002,0.4000000000000002,0.1966666666666667,0.2700000000000001
4,3,6,0,6,0.4400000000000002,2,4,28,102,49,26,3.319999999999983,2.0400000000000005,0.19000000000000003,0.49000000000000027,6,5,1,3,10,7,1,4,4,0,16,7,Hc,0.3320000000000002,0.29142857142857154,0.19000000000000003,0.12250000000000001
4,4,7,0,6,0.3100000000000001,1,2,53,115,58,48,4.009999999999965,2.389999999999993,0.12999999999999998,0.46000000000000024,6,6,1,2,13,11,1,3,4,0,15,7,Hc,0.30846153846153856,0.21727272727272734,0.12999999999999998,0.15333333333333335
4,4,8,0,4,0.36000000000000015,2,4,103,99,25,69,4.939999999999947,0.22000000000000006,0.9000000000000006,0.17,6,1,2,1,14,1,4,1,2,0,13,7,Hc,0.35285714285714304,0.22000000000000006,0.22500000000000006,0.17
4,5,9,0,1,0.4300000000000002,2,3,27,64,112,63,3.729999999999974,1.1200000000000008,1.8500000000000014,0.2700000000000001,7,3,3,2,12,5,5,2,5,0,15,7,Hc,0.31083333333333346,0.2240000000000001,0.37000000000000016,0.13500000000000004
4,5,10,0,3,0.6000000000000003,3,6,106,46,47,55,4.459999999999962,0.8600000000000005,1.410000000000001,0.7300000000000004,8,2,5,2,18,2,5,3,5,0,16,7,Hc,0.24777777777777787,0.43000000000000016,0.28200000000000014,0.24333333333333343
4,6,11,0,3,0.46000000000000024,2,4,42,94,49,58,3.849999999999972,4.259999999999954,0.09,0.05,6,4,1,1,13,9,1,1,5,0,16,7,Hc,0.2961538461538463,0.4733333333333336,0.09,0.05
4,6,12,0,1,0.4200000000000002,2,5,31,79,102,35,4.509999999999957,1.1800000000000008,0.2900000000000001,0.18000000000000002,9,2,1,1,20,3,1,1,5,0,15,7,Hc,0.2255000000000001,0.39333333333333353,0.2900000000000001,0.18000000000000002
4,7,13,1,3,0.25000000000000006,3,3,13,81,15,83,36.7700000000013,0.02,0.01,0.01,20,1,1,1,112,1,1,1,5,0,18,7,Hc,0.3283035714285716,0.02,0.01,0.01
4,7,14,1,6,0.5600000000000003,6,6,109,110,2,60,4.49999999999996,2.0000000000000013,0.26000000000000006,0.3000000000000001,12,4,1,2,17,7,1,2,4,0,14,7,Hc,0.2647058823529413,0.2857142857142858,0.26000000000000006,0.15
4,8,15,1,3,0.4300000000000002,2,4,41,12,3,54,3.43999999999998,1.8600000000000014,4.4499999999999496,0.24000000000000007,7,3,5,2,12,12,9,2,5,0,21,7,Hc,0.2866666666666668,0.15500000000000003,0.49444444444444474,0.12000000000000002
4,8,16,1,1,0.7200000000000004,4,5,64,24,28,114,4.229999999999969,1.9700000000000015,0.35000000000000014,0.12999999999999998,9,4,2,1,17,8,2,1,5,0,17,7,Hc,0.2488235294117648,0.2462500000000001,0.17500000000000002,0.12999999999999998
4,9,17,1,2,0.3300000000000001,1,2,103,20,67,105,4.859999999999948,0.6300000000000003,0.4400000000000002,0.2900000000000001,7,2,2,1,11,2,2,1,3,0,14,7,Hc,0.44181818181818205,0.31500000000000017,0.22000000000000006,0.2900000000000001
4,9,18,1,6,0.36000000000000015,2,3,52,50,118,12,2.479999999999999,3.8599999999999617,0.2700000000000001,0.09,4,5,3,1,7,10,3,1,4,0,16,7,Hc,0.3542857142857145,0.38600000000000023,0.09,0.09
4,10,19,1,7,0.4400000000000002,2,3,20,71,92,116,4.729999999999953,0.3300000000000001,0.19000000000000003,0.3100000000000001,10,2,1,1,17,2,1,1,3,0,15,7,Hc,0.27823529411764714,0.16500000000000006,0.19000000000000003,0.3100000000000001
4,10,20,1,4,0.5600000000000003,2,5,97,52,30,56,2.4400000000000017,2.7399999999999856,1.440000000000001,0.20000000000000004,5,4,3,1,9,9,6,1,2,0,15,7,Hc,0.27111111111111125,0.3044444444444446,0.2400000000000001,0.20000000000000004
4,11,21,1,8,0.7600000000000005,2,7,58,114,92,85,3.7899999999999796,2.3099999999999947,0.16,0.38000000000000017,6,5,1,3,12,10,1,3,2,0,12,7,Hc,0.31583333333333347,0.23100000000000007,0.16,0.12666666666666668
4,11,22,1,9,0.37000000000000016,3,4,48,71,45,15,4.249999999999962,3.6899999999999653,0.09,0.15,10,5,1,1,17,10,1,1,4,0,20,7,Hc,0.2500000000000001,0.36900000000000016,0.09,0.15
4,12,23,1,7,0.7000000000000004,2,3,119,88,33,10,6.329999999999925,0.5200000000000002,1.270000000000001,0.21000000000000005,9,1,4,2,15,1,6,2,3,0,16,7,Hc,0.4220000000000002,0.5200000000000002,0.21166666666666678,0.10499999999999998
4,12,24,1,2,0.23000000000000007,3,3,15,81,70,100,10.669999999999822,0.01,0.01,0.01,13,1,1,1,27,1,1,1,3,0,15,7,Hc,0.3951851851851854,0.01,0.01,0.01
4,13,25,1,10,0.8100000000000005,2,8,18,95,17,120,3.229999999999993,0.9000000000000006,0.9700000000000006,1.280000000000001,6,2,3,2,14,2,3,5,6,0,17,7,Hc,0.2307142857142858,0.45000000000000023,0.3233333333333335,0.2560000000000001
4,13,26,1,4,0.4000000000000002,2,3,74,104,101,62,5.839999999999929,0.4300000000000002,1.1100000000000008,0.3300000000000001,9,2,3,2,18,4,4,2,2,0,11,7,Hc,0.3244444444444446,0.1075,0.27750000000000014,0.16500000000000004
4,14,27,1,4,0.48000000000000026,2,3,102,106,87,21,2.929999999999992,2.1899999999999973,1.350000000000001,0.4400000000000002,5,4,3,2,6,7,9,3,2,0,13,7,Hc,0.4883333333333336,0.312857142857143,0.15000000000000002,0.1466666666666667
4,14,28,1,2,0.2700000000000001,2,4,74,1,77,109,1.9900000000000013,2.399999999999993,0.25000000000000006,0.3300000000000001,4,3,2,1,9,9,3,1,3,0,14,7,Hc,0.2211111111111112,0.2666666666666668,0.08333333333333334,0.3300000000000001
4,15,29,1,1,0.6000000000000003,3,6,33,110,66,61,4.849999999999954,0.4400000000000002,0.25000000000000006,0.8000000000000005,9,1,1,3,18,1,1,4,5,0,15,7,Hc,0.26944444444444454,0.4400000000000002,0.25000000000000006,0.20000000000000004
4,15,30,1,3,0.4000000000000002,2,3,21,19,96,14,4.7299999999999525,0.6200000000000003,0.3000000000000001,1.1100000000000008,6,2,1,4,13,2,1,9,5,0.5,21,7,Hc,0.363846153846154,0.3100000000000001,0.3000000000000001,0.12333333333333334
4,16,31,1,1,0.49000000000000027,2,6,26,29,4,63,2.7199999999999966,0.6200000000000003,1.6000000000000012,0.4000000000000002,6,2,4,1,13,4,4,1,5,0,20,7,Hc,0.2092307692307693,0.15500000000000005,0.4000000000000002,0.4000000000000002
4,16,32,1,6,0.17,2,2,14,57,59,84,15.969999999999708,0.01,0.01,0.02,15,1,1,1,48,1,1,1,4,0,17,7,Hc,0.3327083333333335,0.01,0.01,0.02
4,17,33,1,7,0.6500000000000004,3,7,70,90,30,69,6.249999999999925,0.7900000000000005,0.9500000000000006,0.05,11,2,4,1,23,2,6,1,3,0,16,7,Hc,0.2717391304347827,0.3950000000000002,0.15833333333333338,0.05
4,17,34,1,3,0.46000000000000024,2,5,74,49,83,51,4.269999999999963,1.410000000000001,0.26000000000000006,1.5400000000000011,6,3,1,5,13,3,1,5,5,0,14,7,Hc,0.32846153846153864,0.47000000000000025,0.26000000000000006,0.3080000000000001
4,18,35,1,8,0.47000000000000025,2,3,114,16,92,41,8.829999999999867,3.2999999999999736,0.01,0.01,12,6,1,1,25,9,1,1,2,0,16,7,Hc,0.3532000000000002,0.36666666666666686,0.01,0.01
4,18,36,1,2,0.49000000000000027,2,5,3,25,74,32,5.039999999999948,0.45000000000000023,0.3200000000000001,0.26000000000000006,7,3,2,1,18,5,3,1,3,0,19,7,Hc,0.28000000000000014,0.09,0.10666666666666669,0.26000000000000006
4,19,37,1,8,0.4400000000000002,2,4,114,26,76,30,2.1500000000000017,1.6500000000000012,0.4200000000000002,0.46000000000000024,3,2,1,1,5,3,1,1,2,0,15,7,Hc,0.43000000000000027,0.5500000000000004,0.4200000000000002,0.46000000000000024
4,19,38,1,4,0.7700000000000005,3,5,69,85,100,107,7.249999999999907,0.11999999999999998,0.12999999999999998,0.060000000000000005,12,2,2,1,19,2,2,1,2,0,11,7,Hc,0.38157894736842124,0.05999999999999999,0.065,0.060000000000000005
4,20,39,1,6,0.4400000000000002,2,5,11,89,8,52,4.319999999999961,0.6100000000000003,0.10999999999999999,0.6400000000000003,8,2,1,2,11,3,1,2,4,0,19,7,Hc,0.3927272727272729,0.2033333333333334,0.10999999999999999,0.3200000000000001
4,20,40,1,1,0.6500000000000004,3,5,21,30,100,62,6.98999999999991,0.26000000000000006,1.370000000000001,0.10999999999999999,12,2,4,1,27,3,5,1,5,0,17,7,Hc,0.258888888888889,0.08666666666666666,0.27400000000000013,0.10999999999999999
4,21,41,1,9,8.63999999999986,8,18,3,70,118,85,9.989999999999862,5.3899999999999295,2.249999999999996,1.450000000000001,10,7,4,5,21,21,5,6,4,0,15,7,Hc,0.47571428571428553,0.25666666666666677,0.45000000000000023,0.24166666666666678
4,21,42,1,1,1.1100000000000008,5,8,24,54,97,31,4.849999999999965,0.3900000000000002,0.47000000000000025,0.34000000000000014,9,2,1,2,15,3,1,2,5,0,17,7,Hc,0.3233333333333335,0.13,0.47000000000000025,0.17000000000000007
5,1,1,0,4,0.5800000000000003,2,3,72,46,44,101,6.9599999999999085,0.7000000000000004,0.5300000000000002,4.109999999999957,11,1,1,6,21,1,1,10,2,0,16,7,Hc,0.33142857142857157,0.7000000000000004,0.5300000000000002,0.4110000000000002
5,1,2,0,6,0.26000000000000006,2,3,32,78,59,81,7.519999999999889,0.5000000000000002,0.5500000000000003,0.34000000000000014,9,1,2,1,20,1,3,1,4,0,15,7,Hc,0.37600000000000017,0.5000000000000002,0.18333333333333338,0.34000000000000014
5,2,3,0,7,0.36000000000000015,2,3,91,57,115,110,6.68999999999991,3.979999999999959,0.4000000000000002,0.19000000000000003,9,5,2,1,17,8,2,1,3,0,11,7,Hc,0.39352941176470607,0.4975000000000003,0.2000000000000001,0.19000000000000003
5,2,4,0,2,1.2300000000000009,2,10,70,104,11,28,8.679999999999886,0.7500000000000004,0.7400000000000004,0.7900000000000005,11,2,1,2,32,3,1,3,3,0,17,7,Hc,0.2712500000000001,0.25000000000000006,0.7400000000000004,0.2633333333333334
5,3,5,0,2,0.6000000000000003,2,6,78,25,32,81,7.149999999999905,0.9000000000000006,0.5000000000000002,0.8300000000000005,12,2,1,2,23,2,1,4,3,0,16,7,Hc,0.31086956521739145,0.4500000000000002,0.5000000000000002,0.20750000000000005
5,3,6,0,5,0.3900000000000002,2,3,48,46,100,68,5.599999999999934,3.3599999999999723,0.9000000000000006,0.6000000000000003,10,6,4,2,15,6,6,2,6,0,16,7,Hc,0.3733333333333335,0.5600000000000004,0.15000000000000005,0.3000000000000001
5,4,7,0,6,0.7000000000000004,3,6,117,50,115,35,7.219999999999906,0.8000000000000005,1.7900000000000014,0.2800000000000001,10,3,3,1,19,3,3,1,4,0,13,7,Hc,0.38,0.2666666666666667,0.596666666666667,0.2800000000000001
5,4,8,0,9,0.6600000000000004,2,4,63,106,101,23,6.459999999999921,3.6699999999999657,0.35000000000000014,3.619999999999967,9,5,1,4,19,10,1,6,4,0,14,7,Hc,0.34000000000000014,0.36700000000000016,0.35000000000000014,0.6033333333333337
5,5,9,0,3,0.2700000000000001,2,3,80,118,119,42,7.51999999999989,2.06,0.3000000000000001,0.45000000000000023,12,4,1,2,20,10,1,2,5,0,12,7,Hc,0.37600000000000017,0.20600000000000007,0.3000000000000001,0.22500000000000003
5,5,10,0,4,0.38000000000000017,2,3,102,106,99,34,8.249999999999877,0.6900000000000004,1.430000000000001,0.3200000000000001,15,3,5,2,27,3,6,2,2,0.5,11,7,Hc,0.3055555555555557,0.23000000000000004,0.2383333333333334,0.16000000000000003
5,6,11,0,10,0.5500000000000003,2,4,16,18,78,43,11.049999999999821,0.09999999999999999,0.23000000000000007,0.13999999999999999,11,1,1,1,24,1,1,1,6,0,20,7,Hc,0.4604166666666669,0.09999999999999999,0.23000000000000007,0.13999999999999999
5,6,12,0,7,0.4100000000000002,2,3,95,109,114,117,5.1499999999999435,2.259999999999996,0.7800000000000005,0.6800000000000004,8,4,5,2,11,5,7,4,3,0.5,9,7,Hc,0.4681818181818185,0.45200000000000023,0.11142857142857145,0.17000000000000004
5,7,13,1,4,1.1100000000000008,3,5,76,47,105,2,6.609999999999928,0.7900000000000005,1.8400000000000014,1.1300000000000008,10,2,3,2,19,2,5,3,2,0,16,7,Hc,0.3478947368421054,0.3950000000000002,0.3680000000000002,0.37666666666666687
5,7,14,1,7,0.3900000000000002,2,3,90,87,89,55,5.8099999999999294,2.3599999999999937,0.24000000000000007,1.9300000000000015,10,7,1,3,20,12,1,5,3,0.5,13,7,Hc,0.29050000000000015,0.19666666666666674,0.24000000000000007,0.3860000000000002
5,8,15,1,3,0.4200000000000002,2,3,67,47,70,107,10.419999999999831,0.11999999999999998,1.7600000000000013,0.4100000000000002,15,1,5,1,31,1,10,1,5,0,15,7,Hc,0.3361290322580647,0.11999999999999998,0.17600000000000002,0.4100000000000002
5,8,16,1,6,0.47000000000000025,2,4,51,11,53,111,8.889999999999866,4.149999999999956,1.460000000000001,5.429999999999929,15,6,4,8,36,10,6,12,4,0,16,7,Hc,0.24694444444444452,0.4150000000000002,0.2433333333333334,0.45250000000000024
5,9,17,1,9,0.4000000000000002,2,3,64,71,2,61,6.9799999999999045,0.7300000000000004,1.2200000000000009,0.6200000000000003,11,2,3,2,18,2,7,2,4,0.5,18,7,Hc,0.387777777777778,0.36500000000000016,0.17428571428571432,0.3100000000000001
5,9,18,1,8,0.37000000000000016,2,5,18,14,81,24,8.819999999999865,0.4200000000000002,0.9300000000000006,0.6000000000000003,11,1,3,3,34,1,3,3,2,0.5,21,7,Hc,0.25941176470588245,0.4200000000000002,0.3100000000000001,0.20000000000000007
5,10,19,1,1,0.3100000000000001,2,4,4,108,35,103,7.989999999999881,0.6000000000000003,0.17,0.3900000000000002,13,2,1,2,25,3,1,3,5,0,15,7,Hc,0.31960000000000016,0.20000000000000004,0.17,0.13
5,10,20,1,9,0.7800000000000005,2,5,70,13,76,14,7.799999999999895,5.149999999999935,0.09999999999999999,0.6300000000000003,11,11,1,2,20,19,1,3,4,0,19,7,Hc,0.3900000000000002,0.2710526315789475,0.09999999999999999,0.21000000000000005
5,11,21,1,3,0.17,2,2,6,118,10,65,20.49000000000038,0.01,0.02,1.330000000000001,20,1,1,3,54,1,1,3,5,0,18,7,Hc,0.37944444444444453,0.01,0.02,0.4433333333333336
5,11,22,1,6,0.35000000000000014,2,5,51,102,88,56,7.749999999999887,1.7700000000000014,1.300000000000001,0.09,10,4,1,1,24,7,1,1,4,0,13,7,Hc,0.32291666666666685,0.25285714285714295,1.300000000000001,0.09
5,12,23,1,1,1.1100000000000008,2,3,25,93,108,33,10.119999999999854,0.8900000000000006,0.8100000000000005,3.099999999999978,13,1,3,5,22,1,3,7,5,0,15,7,Hc,0.46000000000000024,0.8900000000000006,0.2700000000000001,0.4428571428571431
5,12,24,1,8,0.17,2,3,109,55,119,76,2.9499999999999846,5.569999999999926,0.46000000000000024,2.399999999999993,7,9,3,6,10,16,3,6,2,0,11,7,Hc,0.29500000000000015,0.3481250000000002,0.15333333333333335,0.4000000000000002
5,13,25,1,5,0.8100000000000005,7,8,5,2,88,47,6.079999999999933,3.5399999999999685,0.49000000000000027,0.4400000000000002,13,5,2,1,21,10,3,1,6,0,20,7,Hc,0.28952380952380963,0.35400000000000015,0.16333333333333336,0.4400000000000002
5,13,26,1,10,0.8800000000000006,5,9,36,100,101,74,12.929999999999788,0.10999999999999999,0.5300000000000002,0.10999999999999999,18,1,3,2,46,1,3,3,6,0,12,7,Hc,0.28108695652173926,0.10999999999999999,0.17666666666666672,0.03666666666666667
5,14,27,1,10,0.6300000000000003,2,4,19,97,18,22,6.399999999999922,0.8700000000000006,0.4400000000000002,2.159999999999998,11,2,2,5,18,2,2,6,6,0.5,20,7,Hc,0.35555555555555574,0.4350000000000003,0.22000000000000006,0.3600000000000002
5,14,28,1,8,0.2800000000000001,2,5,89,113,6,109,6.309999999999916,0.2800000000000001,1.0400000000000007,4.239999999999954,8,1,2,4,19,1,2,5,2,0,13,7,Hc,0.3321052631578949,0.2800000000000001,0.5200000000000002,0.8480000000000005
5,15,29,1,9,1.7800000000000014,4,7,85,87,13,65,4.9699999999999775,2.4199999999999924,2.4699999999999913,0.6200000000000003,9,6,4,3,14,7,8,3,4,0,16,7,Hc,0.35500000000000015,0.34571428571428586,0.30875000000000014,0.20666666666666672
5,15,30,1,8,0.37000000000000016,2,4,112,9,120,114,5.7199999999999305,1.7700000000000014,0.26000000000000006,0.8400000000000005,8,4,1,2,13,4,1,2,2,0.5,12,7,Hc,0.4400000000000003,0.4425000000000002,0.26000000000000006,0.4200000000000002
5,16,31,1,1,0.2800000000000001,2,3,28,26,59,4,4.73999999999995,4.3599999999999515,1.6800000000000013,1.8200000000000014,9,7,4,6,12,13,4,7,5,0,20,7,Hc,0.3950000000000002,0.33538461538461556,0.4200000000000002,0.2600000000000001
5,16,32,1,7,0.2800000000000001,2,4,96,93,13,66,5.439999999999935,1.450000000000001,6.1399999999999135,0.36000000000000015,13,3,11,2,22,3,14,2,3,0,16,7,Hc,0.24727272727272737,0.4833333333333336,0.4385714285714288,0.18000000000000005
5,17,33,1,8,0.34000000000000014,2,3,116,86,96,120,6.389999999999915,2.6399999999999877,2.429999999999992,0.05,9,7,5,1,18,8,6,1,2,0,10,7,Hc,0.3550000000000002,0.3300000000000001,0.4050000000000002,0.05
5,17,34,1,2,0.4200000000000002,2,5,79,74,76,78,5.629999999999933,0.8800000000000006,0.4000000000000002,1.5900000000000012,12,3,1,6,18,4,1,9,3,1,36,7,Hc,0.31277777777777793,0.22000000000000006,0.4000000000000002,0.17666666666666672
5,18,35,1,3,0.20000000000000004,2,3,40,38,44,12,1.8500000000000012,4.43999999999995,0.21000000000000005,9.10999999999985,5,6,1,13,6,11,1,26,5,0.5,21,7,Hc,0.3083333333333335,0.40363636363636385,0.21000000000000005,0.35038461538461557
5,18,36,1,2,0.3000000000000001,2,3,81,82,83,84,4.579999999999953,0.6500000000000004,2.3299999999999943,3.4999999999999694,7,2,5,9,13,2,8,11,3,1,36,7,Hc,0.3523076923076925,0.3250000000000002,0.2912500000000001,0.31818181818181834
5,19,37,1,5,0.5400000000000003,3,5,7,98,1,2,12.109999999999799,0.4400000000000002,0.08,0.8000000000000005,13,1,2,3,28,1,2,3,6,0.5,20,7,Hc,0.43250000000000005,0.4400000000000002,0.04,0.2666666666666668
5,19,38,1,8,0.12999999999999998,2,2,14,86,114,32,24.840000000001062,0.6800000000000004,0.8400000000000005,0.05,20,3,2,2,69,3,4,2,2,0,16,7,Hc,0.36000000000000015,0.2266666666666668,0.21000000000000008,0.025
5,20,39,1,5,0.9100000000000006,2,7,3,2,11,86,7.819999999999897,2.1199999999999988,0.11999999999999998,0.4100000000000002,14,7,1,1,30,8,1,1,6,0.5,21,7,Hc,0.26066666666666677,0.2650000000000001,0.11999999999999998,0.4100000000000002
5,20,40,1,4,0.4300000000000002,2,4,106,103,17,19,4.1199999999999655,1.7100000000000013,3.849999999999962,1.7200000000000013,9,5,8,8,16,5,13,12,2,0,16,7,Hc,0.2575000000000001,0.34200000000000014,0.29615384615384627,0.14333333333333337
6,1,1,0,7,0.48000000000000026,2,5,61,103,25,91,3.829999999999973,0.38000000000000017,0.23000000000000007,0.26000000000000006,7,2,2,2,13,3,2,2,3,0,14,7,Hc,0.2946153846153847,0.12666666666666668,0.11500000000000002,0.13
6,1,2,0,6,0.5900000000000003,4,8,60,118,119,45,3.3399999999999856,0.4300000000000002,0.5300000000000002,0.38000000000000017,8,1,2,2,13,1,2,2,4,0,13,7,Hc,0.25692307692307703,0.4300000000000002,0.26500000000000007,0.19000000000000003
6,2,3,0,8,0.38000000000000017,2,3,116,117,14,94,4.689999999999952,3.089999999999978,5.909999999999918,0.08,7,7,10,1,9,9,18,1,2,0,13,7,Hc,0.5211111111111101,0.3433333333333335,0.3283333333333335,0.08
6,2,4,0,5,0.5300000000000002,2,4,63,76,66,5,3.6599999999999775,0.4100000000000002,0.35000000000000014,0.36000000000000015,7,1,2,2,13,1,2,2,6,0,17,7,Hc,0.2815384615384616,0.4100000000000002,0.17500000000000004,0.18000000000000002
6,3,5,0,8,0.49000000000000027,2,5,120,43,19,68,2.3600000000000017,2.1799999999999975,0.26000000000000006,0.15,6,4,1,2,14,4,1,2,2,0,17,7,Hc,0.16857142857142862,0.5450000000000003,0.26000000000000006,0.075
6,3,6,0,6,0.4000000000000002,2,3,99,3,4,78,4.499999999999957,0.15,0.9100000000000006,0.10999999999999999,11,1,4,1,20,1,4,1,4,0,17,7,Hc,0.22500000000000006,0.15,0.2275000000000001,0.10999999999999999
6,4,7,0,6,0.45000000000000023,2,5,100,20,102,24,3.559999999999978,0.2900000000000001,0.25000000000000006,0.2800000000000001,7,1,1,2,17,1,1,2,4,0,16,7,Hc,0.2094117647058824,0.2900000000000001,0.25000000000000006,0.13999999999999999
6,4,8,0,2,0.4200000000000002,2,3,82,118,47,70,1.8300000000000012,1.310000000000001,1.1100000000000008,0.24000000000000007,4,2,3,1,5,5,3,1,3,0,14,7,Hc,0.36600000000000016,0.2620000000000001,0.37000000000000016,0.24000000000000007
6,5,9,0,5,0.4100000000000002,2,3,10,64,43,112,3.319999999999982,0.46000000000000024,1.1900000000000008,0.36000000000000015,9,2,3,1,15,2,5,1,6,0,17,7,Hc,0.2213333333333334,0.23000000000000004,0.23800000000000007,0.36000000000000015
6,5,10,0,10,0.36000000000000015,2,5,13,16,34,83,2.0000000000000013,8.249999999999869,0.01,0.02,4,11,1,1,8,21,1,1,6,0,20,7,Hc,0.2500000000000001,0.39285714285714307,0.01,0.02
6,6,11,0,1,0.36000000000000015,2,5,34,116,57,33,1.740000000000001,1.9100000000000015,0.6200000000000003,0.11999999999999998,3,4,2,1,6,5,2,1,5,0,16,7,Hc,0.29000000000000015,0.3820000000000002,0.3100000000000001,0.11999999999999998
6,6,12,0,3,0.6700000000000004,3,4,105,80,42,71,3.589999999999982,0.18000000000000002,0.34000000000000014,1.0000000000000007,8,1,1,4,10,1,1,4,5,0,14,7,Hc,0.35900000000000015,0.18000000000000002,0.34000000000000014,0.2500000000000001
6,7,13,1,6,0.4100000000000002,2,4,74,51,83,81,2.7899999999999934,0.4300000000000002,0.20000000000000004,0.10999999999999999,6,2,1,1,9,2,1,1,4,0.5,13,7,Hc,0.31000000000000016,0.21500000000000008,0.20000000000000004,0.10999999999999999
6,7,14,1,7,0.5700000000000003,2,5,90,89,31,66,1.4800000000000009,2.0500000000000003,0.34000000000000014,0.2900000000000001,4,5,2,1,7,8,3,1,3,0,15,7,Hc,0.2114285714285715,0.2562500000000001,0.11333333333333333,0.2900000000000001
6,8,15,1,6,0.23000000000000007,2,3,58,57,119,24,2.250000000000001,0.4400000000000002,1.410000000000001,0.2700000000000001,5,2,6,2,12,2,6,2,4,0,16,7,Hc,0.18750000000000006,0.22000000000000003,0.23500000000000007,0.135
6,8,16,1,9,0.2900000000000001,1,2,10,105,108,32,4.3699999999999575,0.35000000000000014,0.3900000000000002,0.05,7,1,1,1,10,1,1,1,4,0,15,7,Hc,0.4370000000000002,0.35000000000000014,0.3900000000000002,0.05
6,9,17,1,3,0.5300000000000002,2,3,45,19,59,98,2.6699999999999986,1.2500000000000009,0.6600000000000004,0.4300000000000002,7,4,2,2,11,6,3,3,5,0,17,7,Hc,0.24272727272727282,0.20833333333333343,0.22000000000000008,0.14333333333333334
6,9,18,1,8,0.9800000000000006,3,4,27,4,3,113,4.779999999999964,1.7000000000000013,2.249999999999996,0.02,8,8,6,1,13,9,7,1,2,0,19,7,Hc,0.3676923076923079,0.18888888888888894,0.32142857142857156,0.02
6,10,19,1,9,0.5400000000000003,2,3,114,24,64,48,3.5799999999999796,0.35000000000000014,0.5900000000000003,0.4000000000000002,8,1,2,1,14,1,4,1,4,0,17,7,Hc,0.2557142857142858,0.35000000000000014,0.14750000000000002,0.4000000000000002
6,10,20,1,1,0.5900000000000003,3,4,75,108,54,34,2.8899999999999952,1.1100000000000008,0.49000000000000027,0.18000000000000002,7,3,1,1,11,5,1,1,5,0,14,7,Hc,0.2627272727272728,0.22200000000000006,0.49000000000000027,0.18000000000000002
6,11,21,1,5,0.5600000000000003,2,5,106,5,2,1,2.859999999999995,0.23000000000000007,0.2900000000000001,12.189999999999785,6,1,1,12,15,1,1,17,6,0.5,20,7,Hc,0.1906666666666667,0.23000000000000007,0.2900000000000001,0.7170588235294119
6,11,22,1,2,0.25000000000000006,2,4,73,33,19,35,2.4299999999999975,0.3200000000000001,0.5700000000000003,1.1900000000000008,6,1,1,3,9,1,1,5,3,0,19,7,Hc,0.27000000000000013,0.3200000000000001,0.5700000000000003,0.23800000000000007
6,12,23,1,9,0.5500000000000003,2,7,31,4,69,71,4.079999999999969,0.48000000000000026,0.7200000000000004,0.07,7,2,3,2,18,2,3,2,4,0,19,7,Hc,0.22666666666666677,0.2400000000000001,0.2400000000000001,0.035
6,12,24,1,6,0.47000000000000025,2,5,59,48,40,102,6.379999999999919,0.09999999999999999,0.4400000000000002,0.37000000000000016,11,1,2,2,21,1,2,2,4,0,16,7,Hc,0.303809523809524,0.09999999999999999,0.22000000000000006,0.18500000000000008
6,13,25,1,6,0.6700000000000004,3,5,2,31,33,36,2.979999999999995,0.24000000000000007,0.17,0.5000000000000002,7,1,1,2,10,1,1,2,4,0.5,21,7,Hc,0.29800000000000015,0.24000000000000007,0.17,0.25000000000000006
6,13,26,1,3,0.45000000000000023,3,5,62,44,67,68,4.649999999999955,0.25000000000000006,0.060000000000000005,0.10999999999999999,9,2,1,1,13,2,1,1,5,0.5,17,7,Hc,0.35769230769230786,0.125,0.060000000000000005,0.10999999999999999
6,14,27,1,2,0.36000000000000015,2,3,73,72,66,82,2.2600000000000016,0.6600000000000004,0.7300000000000004,0.3300000000000001,5,1,2,4,7,1,2,4,3,0,14,7,Hc,0.322857142857143,0.6600000000000004,0.36500000000000016,0.08249999999999999
6,14,28,1,4,0.5400000000000003,5,7,101,31,57,36,2.7799999999999967,1.8100000000000014,0.5800000000000003,0.2700000000000001,11,4,2,2,15,5,2,2,2,0,16,7,Hc,0.1853333333333334,0.36200000000000015,0.2900000000000001,0.135
6,15,29,1,7,0.34000000000000014,2,4,86,68,61,94,1.4000000000000008,2.0899999999999994,0.5300000000000002,0.08,4,8,3,1,7,11,5,1,3,0,14,7,Hc,0.20000000000000007,0.19000000000000006,0.10600000000000001,0.08
6,15,30,1,8,0.5600000000000003,2,6,118,73,43,110,1.720000000000001,2.199999999999997,0.37000000000000016,0.10999999999999999,4,5,2,1,8,6,2,1,2,0,12,7,Hc,0.21500000000000008,0.3666666666666668,0.18500000000000003,0.10999999999999999
6,16,31,1,9,0.3100000000000001,2,3,68,36,96,86,3.359999999999979,1.1400000000000008,0.19000000000000003,0.7100000000000004,9,3,1,3,13,3,1,3,4,0,15,7,Hc,0.2584615384615386,0.3800000000000002,0.19000000000000003,0.23666666666666672
6,16,32,1,3,0.8100000000000005,4,5,78,13,59,21,10.029999999999848,0.34000000000000014,0.02,0.01,18,3,1,1,25,3,1,1,5,0,19,7,Hc,0.4012000000000002,0.11333333333333337,0.02,0.01
6,17,33,1,1,0.3000000000000001,2,3,93,34,71,119,3.1399999999999837,1.390000000000001,2.259999999999996,0.8700000000000006,9,4,3,2,13,5,3,2,5,0,14,7,Hc,0.24153846153846162,0.27800000000000014,0.7533333333333339,0.4350000000000003
6,17,34,1,4,0.8100000000000005,2,4,105,104,81,49,2.530000000000002,0.5500000000000003,2.629999999999988,0.03,5,1,3,1,9,1,3,1,2,0,11,7,Hc,0.2811111111111112,0.5500000000000003,0.8766666666666659,0.03
6,18,35,1,8,0.6700000000000004,2,7,63,72,91,92,3.649999999999981,0.8600000000000005,0.20000000000000004,0.15,7,1,2,1,19,1,2,1,2,0,14,7,Hc,0.1921052631578948,0.8600000000000005,0.10000000000000002,0.15
6,18,36,1,1,0.3000000000000001,2,2,13,55,59,98,13.869999999999756,0.02,1.380000000000001,0.02,20,1,3,1,33,1,3,1,5,0,16,7,Hc,0.4203030303030305,0.02,0.46000000000000024,0.02
6,19,37,1,4,0.25000000000000006,2,4,95,106,91,100,3.0899999999999834,1.8600000000000014,0.2800000000000001,0.22000000000000006,8,4,2,2,17,7,2,2,2,0,10,7,Hc,0.181764705882353,0.26571428571428585,0.13999999999999999,0.11000000000000001
6,19,38,1,9,0.3200000000000001,2,3,23,14,70,113,5.269999999999939,1.8600000000000014,0.4400000000000002,0.01,14,4,5,1,19,4,5,1,4,0,18,7,Hc,0.2773684210526317,0.46500000000000025,0.08800000000000001,0.01
6,20,39,1,6,0.22000000000000006,1,3,88,90,60,86,3.6699999999999706,0.2800000000000001,2.06,0.09,9,3,5,2,13,3,8,2,4,0.5,13,7,Hc,0.2823076923076924,0.09333333333333335,0.25750000000000006,0.045000000000000005
6,20,40,1,3,0.26000000000000006,2,3,40,103,63,108,2.669999999999993,0.8500000000000005,0.3100000000000001,2.109999999999999,5,2,2,4,7,2,2,6,5,0,13,7,Hc,0.3814285714285716,0.4250000000000002,0.15500000000000003,0.35166666666666685
6,21,41,1,4,0.5100000000000002,2,5,98,42,96,90,1.8400000000000012,2.3199999999999945,0.37000000000000016,0.16,4,5,2,1,9,5,4,1,2,0,13,7,Hc,0.2044444444444445,0.46400000000000025,0.0925,0.16
6,21,42,1,1,0.3100000000000001,2,3,67,35,36,34,6.399999999999915,0.01,0.060000000000000005,0.02,11,1,2,1,17,1,2,1,5,0.5,19,7,Hc,0.3764705882352943,0.01,0.03,0.02
7,1,1,0,6,0.2700000000000001,2,3,83,28,32,52,3.7999999999999687,0.6900000000000004,0.48000000000000026,0.21000000000000005,7,2,1,2,13,2,1,2,4,0,17,7,Hc,0.29230769230769243,0.3450000000000002,0.48000000000000026,0.10500000000000001
7,1,2,0,7,0.2800000000000001,2,3,93,105,86,43,2.5999999999999948,1.370000000000001,0.8000000000000005,0.5300000000000002,6,2,3,2,10,2,4,2,3,0,13,7,Hc,0.2600000000000001,0.6850000000000004,0.20000000000000007,0.26500000000000007
7,2,3,0,8,0.8600000000000005,2,5,74,109,28,35,5.049999999999955,0.9500000000000006,0.2700000000000001,0.5600000000000003,6,5,1,4,18,6,1,4,2,0,15,7,Hc,0.28055555555555567,0.15833333333333335,0.2700000000000001,0.14
7,2,4,0,7,0.5500000000000003,2,4,6,96,42,39,3.749999999999976,0.9600000000000006,1.480000000000001,0.5100000000000002,5,2,3,1,9,4,6,1,3,0,19,7,Hc,0.4166666666666669,0.24000000000000005,0.24666666666666676,0.5100000000000002
7,3,5,0,4,0.6500000000000004,2,3,56,101,97,51,5.049999999999951,0.4100000000000002,0.24000000000000007,0.5400000000000003,8,2,1,1,18,3,1,1,2,0,12,7,Hc,0.28055555555555567,0.1366666666666667,0.24000000000000007,0.5400000000000003
7,3,6,0,5,0.49000000000000027,2,4,46,40,10,66,4.099999999999968,0.5700000000000003,5.3899999999999295,2.4999999999999907,7,2,7,5,15,4,10,5,6,0,20,7,Hc,0.27333333333333343,0.14250000000000004,0.5390000000000003,0.5000000000000002
7,4,7,0,10,0.4300000000000002,2,4,89,58,41,100,4.919999999999949,0.5700000000000003,0.2700000000000001,0.25000000000000006,7,1,2,2,17,2,2,2,6,0,14,7,Hc,0.2894117647058825,0.2850000000000001,0.13500000000000004,0.12500000000000003
7,4,8,0,1,0.45000000000000023,2,3,1,65,35,28,5.729999999999932,0.19000000000000003,0.34000000000000014,0.34000000000000014,9,1,2,2,14,1,3,2,5,0,20,7,Hc,0.4092857142857145,0.19000000000000003,0.11333333333333336,0.17
7,5,9,0,9,1.6100000000000012,3,8,96,90,65,41,4.829999999999977,0.6100000000000003,2.7999999999999843,0.5900000000000003,6,2,5,2,13,2,6,2,4,0,15,7,Hc,0.3715384615384617,0.3050000000000001,0.4666666666666669,0.2950000000000001
7,5,10,0,2,0.5600000000000003,3,5,32,77,49,27,2.9399999999999933,2.0500000000000003,1.0000000000000007,1.0800000000000007,6,4,4,3,9,7,4,6,3,0,17,7,Hc,0.3266666666666668,0.292857142857143,0.25000000000000006,0.18000000000000005
7,6,11,0,4,0.4300000000000002,1,2,99,98,80,75,3.099999999999987,2.1199999999999988,0.5300000000000002,0.6100000000000003,6,6,1,1,8,6,1,1,2,0,10,7,Hc,0.3875000000000002,0.3533333333333335,0.5300000000000002,0.6100000000000003
7,6,12,0,1,0.7600000000000005,2,3,35,29,96,32,3.2799999999999905,1.0300000000000007,1.330000000000001,1.1100000000000008,4,3,3,3,8,4,3,5,5,0.5,18,7,Hc,0.4100000000000002,0.25750000000000006,0.4433333333333336,0.2220000000000001
7,7,13,1,8,0.9100000000000006,5,9,112,119,111,81,4.959999999999958,0.25000000000000006,0.25000000000000006,1.400000000000001,12,1,2,3,23,1,2,3,2,0.5,9,7,Hc,0.21565217391304356,0.25000000000000006,0.12500000000000003,0.4666666666666669
7,7,14,1,10,0.8900000000000006,6,9,69,30,87,86,4.88999999999996,0.45000000000000023,0.22000000000000006,0.3200000000000001,14,1,1,2,20,1,1,3,6,0,15,7,Hc,0.2445000000000001,0.45000000000000023,0.22000000000000006,0.10666666666666666
7,8,15,1,1,0.7100000000000004,2,6,33,93,58,27,2.969999999999996,1.2100000000000009,1.1500000000000008,0.22000000000000006,4,3,2,1,12,4,3,1,5,0,17,7,Hc,0.2475000000000001,0.3025000000000001,0.3833333333333335,0.22000000000000006
7,8,16,1,3,0.23000000000000007,2,3,47,120,42,45,3.189999999999981,2.569999999999989,0.09999999999999999,2.1399999999999983,7,2,1,3,12,4,1,3,5,0.5,17,7,Hc,0.2658333333333334,0.6425000000000004,0.09999999999999999,0.7133333333333338
7,9,17,1,6,0.8500000000000005,8,13,84,116,118,109,9.409999999999862,1.9600000000000015,0.6100000000000003,0.09,20,6,2,2,36,8,2,2,4,0.5,9,7,Hc,0.261388888888889,0.2450000000000001,0.30500000000000016,0.045000000000000005
7,9,18,1,5,0.3200000000000001,2,3,2,90,71,45,6.5699999999999115,0.35000000000000014,1.0400000000000007,0.5100000000000002,12,2,4,1,20,3,4,1,6,0,18,7,Hc,0.3285000000000001,0.11666666666666665,0.2600000000000001,0.5100000000000002
7,10,19,1,2,0.37000000000000016,2,3,81,77,30,34,3.929999999999968,1.1500000000000008,0.4400000000000002,0.5700000000000003,6,2,1,2,12,4,1,4,3,0,16,7,Hc,0.3275000000000001,0.2875000000000001,0.4400000000000002,0.14250000000000004
7,10,20,1,4,0.5600000000000003,4,5,92,95,38,102,4.319999999999964,0.9200000000000006,2.0799999999999996,0.09999999999999999,10,2,3,1,16,2,5,1,2,0,13,7,Hc,0.27000000000000013,0.4600000000000002,0.4160000000000002,0.09999999999999999
7,11,21,1,7,0.4400000000000002,2,4,93,112,85,5,6.099999999999924,0.47000000000000025,0.5500000000000003,0.5900000000000003,9,2,2,1,12,2,2,1,3,0,14,7,Hc,0.5083333333333321,0.23500000000000004,0.27500000000000013,0.5900000000000003
7,11,22,1,9,0.35000000000000014,2,4,97,78,30,69,4.579999999999955,0.8900000000000006,1.1800000000000008,0.060000000000000005,8,2,3,1,13,2,3,1,4,0,14,7,Hc,0.3523076923076925,0.4450000000000003,0.39333333333333353,0.060000000000000005
7,12,23,1,4,0.6000000000000003,2,4,100,93,39,95,6.559999999999918,1.480000000000001,0.060000000000000005,0.10999999999999999,13,4,1,1,25,5,1,1,2,0,13,7,Hc,0.2624000000000001,0.29600000000000015,0.060000000000000005,0.10999999999999999
7,12,24,1,8,0.25000000000000006,2,2,1,112,28,56,9.099999999999856,0.060000000000000005,0.13999999999999999,0.05,15,2,1,1,35,2,1,1,2,0,17,7,Hc,0.2600000000000001,0.03,0.13999999999999999,0.05
7,13,25,1,6,0.6000000000000003,4,5,111,52,120,60,4.979999999999952,0.13999999999999999,1.6100000000000012,0.09999999999999999,11,1,4,1,18,1,4,1,4,0,12,7,Hc,0.2766666666666668,0.13999999999999999,0.4025000000000002,0.09999999999999999
7,13,26,1,10,0.2900000000000001,2,3,16,13,18,23,4.299999999999959,0.5800000000000003,1.470000000000001,0.060000000000000005,8,3,6,1,12,5,7,1,6,1,72,7,Hc,0.3583333333333335,0.11600000000000002,0.21000000000000008,0.060000000000000005
7,14,27,1,7,0.4000000000000002,4,5,94,88,61,109,5.989999999999926,0.09999999999999999,0.24000000000000007,0.3200000000000001,11,1,2,1,17,1,2,1,3,0,12,7,Hc,0.35235294117647076,0.09999999999999999,0.12,0.3200000000000001
7,14,28,1,1,0.38000000000000017,2,3,34,28,97,52,2.839999999999992,0.9800000000000006,1.6500000000000012,0.5000000000000002,5,3,4,1,7,5,5,1,5,0,16,7,Hc,0.4057142857142859,0.19600000000000006,0.3300000000000001,0.5000000000000002
7,15,29,1,4,0.3200000000000001,1,2,79,43,63,106,3.4499999999999775,2.619999999999988,0.16,0.13999999999999999,5,4,2,1,6,8,2,1,2,0,14,7,Hc,0.5750000000000003,0.3275000000000001,0.07999999999999999,0.13999999999999999
7,15,30,1,1,0.4200000000000002,2,3,109,116,5,54,4.569999999999956,0.8800000000000006,0.37000000000000016,0.45000000000000023,7,3,1,2,11,3,1,2,5,0,14,7,Hc,0.4154545454545457,0.29333333333333345,0.37000000000000016,0.22500000000000003
7,16,31,1,5,0.34000000000000014,2,3,10,1,6,104,2.749999999999993,1.1900000000000008,10.139999999999828,0.7800000000000005,5,3,11,1,7,6,30,1,6,0.5,20,7,Hc,0.39285714285714307,0.1983333333333334,0.3380000000000002,0.7800000000000005
7,16,32,1,2,0.5500000000000003,3,5,84,118,113,28,2.7399999999999975,2.4699999999999913,1.1800000000000008,1.0400000000000007,5,4,3,3,8,7,4,5,3,0,12,7,Hc,0.3425000000000002,0.352857142857143,0.29500000000000015,0.20800000000000007
7,17,33,1,10,0.37000000000000016,2,5,25,21,102,29,4.669999999999953,1.7400000000000013,0.4400000000000002,0.6600000000000004,9,5,2,1,19,5,3,1,6,0,18,7,Hc,0.24578947368421064,0.34800000000000014,0.1466666666666667,0.6600000000000004
7,17,34,1,3,0.9300000000000006,2,6,74,1,11,119,4.029999999999978,0.2800000000000001,0.6500000000000004,0.3300000000000001,6,1,2,1,13,1,3,1,5,0,17,7,Hc,0.31000000000000016,0.2800000000000001,0.2166666666666667,0.3300000000000001
7,18,35,1,6,0.6300000000000003,3,5,52,58,21,80,2.560000000000002,1.410000000000001,1.400000000000001,0.3100000000000001,7,2,3,1,11,6,3,1,4,0,17,7,Hc,0.2327272727272728,0.23500000000000007,0.4666666666666669,0.3100000000000001
7,18,36,1,5,1.1300000000000008,4,8,107,1,103,61,2.9300000000000024,1.330000000000001,0.3000000000000001,0.6900000000000004,6,3,2,2,11,5,3,3,6,0,14,7,Hc,0.26636363636363647,0.2660000000000001,0.1,0.2300000000000001
7,19,37,1,4,0.7300000000000004,2,3,94,11,5,89,5.099999999999952,0.8600000000000005,0.38000000000000017,0.2900000000000001,8,2,2,1,13,7,3,1,2,0,18,7,Hc,0.3923076923076925,0.12285714285714287,0.12666666666666668,0.2900000000000001
7,19,38,1,8,0.6300000000000003,2,6,115,83,75,20,4.009999999999972,0.8100000000000005,0.5200000000000002,1.7700000000000014,7,2,1,3,14,2,1,6,2,0,14,7,Hc,0.28642857142857153,0.40500000000000025,0.5200000000000002,0.2950000000000001
7,20,39,1,8,1.5300000000000011,3,5,12,120,3,77,5.739999999999956,1.2400000000000009,0.24000000000000007,0.19000000000000003,8,5,1,1,14,5,1,1,2,0,17,7,Hc,0.4100000000000002,0.24800000000000008,0.24000000000000007,0.19000000000000003
7,20,40,1,4,0.5400000000000003,2,3,34,106,16,22,5.129999999999947,0.45000000000000023,0.2900000000000001,0.17,8,2,2,1,11,2,2,1,2,0,19,7,Hc,0.4663636363636366,0.22500000000000003,0.14500000000000002,0.17
7,21,41,1,8,0.3300000000000001,2,3,113,20,46,89,5.9599999999999245,0.15,0.4200000000000002,0.16,12,1,1,1,17,1,1,1,2,0,16,7,Hc,0.3505882352941178,0.15,0.4200000000000002,0.16
7,21,42,1,1,0.3000000000000001,2,4,35,75,104,102,1.630000000000001,3.2199999999999753,0.3100000000000001,0.48000000000000026,4,5,1,2,7,11,1,3,5,0,12,7,Hc,0.23285714285714296,0.29272727272727284,0.3100000000000001,0.16
8,1,1,0,1,1.0700000000000007,2,8,97,34,30,26,6.819999999999922,1.5300000000000011,0.4400000000000002,0.7200000000000004,8,2,1,2,26,7,1,6,5,0.5,17,7,Hc,0.2623076923076924,0.21857142857142864,0.4400000000000002,0.12000000000000001
8,1,2,0,8,1.310000000000001,4,10,37,40,54,112,8.57999999999989,0.9500000000000006,3.749999999999964,0.07,12,4,4,1,36,4,14,1,2,0,16,7,Hc,0.23833333333333342,0.23750000000000004,0.26785714285714296,0.07
8,2,3,0,2,0.46000000000000024,2,3,53,82,73,58,8.20999999999988,0.36000000000000015,1.480000000000001,0.8800000000000006,11,1,4,4,31,1,7,7,3,0,14,7,Hc,0.26483870967741946,0.36000000000000015,0.2114285714285715,0.12571428571428572
8,2,4,0,7,0.3200000000000001,2,4,93,104,85,99,7.629999999999889,1.310000000000001,1.8800000000000014,0.20000000000000004,13,2,4,1,19,5,6,1,3,0,10,7,Hc,0.40157894736842126,0.26200000000000007,0.31333333333333346,0.20000000000000004
8,3,5,0,2,0.4300000000000002,2,6,82,84,83,51,5.949999999999927,2.439999999999992,1.0100000000000007,1.500000000000001,12,5,2,3,25,9,4,6,3,0.5,13,7,Hc,0.2380000000000001,0.27111111111111125,0.25250000000000006,0.2500000000000001
8,3,6,0,7,0.35000000000000014,2,3,66,90,67,94,7.259999999999898,1.8200000000000014,0.4400000000000002,0.17,11,4,1,2,22,9,1,2,3,0,14,7,Hc,0.3300000000000002,0.20222222222222228,0.4400000000000002,0.08499999999999999
8,4,7,0,1,0.3300000000000001,2,3,105,12,34,10,9.669999999999845,2.909999999999982,0.07,0.8300000000000005,17,6,1,2,34,9,1,2,5,0,19,7,Hc,0.2844117647058825,0.3233333333333335,0.07,0.4150000000000002
8,4,8,0,6,0.38000000000000017,2,3,81,14,58,56,13.27999999999977,0.47000000000000025,0.060000000000000005,0.2700000000000001,19,1,1,2,59,1,1,2,4,0,17,7,Hc,0.22508474576271195,0.47000000000000025,0.060000000000000005,0.13500000000000004
8,5,9,0,3,0.2800000000000001,2,3,45,51,83,50,11.919999999999796,2.159999999999998,0.8700000000000006,0.15,17,6,3,2,39,7,3,2,5,0,16,7,Hc,0.3056410256410258,0.3085714285714287,0.2900000000000001,0.075
8,5,10,0,4,0.36000000000000015,2,3,99,27,12,35,5.159999999999942,5.139999999999935,0.36000000000000015,1.5700000000000012,10,8,1,6,15,25,1,8,2,0,18,7,Hc,0.34400000000000014,0.20560000000000006,0.36000000000000015,0.1962500000000001
8,6,11,0,9,0.36000000000000015,2,7,1,116,110,120,31.740000000002105,0.01,0.01,0.01,20,1,1,1,93,1,1,1,4,0.5,12,7,Hc,0.3412903225806452,0.01,0.01,0.01
8,6,12,0,1,0.45000000000000023,2,4,60,25,34,52,6.589999999999914,0.6900000000000004,2.4599999999999915,0.8300000000000005,13,2,4,4,24,3,7,5,5,0,18,7,Hc,0.27458333333333346,0.2300000000000001,0.3514285714285716,0.16600000000000004
8,7,13,1,2,1.0000000000000007,4,7,77,78,70,104,6.4299999999999295,3.179999999999976,0.6600000000000004,0.2900000000000001,13,6,3,2,28,10,3,4,3,0,12,7,Hc,0.22964285714285723,0.31800000000000017,0.22000000000000006,0.0725
8,7,14,1,5,0.36000000000000015,2,3,114,10,40,60,10.469999999999828,0.11999999999999998,1.460000000000001,0.08,14,1,2,1,30,1,3,1,6,0,17,7,Hc,0.34900000000000014,0.11999999999999998,0.4866666666666669,0.08
8,8,15,1,6,0.6300000000000003,2,5,101,98,81,57,6.3399999999999235,3.369999999999972,0.12999999999999998,0.45000000000000023,10,7,1,2,17,14,1,3,4,0,11,7,Hc,0.37294117647058844,0.2407142857142858,0.12999999999999998,0.15000000000000002
8,8,16,1,10,0.4100000000000002,2,4,68,46,16,116,3.5299999999999776,7.0799999999998935,0.4200000000000002,0.8300000000000005,6,8,4,2,9,17,4,5,6,0,17,7,Hc,0.3922222222222224,0.4164705882352943,0.10500000000000001,0.16600000000000004
8,9,17,1,5,0.5600000000000003,4,7,53,58,99,105,9.20999999999986,0.8800000000000006,0.3100000000000001,1.1100000000000008,15,3,1,2,32,4,1,2,6,0,12,7,Hc,0.28781250000000014,0.22000000000000008,0.3100000000000001,0.5550000000000003
8,9,18,1,1,0.6800000000000004,2,4,79,30,75,28,6.0499999999999305,1.490000000000001,0.26000000000000006,0.6200000000000003,9,3,2,2,25,3,3,2,5,0,16,7,Hc,0.2420000000000001,0.4966666666666669,0.08666666666666666,0.3100000000000001
8,10,19,1,9,4.399999999999951,6,25,25,82,83,76,8.8299999999999,0.6000000000000003,0.3300000000000001,0.5300000000000002,10,2,2,2,37,2,2,4,4,0.5,14,7,Hc,0.23864864864864874,0.3000000000000001,0.16500000000000004,0.1325
8,10,20,1,10,0.46000000000000024,2,4,101,42,57,100,6.939999999999906,1.5800000000000012,0.35000000000000014,0.5400000000000003,10,3,2,1,18,6,2,1,6,0,13,7,Hc,0.38555555555555576,0.2633333333333334,0.17500000000000004,0.5400000000000003
8,11,21,1,8,0.35000000000000014,3,4,16,81,24,56,22.490000000000663,0.03,0.01,0.01,20,1,1,1,72,1,1,1,2,0,19,7,Hc,0.31236111111111126,0.03,0.01,0.01
8,11,22,1,3,0.37000000000000016,2,3,43,46,64,101,6.159999999999921,1.6300000000000012,2.6999999999999864,0.7200000000000004,10,4,4,2,21,6,6,2,5,0,16,7,Hc,0.29333333333333345,0.2716666666666668,0.45000000000000023,0.36000000000000015
8,12,23,1,8,1.390000000000001,2,4,38,120,109,76,7.469999999999915,2.7299999999999858,0.2900000000000001,0.26000000000000006,9,6,2,2,21,9,2,3,2,0,12,7,Hc,0.35571428571428587,0.30333333333333345,0.14500000000000002,0.08666666666666667
8,12,24,1,4,0.3900000000000002,2,3,107,50,28,16,7.859999999999886,1.7400000000000013,0.49000000000000027,0.8100000000000005,11,4,1,2,27,5,1,5,2,0,17,7,Hc,0.29111111111111126,0.34800000000000014,0.49000000000000027,0.162
8,13,25,1,7,1.0700000000000007,3,7,42,38,4,85,6.839999999999922,1.5100000000000011,1.5800000000000012,0.3900000000000002,10,4,3,2,24,6,5,3,3,0,19,7,Hc,0.28500000000000014,0.25166666666666676,0.3160000000000001,0.13
8,13,26,1,1,0.36000000000000015,2,3,79,19,97,26,8.759999999999865,0.5000000000000002,0.2900000000000001,0.4000000000000002,17,2,2,2,31,2,2,3,5,0,16,7,Hc,0.28258064516129044,0.2500000000000001,0.14500000000000002,0.13333333333333333
8,14,27,1,7,0.8200000000000005,2,6,94,58,90,50,8.259999999999886,0.6500000000000004,0.26000000000000006,0.2800000000000001,11,3,1,1,33,3,1,1,3,0,14,7,Hc,0.25030303030303036,0.21666666666666676,0.26000000000000006,0.2800000000000001
8,14,28,1,5,0.34000000000000014,2,3,108,43,5,107,8.789999999999864,0.5300000000000002,3.619999999999967,0.6200000000000003,9,1,6,3,36,1,13,3,6,0,15,7,Hc,0.24416666666666675,0.5300000000000002,0.2784615384615386,0.2066666666666667
8,15,29,1,1,0.37000000000000016,2,3,52,90,26,20,8.049999999999882,1.9200000000000015,0.16,1.350000000000001,11,5,1,2,32,7,1,2,5,0,18,7,Hc,0.2515625000000001,0.2742857142857144,0.16,0.6750000000000004
8,15,30,1,3,0.4400000000000002,2,3,43,79,83,103,8.819999999999865,1.8100000000000014,1.9200000000000015,0.11999999999999998,11,5,3,1,26,7,5,1,5,0,13,7,Hc,0.3392307692307694,0.2585714285714287,0.3840000000000002,0.11999999999999998
8,16,31,1,4,0.8900000000000006,6,9,108,104,84,79,9.419999999999863,0.25000000000000006,1.440000000000001,0.5300000000000002,17,1,4,2,37,1,4,3,2,0,10,7,Hc,0.2545945945945947,0.25000000000000006,0.36000000000000015,0.17666666666666672
8,16,32,1,8,0.5500000000000003,7,7,26,28,34,86,9.429999999999856,0.35000000000000014,5.159999999999934,1.6500000000000012,18,1,10,3,29,1,19,3,2,0.5,18,7,Hc,0.3251724137931036,0.35000000000000014,0.2715789473684212,0.5500000000000003
8,17,33,1,9,0.22000000000000006,4,5,69,64,93,71,2.799999999999989,2.0799999999999996,3.889999999999961,0.8300000000000005,8,4,7,3,13,5,13,4,4,0.5,15,7,Hc,0.21538461538461548,0.4160000000000002,0.29923076923076936,0.20750000000000007
8,17,34,1,10,0.48000000000000026,2,4,16,14,34,102,7.949999999999886,3.3899999999999717,0.5500000000000003,0.4100000000000002,12,4,2,1,28,6,2,2,6,0,19,7,Hc,0.28392857142857153,0.5650000000000004,0.27500000000000013,0.20500000000000004
8,18,35,1,8,0.21000000000000005,2,3,113,112,38,120,6.49999999999991,3.9999999999999587,0.8800000000000006,1.400000000000001,9,6,3,7,21,9,3,8,2,0.5,11,7,Hc,0.30952380952380965,0.4444444444444447,0.29333333333333345,0.17500000000000004
8,18,36,1,1,4.259999999999954,8,16,108,103,18,23,9.609999999999884,0.9400000000000006,0.3900000000000002,1.0800000000000007,14,2,1,3,35,6,1,4,5,0,16,7,Hc,0.2745714285714287,0.15666666666666668,0.3900000000000002,0.27000000000000013
8,19,37,1,7,1.440000000000001,4,11,17,15,104,19,4.45999999999998,2.0500000000000003,0.5600000000000003,0.8300000000000005,10,4,2,2,24,7,3,4,3,0.5,20,7,Hc,0.1858333333333334,0.292857142857143,0.18666666666666673,0.20750000000000005
8,19,38,1,1,0.3000000000000001,2,3,74,59,25,114,6.499999999999912,1.7400000000000013,1.0900000000000007,0.34000000000000014,11,3,3,1,26,4,7,1,5,0,14,7,Hc,0.2500000000000001,0.4350000000000002,0.15571428571428575,0.34000000000000014
8,20,39,1,7,0.36000000000000015,5,6,85,86,95,114,9.049999999999859,0.6400000000000003,0.7500000000000004,1.480000000000001,16,4,3,5,24,5,3,8,3,0.5,11,7,Hc,0.37708333333333355,0.128,0.2500000000000001,0.18500000000000005
8,20,40,1,6,0.6700000000000004,3,5,97,81,47,83,7.009999999999909,0.9200000000000006,0.7600000000000005,0.24000000000000007,11,3,2,2,25,4,2,2,4,0,13,7,Hc,0.2804000000000001,0.23000000000000007,0.38000000000000017,0.12000000000000001
9,1,1,0,9,0.8900000000000006,2,5,62,1,63,66,2.2300000000000013,0.8700000000000006,0.35000000000000014,0.24000000000000007,4,2,1,2,9,2,1,2,4,0.5,18,7,Hc,0.24777777777777785,0.4350000000000002,0.35000000000000014,0.12000000000000002
9,1,2,0,7,0.4300000000000002,2,5,87,57,111,16,1.2300000000000006,2.819999999999984,0.09,0.8100000000000005,4,4,1,2,9,8,1,2,3,0,15,7,Hc,0.13666666666666671,0.35250000000000015,0.09,0.40500000000000025
9,2,3,0,4,0.7100000000000004,2,6,97,18,20,95,1.9900000000000013,0.8900000000000006,0.3200000000000001,0.4400000000000002,4,2,2,2,12,2,2,3,2,0,17,7,Hc,0.1658333333333334,0.44500000000000023,0.16000000000000003,0.14666666666666667
9,2,4,0,2,1.0200000000000007,2,10,32,9,82,118,4.289999999999975,0.26000000000000006,0.9500000000000006,0.9600000000000006,4,2,2,3,18,2,2,5,3,0,16,7,Hc,0.23833333333333342,0.12999999999999998,0.47500000000000026,0.1920000000000001
9,3,5,0,5,0.3300000000000001,1,2,4,103,78,74,32.760000000002115,0.01,0.01,0.01,20,1,1,1,88,1,1,1,6,0,14,7,Hc,0.3722727272727275,0.01,0.01,0.01
9,3,6,0,6,0.2800000000000001,3,3,88,116,92,115,8.85999999999986,0.01,0.01,1.270000000000001,13,1,1,3,32,1,1,3,4,0,10,7,Hc,0.2768750000000001,0.01,0.01,0.42333333333333356
9,4,7,0,4,0.5300000000000002,2,5,98,51,92,58,1.720000000000001,1.470000000000001,0.5900000000000003,0.46000000000000024,4,2,2,2,11,3,2,3,2,0,13,7,Hc,0.1563636363636364,0.49000000000000027,0.2950000000000001,0.15333333333333335
9,4,8,0,9,0.9200000000000006,2,6,66,115,77,16,1.680000000000001,2.1199999999999988,0.26000000000000006,0.21000000000000005,4,3,1,1,10,8,1,1,4,0,15,7,Hc,0.16800000000000004,0.2650000000000001,0.26000000000000006,0.21000000000000005
9,5,9,0,3,0.6300000000000003,3,5,7,116,68,42,2.7,1.0200000000000007,0.22000000000000006,0.05,5,2,2,1,14,6,3,1,5,0,17,7,Hc,0.19285714285714292,0.17000000000000004,0.07333333333333333,0.05
9,5,10,0,1,0.21000000000000005,2,3,20,34,83,58,2.8099999999999885,0.08,1.260000000000001,0.07,5,1,2,1,7,1,3,1,5,0,18,7,Hc,0.40142857142857163,0.08,0.4200000000000002,0.07
9,6,11,0,1,0.3100000000000001,2,4,30,27,57,31,1.630000000000001,0.3300000000000001,0.4300000000000002,0.20000000000000004,4,1,1,1,10,1,1,1,5,0.5,19,7,Hc,0.16300000000000006,0.3300000000000001,0.4300000000000002,0.20000000000000004
9,6,12,0,9,3.649999999999966,6,12,12,70,84,2,3.9099999999999664,0.05,1.330000000000001,0.7600000000000005,7,1,4,2,13,1,9,2,4,0,19,7,Hc,0.30076923076923096,0.05,0.14777777777777784,0.3800000000000001
9,7,13,1,1,0.3200000000000001,2,3,25,13,61,26,0.9400000000000004,4.549999999999947,0.01,0.01,4,7,1,1,6,16,1,1,5,0,20,7,Hc,0.1566666666666667,0.28437500000000016,0.01,0.01
9,7,14,1,6,0.6900000000000004,7,8,60,49,51,42,2.4200000000000017,0.4300000000000002,0.21000000000000005,0.3900000000000002,9,2,1,2,19,2,1,2,4,0.5,17,7,Hc,0.1273684210526316,0.21500000000000005,0.21000000000000005,0.19500000000000003
9,8,15,1,5,0.6400000000000003,2,5,5,40,1,6,3.1999999999999895,0.34000000000000014,0.13999999999999999,2.4999999999999907,5,2,1,6,15,3,1,8,6,0.5,23,7,Hc,0.21333333333333343,0.11333333333333337,0.13999999999999999,0.3125000000000001
9,8,16,1,2,1.0400000000000007,2,5,80,76,75,84,2.880000000000002,0.20000000000000004,0.46000000000000024,0.34000000000000014,4,1,1,1,10,1,1,1,3,1,36,7,Hc,0.2880000000000001,0.20000000000000004,0.46000000000000024,0.34000000000000014
9,9,17,1,8,0.4000000000000002,2,3,119,46,110,117,2.6399999999999966,0.8200000000000005,0.4300000000000002,0.11999999999999998,4,2,2,2,9,3,3,2,2,0.5,11,7,Hc,0.29333333333333345,0.27333333333333343,0.14333333333333337,0.060000000000000005
9,9,18,1,4,0.6500000000000004,3,5,104,100,33,80,1.2300000000000006,0.3300000000000001,1.5800000000000012,1.0100000000000007,4,1,3,2,6,1,6,5,2,0,12,7,Hc,0.20500000000000007,0.3300000000000001,0.2633333333333334,0.20200000000000004
9,10,19,1,5,0.15,2,2,2,8,85,12,1.9000000000000012,0.7200000000000004,0.2800000000000001,0.10999999999999999,4,2,1,1,9,3,1,2,6,0.5,21,7,Hc,0.21111111111111117,0.24000000000000007,0.2800000000000001,0.05500000000000001
9,10,20,1,4,0.9700000000000006,14,15,97,76,37,74,1.5000000000000009,0.9800000000000006,0.9900000000000007,1.2000000000000008,16,2,2,3,19,2,8,5,2,0,13,7,Hc,0.07894736842105263,0.4900000000000002,0.12375000000000001,0.2400000000000001
9,11,21,1,8,0.4400000000000002,2,4,119,111,28,114,1.3900000000000008,0.49000000000000027,2.249999999999996,0.02,4,2,6,1,9,3,8,1,2,0.5,11,7,Hc,0.15444444444444447,0.16333333333333336,0.28125000000000017,0.02
9,11,22,1,5,0.3200000000000001,1,2,3,11,95,90,2.1500000000000017,0.21000000000000005,0.3300000000000001,0.2700000000000001,3,1,1,2,9,1,1,2,6,0,18,7,Hc,0.23888888888888898,0.21000000000000005,0.3300000000000001,0.13500000000000004
9,12,23,1,3,0.21000000000000005,2,3,42,41,78,24,0.8100000000000004,0.34000000000000014,2.6899999999999866,1.2200000000000009,3,1,8,5,4,1,10,5,5,0,19,7,Hc,0.20250000000000007,0.34000000000000014,0.26900000000000013,0.24400000000000008
9,12,24,1,4,0.4400000000000002,2,6,108,61,63,64,1.0800000000000005,1.490000000000001,0.37000000000000016,0.35000000000000014,4,2,1,2,10,4,1,3,2,0.5,14,7,Hc,0.10800000000000001,0.37250000000000016,0.37000000000000016,0.11666666666666667
9,13,25,1,4,0.2800000000000001,2,4,97,100,87,105,1.5000000000000009,0.23000000000000007,0.7100000000000004,0.4000000000000002,4,1,1,2,10,1,1,2,2,0.5,9,7,Hc,0.15000000000000005,0.23000000000000007,0.7100000000000004,0.20000000000000004
9,13,26,1,9,0.7100000000000004,2,4,69,71,63,74,2.889999999999998,0.5400000000000003,0.22000000000000006,1.410000000000001,5,2,1,3,14,2,1,4,4,0.5,15,7,Hc,0.2064285714285715,0.2700000000000001,0.22000000000000006,0.3525000000000002
9,14,27,1,8,0.48000000000000026,2,3,111,63,38,19,2.0300000000000016,0.6500000000000004,0.18000000000000002,0.4000000000000002,4,2,2,1,12,2,2,1,2,0,17,7,Hc,0.16916666666666672,0.3250000000000002,0.09,0.4000000000000002
9,14,28,1,6,0.5500000000000003,3,4,59,55,91,3,1.1900000000000006,2.869999999999983,0.45000000000000023,0.2800000000000001,4,4,2,1,5,12,2,1,4,0,17,7,Hc,0.2380000000000001,0.23916666666666675,0.22500000000000006,0.2800000000000001
9,15,29,1,8,0.8300000000000005,6,7,109,5,117,7,2.4700000000000015,0.5800000000000003,0.23000000000000007,0.6900000000000004,8,2,1,2,12,2,1,5,2,0,16,7,Hc,0.2058333333333334,0.2900000000000001,0.23000000000000007,0.138
9,15,30,1,3,1.0300000000000007,2,8,23,42,103,98,2.2000000000000015,0.49000000000000027,0.9100000000000006,0.47000000000000025,4,1,3,2,10,1,4,3,5,0,15,7,Hc,0.22000000000000008,0.49000000000000027,0.2275000000000001,0.1566666666666667
9,16,31,1,6,0.49000000000000027,2,3,60,119,51,118,1.700000000000001,0.9900000000000007,0.18000000000000002,0.5100000000000002,4,3,1,2,9,5,1,2,4,0,12,7,Hc,0.18888888888888894,0.19800000000000006,0.18000000000000002,0.25500000000000006
9,16,32,1,3,0.34000000000000014,2,3,47,98,102,8,1.7700000000000011,0.5700000000000003,1.430000000000001,0.07,6,1,3,1,11,1,5,1,5,0,15,7,Hc,0.16090909090909095,0.5700000000000003,0.2860000000000001,0.07
9,17,33,1,8,0.5500000000000003,2,3,113,41,119,83,1.730000000000001,0.6100000000000003,0.9900000000000007,0.20000000000000004,4,2,2,1,7,3,2,1,2,0,12,7,Hc,0.24714285714285725,0.20333333333333337,0.4950000000000003,0.20000000000000004
9,17,34,1,6,0.35000000000000014,2,3,50,58,55,21,1.9600000000000013,0.37000000000000016,0.2800000000000001,0.7200000000000004,6,2,2,2,10,4,3,3,4,0.5,18,7,Hc,0.19600000000000006,0.09250000000000001,0.09333333333333335,0.2400000000000001
9,18,35,1,8,0.9300000000000006,2,8,77,120,44,6,3.0899999999999985,0.3300000000000001,1.2400000000000009,0.8500000000000005,5,1,3,2,19,1,3,2,2,0,16,7,Hc,0.16263157894736846,0.3300000000000001,0.41333333333333355,0.42500000000000027
9,18,36,1,4,0.6100000000000003,7,9,105,14,28,32,1.2800000000000007,0.7400000000000004,0.2800000000000001,0.9100000000000006,8,2,1,2,10,2,1,4,2,0,18,7,Hc,0.12800000000000003,0.3700000000000002,0.2800000000000001,0.22750000000000006
9,19,37,1,2,0.5400000000000003,2,3,83,41,3,80,2.5900000000000007,0.45000000000000023,0.7800000000000005,0.11999999999999998,4,1,2,1,13,1,3,1,3,0,17,7,Hc,0.1992307692307693,0.45000000000000023,0.26000000000000006,0.11999999999999998
9,19,38,1,7,5.329999999999931,11,24,94,115,13,27,5.689999999999931,1.0200000000000007,0.3300000000000001,0.05,13,2,1,1,26,4,1,1,3,0,16,7,Hc,0.21884615384615394,0.25500000000000006,0.3300000000000001,0.05
9,20,39,1,7,0.46000000000000024,2,4,93,98,104,53,1.520000000000001,1.490000000000001,0.9000000000000006,0.24000000000000007,5,2,4,1,8,5,5,1,3,0,11,7,Hc,0.19000000000000006,0.2980000000000001,0.18000000000000005,0.24000000000000007
9,20,40,1,8,0.5700000000000003,2,3,115,119,3,82,1.9900000000000013,0.7000000000000004,0.8300000000000005,0.48000000000000026,4,2,4,2,10,3,6,4,2,0,13,7,Hc,0.19900000000000007,0.23333333333333342,0.13833333333333334,0.12
9,21,41,1,4,0.22000000000000006,1,2,100,103,50,89,0.9700000000000005,0.8100000000000005,1.0400000000000007,0.2700000000000001,3,4,2,1,4,8,6,1,2,0,11,7,Hc,0.24250000000000008,0.10125,0.17333333333333337,0.2700000000000001
9,21,42,1,3,0.9100000000000006,2,5,1,38,10,3,3.6799999999999855,1.6600000000000013,0.3300000000000001,0.10999999999999999,8,6,4,2,14,6,4,2,5,0.5,23,7,Hc,0.26285714285714296,0.2766666666666668,0.08250000000000002,0.05500000000000001
10,1,1,0,10,0.5500000000000003,2,4,13,18,26,105,17.54999999999986,34.94000000000162,0.01,0.01,11,18,1,1,51,93,1,1,6,0,19,6,Hc,0.3441176470588236,0.37569892473118294,0.01,0.01
10,1,2,0,3,2.719999999999986,2,9,75,1,47,69,14.639999999999777,4.739999999999943,26.660000000001368,0.09999999999999999,10,5,14,2,44,10,65,2,5,0,18,6,Hc,0.33272727272727287,0.47400000000000025,0.41015384615384637,0.049999999999999996
10,2,3,0,1,0.8800000000000006,2,5,28,27,17,30,13.34999999999978,2.1299999999999986,7.9699999999998745,0.23000000000000007,12,5,7,1,39,6,26,1,5,0.5,21,6,Hc,0.3423076923076925,0.35500000000000015,0.30653846153846165,0.23000000000000007
10,2,4,0,4,1.1100000000000008,2,7,70,61,47,11,13.219999999999787,2.099999999999999,1.480000000000001,5.909999999999918,12,2,3,6,37,7,5,16,2,0,19,6,Hc,0.3572972972972975,0.30000000000000016,0.29600000000000015,0.3693750000000002
10,3,5,0,2,0.5900000000000003,2,4,34,28,77,33,8.869999999999868,1.1300000000000008,0.6000000000000003,4.4999999999999485,10,3,1,4,28,4,1,21,3,0.5,18,6,Hc,0.31678571428571445,0.28250000000000014,0.6000000000000003,0.21428571428571436
10,3,6,0,4,1.290000000000001,8,9,102,47,100,20,16.349999999999724,2.2699999999999956,3.849999999999962,0.6100000000000003,19,5,5,2,46,7,12,2,2,0,15,6,Hc,0.3554347826086958,0.32428571428571445,0.32083333333333347,0.30500000000000016
10,4,7,0,6,1.1000000000000008,2,4,54,98,50,105,13.759999999999776,2.869999999999983,1.1200000000000008,1.460000000000001,12,5,2,2,33,8,5,9,4,0,12,6,Hc,0.4169696969696972,0.3587500000000002,0.22400000000000006,0.16222222222222227
10,4,8,0,1,0.5800000000000003,2,5,32,35,111,31,7.3599999999999,6.259999999999911,3.0799999999999783,9.10999999999985,13,11,6,9,29,19,11,22,5,0.5,17,6,Hc,0.25379310344827594,0.3294736842105265,0.28000000000000014,0.41409090909090934
10,5,9,0,6,1.0500000000000007,3,5,55,14,29,24,34.120000000001994,3.4099999999999713,0.01,0.05,20,5,1,1,121,11,1,1,4,0,21,6,Hc,0.28198347107438027,0.3100000000000001,0.01,0.05
10,5,10,0,9,2.4499999999999917,18,25,9,72,39,66,20.009999999999938,16.11999999999972,4.079999999999957,0.10999999999999999,20,13,6,2,84,41,8,2,4,0,19,6,Hc,0.2382142857142858,0.39317073170731726,0.5100000000000003,0.05499999999999999
10,6,11,1,5,1.7200000000000013,3,7,1,5,6,61,16.239999999999736,0.46000000000000024,1.5100000000000011,0.21000000000000005,14,1,3,2,50,1,4,2,6,0.5,22,6,Hc,0.32480000000000014,0.46000000000000024,0.37750000000000017,0.10500000000000002
10,6,12,1,1,0.8600000000000005,2,4,50,30,55,52,11.159999999999826,2.619999999999988,0.5200000000000002,3.8699999999999615,11,6,2,8,37,8,3,14,5,0.5,17,6,Hc,0.30162162162162176,0.3275000000000001,0.17333333333333337,0.2764285714285715
10,7,13,1,3,0.9500000000000006,2,4,41,43,51,50,11.779999999999815,1.5800000000000012,1.6000000000000012,2.6999999999999864,13,2,3,3,39,6,4,5,5,0,18,6,Hc,0.3020512820512822,0.2633333333333334,0.4000000000000002,0.5400000000000003
10,7,14,1,1,1.270000000000001,10,10,19,13,78,29,19.660000000000075,11.779999999999793,0.5800000000000003,0.060000000000000005,20,10,2,1,58,31,2,1,5,0,20,6,Hc,0.33896551724137947,0.38000000000000017,0.2900000000000001,0.060000000000000005
10,8,15,1,2,0.6100000000000003,2,3,35,30,26,79,10.61999999999983,0.6400000000000003,0.7100000000000004,1.7900000000000014,11,2,1,2,29,2,1,7,3,0.5,18,6,Hc,0.36620689655172434,0.3200000000000001,0.7100000000000004,0.25571428571428584
10,8,16,1,4,0.9400000000000006,2,5,103,4,1,10,7.189999999999912,10.009999999999831,5.099999999999936,0.6700000000000004,5,7,3,2,26,31,9,2,2,0.5,20,6,Hc,0.2765384615384617,0.32290322580645175,0.566666666666667,0.33500000000000013
10,9,17,1,8,0.6600000000000004,4,5,119,16,111,118,13.189999999999777,7.3599999999998875,1.400000000000001,0.11999999999999998,15,9,4,1,39,25,7,1,2,0.5,12,6,Hc,0.3382051282051284,0.29440000000000016,0.2000000000000001,0.11999999999999998
10,9,18,1,4,1.0600000000000007,2,8,99,100,57,51,5.399999999999952,6.479999999999906,2.6099999999999883,0.8900000000000006,6,5,2,2,19,20,5,3,2,0,12,6,Hc,0.2842105263157896,0.3240000000000001,0.5220000000000002,0.2966666666666668
10,10,19,1,5,0.7600000000000005,2,3,9,4,3,2,11.159999999999823,2.9899999999999802,0.5400000000000003,12.36999999999978,10,5,2,13,23,7,2,38,6,1,72,6,Hc,0.48521739130434766,0.4271428571428574,0.27000000000000013,0.32552631578947383
10,10,20,1,9,0.36000000000000015,2,4,24,66,67,20,12.139999999999793,0.8000000000000005,1.1300000000000008,1.0300000000000007,11,2,5,4,32,3,7,7,4,0,20,6,Hc,0.3793750000000002,0.2666666666666668,0.16142857142857145,0.1471428571428572
10,11,21,1,6,0.2700000000000001,2,5,2,100,45,39,51.479999999998384,0.01,0.02,0.01,20,1,1,1,133,1,1,1,4,0,18,6,Hc,0.3870676691729325,0.01,0.02,0.01
10,11,22,1,1,0.5900000000000003,2,5,28,25,34,27,4.05999999999997,3.93999999999996,3.1599999999999766,11.01999999999981,6,6,7,15,13,14,10,30,5,1,60,6,Hc,0.31230769230769245,0.28142857142857153,0.3160000000000001,0.3673333333333335
10,12,23,1,9,2.0899999999999994,17,23,67,61,36,30,13.799999999999795,9.169999999999849,6.199999999999912,2.4199999999999924,20,13,11,5,57,19,21,8,4,0,18,6,Hc,0.24210526315789485,0.4826315789473687,0.29523809523809535,0.30250000000000016
10,12,24,1,8,1.1200000000000008,13,14,113,56,39,114,2.4200000000000017,13.719999999999752,1.0300000000000007,1.460000000000001,15,11,2,3,16,37,2,4,2,0,13,6,Hc,0.15125000000000005,0.370810810810811,0.5150000000000002,0.3650000000000002
10,13,25,1,2,1.280000000000001,11,12,82,84,48,37,2.520000000000002,6.439999999999907,3.889999999999961,1.470000000000001,12,3,3,3,14,18,10,7,3,0,16,6,Hc,0.18000000000000005,0.3577777777777779,0.3890000000000002,0.21000000000000008
10,13,26,1,10,0.25000000000000006,2,2,13,14,112,30,34.52000000000175,0.02,0.02,0.04,20,1,1,1,83,1,1,1,6,0,19,6,Hc,0.41590361445783147,0.02,0.02,0.04
10,14,27,1,6,1.0200000000000007,3,4,49,102,30,50,7.919999999999898,3.8599999999999617,2.8799999999999826,0.2800000000000001,8,4,2,1,20,12,10,1,4,0,15,6,Hc,0.3960000000000002,0.3216666666666668,0.2880000000000001,0.2800000000000001
10,14,28,1,8,1.2500000000000009,15,17,112,117,116,74,4.329999999999979,12.86999999999977,3.1099999999999777,13.919999999999748,17,14,5,12,22,37,10,42,2,0.5,9,6,Hc,0.19681818181818192,0.347837837837838,0.31100000000000017,0.33142857142857157
10,15,29,1,10,1.0100000000000007,10,13,16,105,40,24,22.320000000000533,0.26000000000000006,2.719999999999986,0.13999999999999999,20,1,4,1,81,1,4,1,6,0,19,6,Hc,0.27555555555555566,0.26000000000000006,0.6800000000000004,0.13999999999999999
10,15,30,1,8,1.7400000000000013,3,7,29,27,110,57,7.239999999999928,2.3699999999999934,3.509999999999969,5.019999999999937,8,3,6,8,25,6,13,17,2,0,16,6,Hc,0.28960000000000014,0.3950000000000002,0.27000000000000013,0.29529411764705893
10,16,31,1,2,2.429999999999992,14,23,82,73,13,15,9.559999999999885,4.999999999999938,1.6100000000000012,1.340000000000001,18,6,3,2,47,15,3,4,3,0,18,6,Hc,0.20340425531914902,0.3333333333333335,0.536666666666667,0.33500000000000013
10,16,32,1,4,1.1500000000000008,2,9,1,99,4,58,8.489999999999888,1.0300000000000007,5.789999999999921,0.4300000000000002,9,2,6,1,26,3,18,1,2,0,18,6,Hc,0.3265384615384617,0.34333333333333355,0.3216666666666668,0.4300000000000002
10,17,33,1,6,0.3900000000000002,2,3,78,51,36,81,11.659999999999805,0.37000000000000016,0.7600000000000005,0.6300000000000003,10,1,2,2,28,1,2,3,4,0,15,6,Hc,0.41642857142857165,0.37000000000000016,0.38000000000000017,0.21000000000000008
10,17,34,1,8,0.9400000000000006,11,12,66,118,19,23,12.729999999999794,2.349999999999994,0.7300000000000004,11.099999999999808,17,3,2,11,49,3,2,37,2,0,18,6,Hc,0.25979591836734706,0.7833333333333339,0.36500000000000016,0.30000000000000016
10,18,35,1,4,1.8400000000000014,15,18,108,106,23,18,8.23999999999991,2.149999999999998,1.8100000000000014,1.460000000000001,20,6,2,2,38,9,6,3,2,0,16,6,Hc,0.21684210526315797,0.23888888888888898,0.3016666666666668,0.4866666666666669
10,18,36,1,5,0.7000000000000004,6,6,31,33,56,110,18.019999999999907,0.7300000000000004,0.3100000000000001,0.47000000000000025,16,2,1,2,44,2,1,3,6,0,16,6,Hc,0.40954545454545477,0.36500000000000016,0.3100000000000001,0.1566666666666667
11,1,1,0,8,0.5400000000000003,1,2,119,120,53,35,2.2800000000000016,1.7500000000000013,1.0900000000000007,0.18000000000000002,3,2,2,1,6,7,2,1,2,0,13,7,Hc,0.38000000000000017,0.25000000000000006,0.5450000000000003,0.18000000000000002
11,1,2,0,3,0.6800000000000004,2,3,38,10,62,98,2.0600000000000014,2.439999999999992,0.23000000000000007,0.24000000000000007,4,2,1,1,7,8,1,1,5,0,17,7,Hc,0.2942857142857144,0.3050000000000001,0.23000000000000007,0.24000000000000007
11,2,3,0,6,0.12999999999999998,2,2,13,111,112,38,9.479999999999846,0.01,0.01,0.02,9,1,1,1,23,1,1,1,4,0,15,7,Hc,0.4121739130434785,0.01,0.01,0.02
11,2,4,0,7,0.9100000000000006,11,13,26,85,95,97,7.609999999999902,0.01,0.01,0.01,17,1,1,1,32,1,1,1,3,0,13,7,Hc,0.2378125000000001,0.01,0.01,0.01
11,3,5,0,10,0.6200000000000003,2,5,18,16,21,119,1.9200000000000013,14.899999999999727,0.01,0.01,4,13,1,1,10,32,1,1,6,0.5,20,7,Hc,0.19200000000000006,0.4656250000000003,0.01,0.01
11,3,6,0,2,0.8400000000000005,2,5,83,5,8,100,2.2100000000000017,0.9600000000000006,0.6100000000000003,0.45000000000000023,4,2,2,2,8,3,4,2,3,0,17,7,Hc,0.2762500000000001,0.3200000000000001,0.15250000000000002,0.2250000000000001
11,4,7,0,10,0.7900000000000005,2,5,23,31,21,101,1.8900000000000012,1.500000000000001,0.25000000000000006,1.6500000000000012,4,2,1,4,7,4,1,8,6,0,19,7,Hc,0.2700000000000001,0.37500000000000017,0.25000000000000006,0.20625000000000004
11,4,8,0,6,0.5200000000000002,2,3,59,109,11,82,1.3900000000000008,2.9199999999999817,0.36000000000000015,0.16,4,3,3,1,5,3,3,1,4,0,15,7,Hc,0.27800000000000014,0.973333333333334,0.12,0.16
11,5,9,0,4,0.7700000000000005,2,3,67,106,107,92,2.999999999999997,0.6900000000000004,0.36000000000000015,0.9600000000000006,6,2,2,2,7,3,2,3,2,0,11,7,Hc,0.42857142857142877,0.2300000000000001,0.18000000000000002,0.3200000000000001
11,5,10,0,2,0.8800000000000006,2,5,76,58,57,111,2.0800000000000014,1.7200000000000013,0.6900000000000004,0.25000000000000006,4,2,2,1,7,4,2,1,3,0,13,7,Hc,0.29714285714285726,0.43000000000000016,0.34500000000000014,0.25000000000000006
11,6,11,0,2,0.7500000000000004,2,6,76,77,109,62,2.1800000000000015,0.4400000000000002,1.6500000000000012,1.5100000000000011,4,2,2,3,10,5,5,3,3,0,12,7,Hc,0.21800000000000008,0.08800000000000001,0.3300000000000001,0.5033333333333336
11,6,12,0,1,0.47000000000000025,2,3,25,31,50,30,2.2300000000000018,0.6100000000000003,2.06,0.07,4,2,3,1,8,3,3,1,5,0.5,19,7,Hc,0.2787500000000001,0.20333333333333337,0.6866666666666672,0.07
11,7,13,1,5,0.5400000000000003,3,5,9,70,77,73,2.580000000000001,0.8400000000000005,0.22000000000000006,0.8700000000000006,5,2,1,2,15,4,1,5,6,0,16,7,Hc,0.17200000000000004,0.21000000000000005,0.22000000000000006,0.17400000000000004
11,7,14,1,6,0.34000000000000014,2,3,57,109,116,24,1.2500000000000007,0.8300000000000005,0.4300000000000002,1.5100000000000011,3,3,2,3,4,5,3,4,4,0,14,7,Hc,0.31250000000000017,0.16600000000000004,0.14333333333333334,0.37750000000000017
11,8,15,1,7,0.7300000000000004,2,5,93,68,94,65,2.1200000000000014,2.8799999999999826,0.19000000000000003,0.6300000000000003,6,4,2,2,11,7,2,4,3,0,14,7,Hc,0.19272727272727277,0.41142857142857164,0.095,0.1575
11,8,16,1,6,0.6600000000000004,2,3,60,109,110,114,2.2800000000000016,1.470000000000001,0.4300000000000002,0.3200000000000001,5,2,2,2,7,3,2,2,4,0.5,10,7,Hc,0.32571428571428584,0.4900000000000002,0.21500000000000005,0.16000000000000003
11,9,17,1,1,0.9300000000000006,2,5,34,59,78,118,3.1799999999999966,1.1100000000000008,0.17,0.10999999999999999,4,3,2,1,15,4,2,1,5,0,14,7,Hc,0.21200000000000008,0.2775000000000001,0.08499999999999999,0.10999999999999999
11,9,18,1,9,0.45000000000000023,3,4,62,69,72,19,5.599999999999935,0.7700000000000005,0.02,0.08,12,2,1,1,13,2,1,1,4,0.5,18,7,Hc,0.43076923076923085,0.38500000000000023,0.02,0.08
11,10,19,1,7,0.8800000000000006,6,9,17,116,117,13,2.3000000000000016,0.6300000000000003,0.5200000000000002,2.9299999999999815,9,2,1,3,14,2,1,7,3,0,16,7,Hc,0.16428571428571434,0.3150000000000001,0.5200000000000002,0.41857142857142876
11,10,20,1,4,0.36000000000000015,2,4,105,104,71,108,1.0000000000000004,2.4699999999999913,0.5200000000000002,0.24000000000000007,4,4,2,2,7,7,2,2,2,0.5,10,7,Hc,0.1428571428571429,0.35285714285714304,0.26000000000000006,0.12000000000000001
11,11,21,1,4,1.310000000000001,3,7,102,61,79,73,2.5000000000000018,2.2299999999999964,0.09999999999999999,0.18000000000000002,5,3,1,1,11,4,1,1,2,0,12,7,Hc,0.22727272727272735,0.5575000000000003,0.09999999999999999,0.18000000000000002
11,11,22,1,5,0.45000000000000023,6,6,3,8,112,9,2.350000000000002,0.6600000000000004,0.9100000000000006,5.449999999999928,8,2,2,9,19,3,2,14,6,0.5,20,7,Hc,0.12368421052631581,0.22000000000000008,0.45500000000000024,0.3892857142857145
11,12,23,1,1,0.36000000000000015,2,3,35,112,77,117,2.1100000000000017,0.7900000000000005,0.24000000000000007,0.9200000000000006,4,1,1,2,11,1,1,3,5,0,12,7,Hc,0.19181818181818186,0.7900000000000005,0.24000000000000007,0.30666666666666675
11,12,24,1,3,0.38000000000000017,2,3,40,41,46,87,1.720000000000001,0.35000000000000014,1.390000000000001,0.22000000000000006,4,1,2,1,6,1,2,1,5,0.5,18,7,Hc,0.2866666666666668,0.35000000000000014,0.6950000000000004,0.22000000000000006
11,13,25,1,7,0.26000000000000006,2,2,14,38,90,112,54.06999999999786,0.02,0.2700000000000001,0.01,20,1,2,1,114,1,2,1,3,0,16,7,Hc,0.47429824561403533,0.02,0.13500000000000004,0.01
11,13,26,1,5,0.3200000000000001,2,3,6,3,2,33,1.0600000000000005,1.2200000000000009,5.039999999999937,0.01,3,2,8,1,4,3,20,1,6,0.5,23,7,Hc,0.2650000000000001,0.40666666666666684,0.2520000000000001,0.01
11,14,27,1,9,0.5000000000000002,4,5,65,84,35,63,1.630000000000001,3.089999999999978,0.3200000000000001,1.480000000000001,6,4,2,4,12,8,2,4,4,0,16,7,Hc,0.13583333333333336,0.3862500000000002,0.16000000000000003,0.3700000000000002
11,14,28,1,6,0.5800000000000003,3,6,43,12,85,4,4.639999999999958,0.8300000000000005,0.8700000000000006,0.2700000000000001,7,2,2,2,16,4,3,2,4,0,20,7,Hc,0.29000000000000015,0.20750000000000007,0.29000000000000015,0.13500000000000004
11,15,29,1,3,0.9000000000000006,2,3,64,9,4,78,2.2700000000000014,0.9800000000000006,1.300000000000001,0.12999999999999998,4,1,3,2,8,1,4,2,5,0,19,7,Hc,0.2837500000000001,0.9800000000000006,0.3250000000000001,0.065
11,15,30,1,10,0.6300000000000003,2,4,22,32,55,15,1.3200000000000007,3.329999999999973,0.36000000000000015,0.05,4,4,1,1,6,8,1,1,6,0,21,7,Hc,0.22000000000000006,0.41625000000000023,0.36000000000000015,0.05
11,16,31,1,8,0.46000000000000024,2,4,111,73,25,120,1.3200000000000007,7.539999999999884,0.05,0.35000000000000014,4,9,2,1,7,18,2,1,2,0,12,7,Hc,0.18857142857142864,0.41888888888888914,0.025,0.35000000000000014
11,16,32,1,5,0.46000000000000024,2,3,6,10,43,4,1.560000000000001,1.8900000000000015,0.2700000000000001,2.9199999999999817,4,3,1,8,6,6,1,9,6,0.5,23,7,Hc,0.2600000000000001,0.3150000000000001,0.2700000000000001,0.3244444444444446
11,17,33,1,8,0.2700000000000001,2,5,79,18,117,112,2.749999999999991,0.4200000000000002,0.09,1.380000000000001,5,1,1,2,13,1,1,2,2,0,13,7,Hc,0.21153846153846162,0.4200000000000002,0.09,0.6900000000000005
11,17,34,1,5,0.49000000000000027,2,5,101,108,1,3,7.509999999999895,3.5299999999999687,1.410000000000001,0.01,9,6,4,1,22,7,4,1,6,0,16,7,Hc,0.34136363636363654,0.5042857142857142,0.3525000000000002,0.01
11,18,35,1,2,0.7300000000000004,2,4,4,83,60,107,12.289999999999798,0.02,0.01,0.01,13,1,1,1,28,1,1,1,3,0,15,7,Hc,0.4389285714285715,0.02,0.01,0.01
11,18,36,1,8,0.4000000000000002,2,3,116,119,25,111,2.2300000000000018,2.2699999999999956,0.7200000000000004,1.290000000000001,7,4,2,3,11,7,2,3,2,0.5,11,7,Hc,0.20272727272727278,0.32428571428571445,0.36000000000000015,0.4300000000000002
11,19,37,1,4,0.5200000000000002,3,4,107,75,98,66,2.0200000000000014,0.47000000000000025,0.7000000000000004,0.5000000000000002,5,1,2,1,8,1,2,1,2,0,11,7,Hc,0.2525000000000001,0.47000000000000025,0.35000000000000014,0.5000000000000002
11,19,38,1,6,1.1000000000000008,3,5,56,114,95,112,3.9699999999999838,4.109999999999957,1.5700000000000012,1.5700000000000012,8,7,2,3,16,8,2,4,4,0,11,7,Hc,0.2481250000000001,0.5137500000000003,0.7850000000000006,0.39250000000000024
11,20,39,1,9,1.2200000000000009,4,7,86,16,107,20,4.799999999999969,0.13999999999999999,0.37000000000000016,0.11999999999999998,7,1,2,2,14,1,2,2,4,0,17,7,Hc,0.342857142857143,0.13999999999999999,0.18500000000000003,0.06
11,20,40,1,5,0.7900000000000005,5,8,7,82,60,3,1.660000000000001,0.6100000000000003,1.0900000000000007,0.7600000000000005,7,1,1,2,10,2,1,5,6,0,19,7,Hc,0.16600000000000004,0.3050000000000001,1.0900000000000007,0.15200000000000002
11,21,41,1,10,0.34000000000000014,2,3,17,14,16,52,1.8700000000000012,1.0800000000000007,12.989999999999768,0.01,4,2,13,1,9,2,24,1,6,0.5,22,7,Hc,0.20777777777777787,0.5400000000000003,0.5412500000000003,0.01
11,21,42,1,5,0.4300000000000002,1,2,12,38,64,8,2.5299999999999994,0.9000000000000006,0.6300000000000003,0.21000000000000005,6,1,2,1,12,1,3,1,6,0,21,7,Hc,0.21083333333333337,0.9000000000000006,0.21000000000000008,0.21000000000000005
12,1,1,0,9,0.35000000000000014,2,3,47,46,113,48,3.309999999999981,0.26000000000000006,0.5500000000000003,0.3300000000000001,6,1,2,2,12,1,3,2,4,0.5,17,7,Hc,0.27583333333333343,0.26000000000000006,0.1833333333333334,0.165
12,1,2,0,6,0.16,2,3,57,105,25,103,2.6399999999999912,0.6000000000000003,0.26000000000000006,1.6500000000000012,5,2,1,3,13,2,1,4,4,0,13,7,Hc,0.20307692307692313,0.3000000000000001,0.26000000000000006,0.4125000000000002
12,2,3,0,6,0.21000000000000005,2,3,49,99,32,81,2.2400000000000007,0.6900000000000004,0.36000000000000015,0.2700000000000001,5,2,1,3,10,2,1,3,4,0,14,7,Hc,0.2240000000000001,0.34500000000000014,0.36000000000000015,0.09000000000000002
12,2,4,0,10,0.3100000000000001,2,3,62,13,115,116,3.3299999999999796,0.17,0.7500000000000004,4.199999999999955,7,1,2,3,10,1,2,6,6,0,14,7,Hc,0.33300000000000013,0.17,0.37500000000000017,0.7
12,3,5,0,7,0.2800000000000001,2,3,13,108,20,62,3.149999999999983,0.7200000000000004,0.25000000000000006,0.09,4,2,1,1,7,6,1,1,3,0,18,7,Hc,0.45000000000000023,0.12,0.25000000000000006,0.09
