Subject,Round,Phase,afterbreak,Schema,Schema_RT,Schema_OB,Schema_AS,Cho_1,Cho_2,Cho_3,Cho_4,RT_1,RT_2,RT_3,RT_4,OB_1,OB_2,OB_3,OB_4,AS_1,AS_2,AS_3,AS_4,schema_payoff,AC,performance,breakR,type,dwellmean_1,dwellmean_2,dwellmean_3,dwellmean_4
1,1,1,0,3,0.9700000000000006,2,7,112,16,26,53,4.1399999999999775,1.5300000000000011,0.23000000000000007,1.0100000000000007,8,3,1,6,15,3,1,6,5,0,17,7,Lc,0.27600000000000013,0.5100000000000002,0.23000000000000007,0.16833333333333336
1,1,2,0,4,1.340000000000001,3,6,38,101,98,81,4.84999999999997,0.8300000000000005,0.4400000000000002,0.3000000000000001,9,2,2,1,17,3,2,1,2,0,12,7,Lc,0.2852941176470589,0.2766666666666668,0.2200000000000001,0.3000000000000001
1,2,3,0,3,0.17,2,2,6,57,75,104,20.280000000000346,0.01,0.01,0.01,20,1,1,1,70,1,1,1,5,0,15,7,Lc,0.28971428571428587,0.01,0.01,0.01
1,2,4,0,5,0.5100000000000002,5,5,18,113,118,20,2.7599999999999962,4.139999999999956,1.0000000000000007,5.679999999999923,7,7,3,10,8,8,5,16,5,0,16,7,Lc,0.3450000000000002,0.5175000000000003,0.20000000000000007,0.3550000000000002
1,3,5,0,6,0.7500000000000004,2,3,52,45,108,100,5.499999999999943,2.6399999999999877,0.6500000000000004,0.6500000000000004,9,5,1,1,20,10,1,1,6,0,13,7,Lc,0.2750000000000001,0.2640000000000001,0.6500000000000004,0.6500000000000004
1,3,6,0,9,0.4400000000000002,2,3,72,67,61,116,3.599999999999977,0.47000000000000025,0.2900000000000001,0.4400000000000002,7,2,1,1,13,2,1,1,4,0.5,26,7,Lc,0.27692307692307705,0.2350000000000001,0.2900000000000001,0.4400000000000002
1,4,7,0,1,1.330000000000001,5,10,6,71,66,31,10.509999999999849,0.26000000000000006,0.060000000000000005,0.05,14,1,1,1,45,1,1,1,3,0,19,7,Lc,0.23355555555555566,0.26000000000000006,0.060000000000000005,0.05
1,4,8,0,5,0.8500000000000005,2,5,14,23,115,52,5.8899999999999375,0.6500000000000004,0.25000000000000006,0.7700000000000005,11,2,2,3,19,3,3,5,5,0,18,7,Lc,0.3100000000000001,0.21666666666666673,0.08333333333333333,0.15400000000000003
1,5,9,0,5,0.6100000000000003,3,4,100,43,9,59,4.019999999999971,0.35000000000000014,0.8600000000000005,1.300000000000001,8,1,1,5,15,1,1,6,5,0,17,7,Lc,0.26800000000000007,0.35000000000000014,0.8600000000000005,0.21666666666666676
1,5,10,0,1,0.24000000000000007,2,2,13,73,36,76,13.14999999999977,0.01,0.02,0.01,19,1,1,1,40,1,1,1,3,0,17,7,Lc,0.32875000000000015,0.01,0.02,0.01
1,6,11,0,6,0.5500000000000003,2,3,68,78,84,32,4.439999999999961,1.0900000000000007,0.3300000000000001,0.24000000000000007,7,4,2,2,17,6,2,3,6,0,15,7,Lc,0.2611764705882354,0.18166666666666673,0.165,0.08000000000000002
1,6,12,0,7,0.9800000000000006,2,5,52,50,23,15,6.089999999999936,0.4100000000000002,1.270000000000001,0.18000000000000002,7,2,4,2,17,2,4,2,6,0,20,7,Lc,0.35823529411764726,0.20500000000000004,0.3175000000000001,0.09
1,7,13,1,6,0.5800000000000003,2,3,98,69,26,5,3.8699999999999743,1.8500000000000014,0.2700000000000001,0.12999999999999998,8,3,2,1,11,5,3,1,6,0,17,7,Lc,0.351818181818182,0.37000000000000016,0.09,0.12999999999999998
1,7,14,1,1,1.7900000000000014,4,13,82,40,46,15,4.009999999999998,1.6200000000000012,0.6500000000000004,1.8500000000000014,6,3,2,3,15,4,3,5,3,0,19,7,Lc,0.2673333333333335,0.4050000000000002,0.21666666666666673,0.37000000000000016
1,8,15,1,4,1.320000000000001,2,7,99,34,104,108,5.369999999999959,0.7000000000000004,0.49000000000000027,0.4100000000000002,8,2,1,2,21,3,1,2,2,0.5,17,7,Lc,0.2557142857142858,0.23333333333333342,0.49000000000000027,0.20500000000000004
1,8,16,1,9,1.2200000000000009,3,8,66,119,43,61,5.529999999999953,1.320000000000001,1.5200000000000011,0.9200000000000006,11,4,4,3,23,7,7,3,4,0,15,7,Lc,0.24043478260869575,0.1885714285714286,0.2171428571428572,0.3066666666666668
1,9,17,1,3,0.6900000000000004,2,4,112,70,62,29,6.679999999999917,3.0299999999999794,0.03,0.02,10,7,1,1,19,8,1,1,5,0,15,7,Lc,0.3515789473684212,0.3787500000000002,0.03,0.02
1,9,18,1,7,0.35000000000000014,2,3,105,100,108,20,4.059999999999965,1.0100000000000007,0.6700000000000004,0.08,7,3,2,1,13,4,3,1,6,0.5,18,7,Lc,0.31230769230769245,0.2525000000000001,0.22333333333333338,0.08
1,10,19,1,3,0.6100000000000003,2,4,67,25,62,30,5.089999999999949,0.7000000000000004,0.7800000000000005,0.5600000000000003,10,3,2,2,18,4,2,2,5,0,18,7,Lc,0.2827777777777779,0.17500000000000004,0.3900000000000002,0.2800000000000001
1,10,20,1,4,0.6600000000000004,2,5,76,59,97,46,4.62999999999996,0.7900000000000005,0.20000000000000004,2.569999999999989,8,1,1,3,15,1,2,4,2,0,14,7,Lc,0.3086666666666668,0.7900000000000005,0.1,0.6425000000000004
1,11,21,1,6,0.5800000000000003,2,4,5,2,58,12,2.3900000000000015,10.52999999999982,0.01,0.01,5,16,1,1,10,32,1,1,6,0.5,40,7,Lc,0.23900000000000007,0.32906250000000015,0.01,0.01
1,11,22,1,3,1.420000000000001,2,7,72,31,33,68,5.059999999999968,0.7500000000000004,0.3900000000000002,0.21000000000000005,8,2,1,1,23,4,2,1,5,0,18,7,Lc,0.22000000000000008,0.18750000000000006,0.19500000000000003,0.21000000000000005
1,12,23,1,8,0.7800000000000005,3,5,115,63,35,34,3.389999999999989,0.37000000000000016,9.279999999999847,0.01,8,1,10,1,14,1,24,1,2,0,16,7,Lc,0.24214285714285722,0.37000000000000016,0.3866666666666669,0.01
1,12,24,1,4,0.5700000000000003,2,4,100,102,50,52,4.399999999999963,0.6900000000000004,0.7000000000000004,0.2900000000000001,7,2,2,1,14,2,2,1,2,0,12,7,Lc,0.31428571428571445,0.34500000000000014,0.35000000000000014,0.2900000000000001
1,13,25,1,4,0.4100000000000002,2,3,64,102,97,99,4.189999999999964,1.0500000000000007,0.8100000000000005,0.4000000000000002,7,3,3,2,9,5,3,2,2,0.5,16,7,Lc,0.4655555555555554,0.21000000000000005,0.2700000000000001,0.20000000000000004
1,13,26,1,7,0.8100000000000005,2,5,16,27,33,30,5.26999999999995,0.9400000000000006,0.4300000000000002,3.6699999999999657,11,2,2,8,21,2,3,10,6,0.5,36,7,Lc,0.25095238095238104,0.47000000000000025,0.14333333333333334,0.36700000000000016
1,14,27,1,1,0.38000000000000017,1,2,36,69,72,76,3.2799999999999825,1.9000000000000015,1.0200000000000007,0.11999999999999998,5,4,3,1,10,6,4,1,3,0,16,7,Lc,0.3280000000000001,0.3166666666666668,0.2550000000000001,0.11999999999999998
1,14,28,1,8,0.9700000000000006,9,11,113,109,42,55,7.449999999999907,1.7300000000000013,0.17,0.08,20,2,1,1,33,2,1,1,2,0,13,7,Lc,0.22575757575757585,0.8650000000000007,0.17,0.08
1,15,29,1,9,0.6000000000000003,2,4,30,66,34,22,2.520000000000002,1.5400000000000011,0.9900000000000007,1.0100000000000007,5,2,3,2,7,8,3,3,4,0,20,7,Lc,0.36000000000000015,0.19250000000000006,0.3300000000000001,0.3366666666666668
1,15,30,1,4,0.4000000000000002,2,4,99,100,43,52,4.959999999999948,0.9500000000000006,3.2999999999999736,0.4000000000000002,10,5,7,2,18,7,8,2,2,0,13,7,Lc,0.27555555555555566,0.13571428571428573,0.4125000000000002,0.20000000000000007
1,16,31,1,4,1.2300000000000009,5,9,63,97,27,67,6.209999999999939,0.15,0.3000000000000001,0.8100000000000005,14,1,2,2,21,1,2,2,2,0,15,7,Lc,0.2957142857142859,0.15,0.15,0.4050000000000002
1,16,32,1,7,0.5200000000000002,2,3,59,21,45,18,4.729999999999955,0.34000000000000014,1.440000000000001,0.17,10,1,3,1,16,1,4,1,6,0,21,7,Lc,0.29562500000000014,0.34000000000000014,0.36000000000000015,0.17
1,17,33,1,3,0.7100000000000004,2,5,28,108,55,27,1.9000000000000012,2.1199999999999988,1.370000000000001,0.3200000000000001,3,3,2,2,6,12,2,2,5,0,16,7,Lc,0.3166666666666668,0.1766666666666667,0.6850000000000004,0.16
1,17,34,1,10,0.3300000000000001,2,3,45,89,86,88,3.659999999999973,1.1200000000000008,0.19000000000000003,0.18000000000000002,6,3,1,1,12,7,1,1,3,0.5,23,7,Lc,0.30500000000000016,0.16000000000000003,0.19000000000000003,0.18000000000000002
1,18,35,1,2,0.6700000000000004,3,5,112,114,56,49,1.750000000000001,2.679999999999987,1.320000000000001,0.9600000000000006,4,4,3,4,6,8,3,4,4,0,12,7,Lc,0.2916666666666668,0.3350000000000002,0.4400000000000002,0.24000000000000007
1,18,36,1,7,0.4200000000000002,2,3,17,93,42,61,12.989999999999776,0.01,0.01,0.01,11,1,1,1,30,1,1,1,6,0,18,7,Lc,0.4330000000000003,0.01,0.01,0.01
1,19,37,1,4,1.0000000000000007,4,8,65,61,86,107,4.96999999999996,0.3300000000000001,1.1300000000000008,0.18000000000000002,9,1,3,2,15,1,6,2,2,0,13,7,Lc,0.3313333333333335,0.3300000000000001,0.18833333333333338,0.09
1,19,38,1,1,0.7400000000000004,3,5,74,37,51,120,3.5999999999999837,0.9900000000000007,2.7899999999999845,0.24000000000000007,7,3,3,2,19,3,9,2,3,0,14,7,Lc,0.18947368421052638,0.3300000000000001,0.3100000000000001,0.12000000000000001
1,20,39,1,8,0.5700000000000003,2,4,120,39,41,119,4.139999999999969,1.7700000000000014,0.37000000000000016,0.25000000000000006,9,2,1,3,14,2,1,3,2,0,14,7,Lc,0.2957142857142858,0.8850000000000006,0.37000000000000016,0.08333333333333333
1,20,40,1,3,0.5500000000000003,2,7,26,25,12,36,4.069999999999969,0.9500000000000006,0.6200000000000003,0.21000000000000005,7,4,1,2,16,5,1,2,5,0.5,36,7,Lc,0.25437500000000013,0.19000000000000003,0.6200000000000003,0.105
1,21,41,1,3,0.48000000000000026,2,5,26,118,6,8,2.510000000000001,3.619999999999967,0.5000000000000002,1.8800000000000014,6,5,2,3,13,13,4,4,5,0,19,7,Lc,0.19307692307692315,0.2784615384615386,0.125,0.4700000000000003
1,21,42,1,4,0.5600000000000003,4,6,85,63,89,22,3.5899999999999794,1.5100000000000011,0.2800000000000001,0.7000000000000004,9,3,1,2,17,8,1,2,2,0,16,7,Lc,0.21117647058823535,0.18875000000000006,0.2800000000000001,0.35000000000000014
2,1,1,0,1,0.7500000000000004,2,3,57,112,37,18,1.7700000000000011,1.2200000000000009,0.4400000000000002,0.22000000000000006,3,3,2,1,5,4,2,2,3,0,17,7,Lc,0.35400000000000015,0.3050000000000001,0.22000000000000008,0.10999999999999999
2,1,2,0,10,0.38000000000000017,2,4,90,68,64,87,3.639999999999975,0.23000000000000007,0.23000000000000007,0.07,8,1,1,1,10,1,2,1,3,0,14,7,Lc,0.36400000000000016,0.23000000000000007,0.11499999999999999,0.07
2,2,3,0,1,0.7400000000000004,2,4,84,81,79,62,2.520000000000002,0.7800000000000005,0.49000000000000027,0.24000000000000007,5,3,3,1,8,4,3,1,3,0.5,22,7,Lc,0.3150000000000001,0.19500000000000006,0.16333333333333336,0.24000000000000007
2,2,4,0,7,0.7000000000000004,2,5,91,54,40,39,3.349999999999988,0.2900000000000001,0.7700000000000005,1.0000000000000007,6,1,3,3,11,1,5,4,6,0,17,7,Lc,0.3045454545454547,0.2900000000000001,0.15400000000000003,0.25000000000000017
2,3,5,0,4,0.5500000000000003,2,5,45,56,23,73,3.0199999999999916,0.3100000000000001,0.22000000000000006,0.25000000000000006,6,1,1,2,12,1,1,2,2,0,18,7,Lc,0.25166666666666676,0.3100000000000001,0.22000000000000006,0.12500000000000003
2,3,6,0,10,0.9300000000000006,13,14,33,86,28,3,4.0099999999999785,3.5499999999999683,0.6200000000000003,2.9799999999999804,19,6,4,8,25,9,4,9,3,0,19,7,Lc,0.16040000000000004,0.39444444444444465,0.15500000000000003,0.33111111111111124
2,4,7,0,3,0.8300000000000005,2,7,112,17,30,86,2.9399999999999995,0.5400000000000003,0.20000000000000004,0.2900000000000001,4,1,1,1,11,1,1,1,5,0,16,7,Lc,0.2672727272727274,0.5400000000000003,0.20000000000000004,0.2900000000000001
2,4,8,0,9,0.7100000000000004,2,6,82,6,98,101,2.7600000000000007,1.440000000000001,0.4200000000000002,0.17,5,2,2,1,12,4,2,1,4,0,13,7,Lc,0.2300000000000001,0.36000000000000015,0.21000000000000002,0.17
2,5,9,0,3,0.5400000000000003,2,4,50,25,28,102,2.7499999999999973,0.5900000000000003,0.18000000000000002,0.34000000000000014,6,2,1,2,9,4,1,2,5,0,16,7,Lc,0.3055555555555557,0.14750000000000002,0.18000000000000002,0.17000000000000004
2,5,10,0,9,0.8200000000000005,9,11,61,15,20,74,1.8100000000000012,1.280000000000001,3.049999999999979,0.18000000000000002,10,4,5,2,13,5,10,2,4,0,19,7,Lc,0.13923076923076927,0.2560000000000001,0.30500000000000016,0.09000000000000001
2,6,11,0,2,0.9600000000000006,2,5,57,81,14,77,13.609999999999776,0.02,0.45000000000000023,0.01,19,1,2,1,46,1,3,1,4,0,16,7,Lc,0.29586956521739144,0.02,0.15000000000000002,0.01
2,6,12,0,6,0.47000000000000025,2,3,25,6,85,2,2.0200000000000014,0.7000000000000004,2.7999999999999843,0.03,3,2,4,1,4,3,9,1,6,0,20,7,Lc,0.5050000000000003,0.23333333333333342,0.3111111111111112,0.03
2,7,13,1,10,0.25000000000000006,2,2,16,90,29,20,18.8000000000001,0.01,0.01,0.01,20,1,1,1,62,1,1,1,3,0,20,7,Lc,0.30322580645161296,0.01,0.01,0.01
2,7,14,1,6,0.38000000000000017,2,3,5,6,72,73,6.359999999999917,0.01,0.15,0.01,7,1,1,1,9,1,1,1,6,0,19,7,Lc,0.7066666666666634,0.01,0.15,0.01
2,8,15,1,7,0.9100000000000006,8,10,23,18,14,60,2.3600000000000017,0.9800000000000006,1.0800000000000007,0.24000000000000007,11,2,2,1,17,4,5,1,6,0.5,40,7,Lc,0.13882352941176473,0.24500000000000008,0.21600000000000005,0.24000000000000007
2,8,16,1,3,0.6200000000000003,2,4,80,34,36,32,2.9099999999999957,0.45000000000000023,2.819999999999984,0.12999999999999998,7,1,5,2,12,1,8,2,5,0.5,33,7,Lc,0.24250000000000008,0.45000000000000023,0.3525000000000002,0.06499999999999999
2,9,17,1,9,0.4000000000000002,2,3,69,105,68,19,1.2100000000000006,1.9000000000000015,0.15,0.7700000000000005,4,3,1,3,5,6,1,4,4,0,16,7,Lc,0.2420000000000001,0.3166666666666668,0.15,0.19250000000000006
2,9,18,1,6,0.4000000000000002,2,4,2,27,60,7,2.809999999999993,0.3000000000000001,0.24000000000000007,0.13999999999999999,6,1,1,1,14,1,1,1,6,0,21,7,Lc,0.20071428571428576,0.3000000000000001,0.24000000000000007,0.13999999999999999
2,10,19,1,8,0.4000000000000002,3,3,28,119,73,113,13.639999999999763,0.01,0.01,0.01,19,1,1,1,37,1,1,1,2,0,12,7,Lc,0.3686486486486488,0.01,0.01,0.01
2,10,20,1,6,0.7500000000000004,7,10,96,97,2,1,3.7399999999999807,0.36000000000000015,0.4400000000000002,0.9400000000000006,11,2,3,6,17,5,3,6,6,0,17,7,Lc,0.2200000000000001,0.07200000000000001,0.1466666666666667,0.1566666666666667
2,11,21,1,5,0.37000000000000016,2,5,42,45,13,14,1.0500000000000005,1.400000000000001,0.9600000000000006,0.47000000000000025,4,4,3,2,7,6,4,4,5,0,22,7,Lc,0.15000000000000005,0.23333333333333342,0.24000000000000007,0.11750000000000001
2,11,22,1,4,0.4000000000000002,2,3,1,87,31,71,2.9699999999999895,0.5600000000000003,0.7700000000000005,0.16,6,1,3,1,11,1,3,1,2,0,18,7,Lc,0.27000000000000013,0.5600000000000003,0.25666666666666677,0.16
2,12,23,1,7,0.8200000000000005,2,7,17,24,16,77,1.4600000000000009,0.8100000000000005,10.299999999999825,1.480000000000001,3,1,10,3,8,2,20,3,6,0.5,39,7,Lc,0.18250000000000005,0.4050000000000002,0.5150000000000003,0.49333333333333357
2,12,24,1,2,0.5800000000000003,3,4,119,85,87,91,4.479999999999961,0.4300000000000002,0.07,0.12999999999999998,11,2,1,1,18,2,1,1,4,0.5,20,7,Lc,0.24888888888888897,0.21500000000000002,0.07,0.12999999999999998
2,13,25,1,3,0.8000000000000005,2,4,32,118,33,20,2.740000000000002,1.8400000000000014,0.15,0.35000000000000014,6,4,1,2,9,8,1,3,5,0,18,7,Lc,0.3044444444444446,0.2300000000000001,0.15,0.11666666666666667
2,13,26,1,6,0.38000000000000017,2,4,8,2,97,9,5.369999999999938,4.469999999999949,0.03,0.01,9,7,1,1,19,12,1,1,6,0.5,38,7,Lc,0.28263157894736857,0.37250000000000016,0.03,0.01
2,14,27,1,1,0.5200000000000002,3,6,119,28,27,112,2.8299999999999947,0.38000000000000017,0.24000000000000007,0.7000000000000004,7,2,1,3,11,3,1,5,3,0,14,7,Lc,0.2572727272727274,0.12666666666666668,0.24000000000000007,0.14
2,14,28,1,9,0.4100000000000002,2,3,68,93,90,13,1.9600000000000013,1.9000000000000015,0.48000000000000026,0.20000000000000004,5,2,2,1,7,3,2,1,4,0,16,7,Lc,0.2800000000000001,0.6333333333333337,0.2400000000000001,0.20000000000000004
2,15,29,1,2,0.34000000000000014,2,3,54,25,19,22,2.5799999999999965,0.6500000000000004,0.48000000000000026,0.15,6,3,2,1,17,4,3,1,4,0,21,7,Lc,0.15176470588235297,0.16250000000000003,0.16000000000000003,0.15
2,15,30,1,5,0.16,2,2,3,106,102,73,21.760000000000577,0.01,0.01,0.01,20,1,1,1,65,1,1,1,5,0,13,7,Lc,0.33476923076923093,0.01,0.01,0.01
2,16,31,1,6,0.3000000000000001,2,2,1,92,53,96,2.789999999999991,1.7700000000000014,0.2700000000000001,0.5700000000000003,6,6,2,3,11,7,3,3,6,0,16,7,Lc,0.2536363636363637,0.25285714285714295,0.09000000000000001,0.19000000000000003
2,16,32,1,1,1.0300000000000007,12,13,31,74,22,13,3.4199999999999937,0.15,1.5100000000000011,3.3499999999999726,17,1,3,4,22,1,5,8,3,0,20,7,Lc,0.15545454545454548,0.15,0.3020000000000001,0.41875000000000023
2,17,33,1,8,0.6100000000000003,4,6,79,32,112,7,3.489999999999983,1.5700000000000012,1.0600000000000007,0.03,9,3,4,2,16,4,4,2,2,0,16,7,Lc,0.21812500000000007,0.39250000000000024,0.26500000000000007,0.015
2,17,34,1,10,0.48000000000000026,2,4,58,21,91,20,4.209999999999964,3.92999999999996,0.8500000000000005,0.9700000000000006,7,8,4,2,14,15,5,2,3,0,19,7,Lc,0.3007142857142858,0.2620000000000001,0.17000000000000007,0.4850000000000003
2,18,35,1,8,0.8300000000000005,2,5,116,95,34,115,1.750000000000001,2.52999999999999,0.17,0.21000000000000005,5,4,1,2,12,9,1,3,2,0,12,7,Lc,0.14583333333333337,0.28111111111111126,0.17,0.06999999999999999
2,18,36,1,1,0.7900000000000005,8,9,47,74,66,84,3.479999999999987,0.8500000000000005,0.16,1.1700000000000008,11,3,1,3,15,3,1,3,3,0,15,7,Lc,0.2320000000000001,0.28333333333333344,0.16,0.3900000000000002
2,19,37,1,8,0.38000000000000017,2,3,120,92,56,115,1.680000000000001,0.7700000000000005,0.8800000000000006,0.2800000000000001,4,1,2,4,7,1,3,4,2,0,11,7,Lc,0.2400000000000001,0.7700000000000005,0.29333333333333345,0.06999999999999999
2,19,38,1,6,0.5500000000000003,2,5,79,72,69,1,2.7899999999999965,0.8200000000000005,0.26000000000000006,0.08,5,2,1,1,11,2,1,1,6,0,17,7,Lc,0.25363636363636377,0.41000000000000014,0.26000000000000006,0.08
2,20,39,1,8,0.7000000000000004,3,6,34,118,85,67,3.9799999999999747,0.18000000000000002,0.15,0.19000000000000003,8,1,1,1,16,1,1,1,2,0,14,7,Lc,0.24875000000000008,0.18000000000000002,0.15,0.19000000000000003
2,20,40,1,5,1.1700000000000008,3,9,46,54,101,5,3.72999999999999,0.2900000000000001,0.47000000000000025,1.0100000000000007,8,1,1,2,23,1,1,3,5,0,17,7,Lc,0.1621739130434783,0.2900000000000001,0.47000000000000025,0.33666666666666684
2,21,41,1,8,0.8000000000000005,8,9,57,37,9,2,3.019999999999997,1.5600000000000012,0.05,0.15,11,4,1,1,16,10,1,1,2,0,21,7,Lc,0.18875000000000006,0.15600000000000003,0.05,0.15
2,21,42,1,9,0.46000000000000024,2,3,67,22,101,19,2.869999999999993,0.4400000000000002,1.9300000000000015,0.060000000000000005,5,1,4,2,7,1,8,2,4,0,18,7,Lc,0.4100000000000002,0.4400000000000002,0.24125000000000008,0.03
3,1,1,0,3,0.6100000000000003,2,4,28,80,30,25,12.089999999999801,3.2499999999999747,0.8600000000000005,0.15,16,6,4,1,30,7,4,1,5,0.5,33,7,Lc,0.40300000000000014,0.4642857142857145,0.21500000000000005,0.15
3,1,2,0,8,0.6600000000000004,2,4,24,23,120,116,11.499999999999813,4.809999999999942,1.1100000000000008,0.7400000000000004,15,12,3,2,28,20,5,2,2,0,16,7,Lc,0.41071428571428575,0.2405000000000001,0.2220000000000001,0.37000000000000016
3,2,3,0,5,0.6900000000000004,3,5,72,82,38,48,15.629999999999725,1.6100000000000012,0.09,0.9400000000000006,15,3,1,5,21,3,1,6,5,0,17,7,Lc,0.7442857142857131,0.536666666666667,0.09,0.1566666666666667
3,2,4,0,8,1.1100000000000008,9,13,113,15,110,34,7.7299999999999045,3.329999999999973,2.0300000000000007,0.7500000000000004,18,2,3,3,28,4,3,3,2,0,15,7,Lc,0.2760714285714287,0.8324999999999991,0.6766666666666671,0.2500000000000001
3,3,5,0,3,0.4300000000000002,2,3,107,34,72,69,9.819999999999844,1.9300000000000015,0.7900000000000005,2.9199999999999817,15,7,1,7,30,11,1,11,5,0,15,7,Lc,0.3273333333333335,0.1754545454545455,0.7900000000000005,0.26545454545454555
3,3,6,0,8,1.1100000000000008,3,7,49,51,116,19,9.139999999999874,4.329999999999952,0.3900000000000002,1.2400000000000009,12,7,2,3,18,9,2,4,2,0,16,7,Lc,0.5077777777777776,0.4811111111111114,0.19500000000000003,0.3100000000000001
3,4,7,0,3,1.8000000000000014,9,14,22,15,58,25,10.229999999999865,14.019999999999746,0.07,0.02,20,12,1,1,35,22,1,1,5,0,21,7,Lc,0.2922857142857144,0.6372727272727277,0.07,0.02
3,4,8,0,9,0.3900000000000002,3,4,61,65,79,63,8.739999999999867,2.1199999999999988,2.0000000000000013,0.17,15,6,7,1,29,7,9,1,4,0.5,27,7,Lc,0.30137931034482773,0.302857142857143,0.2222222222222223,0.17
3,5,9,0,2,0.8500000000000005,6,7,55,105,100,56,8.129999999999889,3.46999999999997,0.5800000000000003,0.9000000000000006,20,6,1,5,27,9,1,5,4,0,12,7,Lc,0.3011111111111113,0.38555555555555576,0.5800000000000003,0.18000000000000005
3,5,10,0,7,0.5400000000000003,2,3,15,21,13,38,7.839999999999889,2.479999999999991,2.859999999999983,1.6900000000000013,15,8,8,2,22,9,9,3,6,0.5,41,7,Lc,0.35636363636363655,0.27555555555555566,0.31777777777777794,0.5633333333333337
3,6,11,0,6,0.15,2,2,1,3,8,117,18.420000000000055,1.0200000000000007,0.8800000000000006,0.45000000000000023,20,3,4,2,50,3,5,2,6,0.5,38,7,Lc,0.36840000000000017,0.3400000000000002,0.17600000000000007,0.2250000000000001
3,6,12,0,5,1.6100000000000012,7,10,18,14,17,38,8.92999999999989,10.659999999999817,7.559999999999883,0.12999999999999998,18,12,10,2,29,18,19,2,5,0.5,41,7,Lc,0.30793103448275877,0.5922222222222225,0.39789473684210547,0.065
3,7,13,1,10,0.45000000000000023,3,4,94,24,92,88,14.28999999999975,4.129999999999956,0.07,0.07,20,8,1,1,47,12,1,1,3,0.5,24,7,Lc,0.3040425531914895,0.34416666666666684,0.07,0.07
3,7,14,1,2,7.6899999999998805,13,23,60,7,41,84,21.46999999999963,1.330000000000001,5.6699999999999235,3.0799999999999783,20,3,10,4,53,3,18,5,4,0,18,7,Lc,0.40509433962264174,0.4433333333333335,0.31500000000000017,0.6160000000000004
3,8,15,1,7,0.15,2,2,19,84,74,23,12.259999999999787,1.0700000000000007,1.5800000000000012,0.38000000000000017,18,2,3,2,33,3,3,2,6,0,18,7,Lc,0.3715151515151517,0.3566666666666668,0.526666666666667,0.19000000000000003
3,8,16,1,6,1.9300000000000015,10,12,45,90,41,10,9.199999999999891,1.0000000000000007,2.1899999999999973,1.6300000000000012,20,1,5,3,27,2,8,5,6,0,19,7,Lc,0.3407407407407409,0.5000000000000002,0.2737500000000001,0.3260000000000001
3,9,17,1,1,1.380000000000001,5,8,115,2,76,68,13.31999999999979,16.259999999999742,0.01,0.11999999999999998,20,18,1,1,40,43,1,1,3,0,15,7,Lc,0.33300000000000013,0.3781395348837211,0.01,0.11999999999999998
3,9,18,1,7,2.4199999999999924,8,11,87,90,49,107,10.039999999999875,0.6500000000000004,2.9899999999999802,0.35000000000000014,19,1,5,1,31,1,8,1,6,0,12,7,Lc,0.3238709677419355,0.6500000000000004,0.3737500000000002,0.35000000000000014
3,10,19,1,5,2.259999999999996,6,7,59,86,94,109,22.400000000000343,0.5000000000000002,0.20000000000000004,1.1700000000000008,20,3,1,5,36,3,1,7,5,0,12,7,Lc,0.6222222222222223,0.16666666666666669,0.20000000000000004,0.1671428571428572
3,10,20,1,9,0.6100000000000003,3,4,107,84,83,68,8.629999999999875,1.2000000000000008,0.6900000000000004,3.8299999999999623,16,3,3,8,24,3,4,9,4,0,12,7,Lc,0.35958333333333353,0.4000000000000002,0.17250000000000007,0.4255555555555558
3,11,21,1,4,3.46999999999997,7,13,104,84,108,80,9.559999999999885,0.7200000000000004,8.809999999999857,1.5500000000000012,15,2,12,3,28,2,20,3,2,0,10,7,Lc,0.3414285714285716,0.36000000000000015,0.4405000000000002,0.5166666666666669
3,11,22,1,9,0.36000000000000015,1,2,72,42,22,65,10.799999999999821,1.8500000000000014,1.8700000000000014,1.5300000000000011,14,5,4,5,26,6,5,6,4,0,19,7,Lc,0.4153846153846156,0.30833333333333346,0.3740000000000002,0.25500000000000006
3,12,23,1,6,0.2800000000000001,2,3,113,110,109,1,10.989999999999815,1.1600000000000008,0.8600000000000005,1.5200000000000011,12,2,2,7,18,2,2,9,6,0.5,18,7,Lc,0.610555555555556,0.5800000000000003,0.43000000000000016,0.16888888888888892
3,12,24,1,7,0.9400000000000006,4,5,105,20,14,46,7.7199999999999,0.7600000000000005,25.290000000001154,0.04,12,2,18,2,17,2,55,2,6,0,19,7,Lc,0.4541176470588238,0.38000000000000017,0.45981818181818207,0.02
3,13,25,1,6,0.9000000000000006,2,3,38,43,1,5,10.819999999999833,1.0200000000000007,4.469999999999949,5.589999999999925,20,1,9,9,34,1,10,15,6,0,22,7,Lc,0.31823529411764717,1.0200000000000007,0.44700000000000023,0.37266666666666687
3,13,26,1,2,1.0600000000000007,8,10,91,16,58,17,8.649999999999883,2.7499999999999853,11.779999999999793,12.129999999999786,20,7,11,13,30,8,20,21,4,0,19,7,Lc,0.28833333333333344,0.34375000000000017,0.5890000000000003,0.5776190476190479
3,14,27,1,7,1.5700000000000012,11,15,13,14,23,26,10.819999999999848,13.82999999999975,0.3100000000000001,4.289999999999953,20,15,2,7,36,36,2,11,6,0.5,41,7,Lc,0.3005555555555557,0.3841666666666669,0.15500000000000003,0.3900000000000002
3,14,28,1,1,0.46000000000000024,3,5,80,100,78,81,12.059999999999798,1.5200000000000011,1.8800000000000014,1.2500000000000009,14,7,5,5,25,7,6,5,3,0.5,20,7,Lc,0.4824000000000003,0.21714285714285722,0.31333333333333346,0.2500000000000001
3,15,29,1,6,5.549999999999926,6,18,92,11,6,52,11.559999999999842,2.149999999999998,4.479999999999949,9.879999999999834,17,4,9,12,36,5,16,27,6,0,19,7,Lc,0.32111111111111124,0.4300000000000002,0.28000000000000014,0.3659259259259261
3,15,30,1,8,0.6500000000000004,2,3,24,119,120,110,12.409999999999794,5.609999999999925,0.12999999999999998,1.2400000000000009,16,5,2,2,24,5,2,2,2,0.5,18,7,Lc,0.5170833333333333,1.1220000000000008,0.065,0.6200000000000003
3,16,31,1,9,1.7300000000000013,5,6,10,7,8,4,6.019999999999954,2.249999999999996,5.429999999999929,0.22000000000000006,15,5,12,2,20,5,18,2,4,1,72,7,Lc,0.30100000000000016,0.45000000000000023,0.3016666666666668,0.10999999999999999
3,16,32,1,1,0.2800000000000001,2,4,13,101,32,73,20.450000000000355,0.04,0.09999999999999999,0.08,17,1,1,1,50,1,1,1,3,0,16,7,Lc,0.4090000000000002,0.04,0.09999999999999999,0.08
3,17,33,1,9,1.5300000000000011,5,9,115,63,66,112,8.209999999999903,0.8600000000000005,0.8500000000000005,1.410000000000001,18,3,3,6,33,4,5,8,4,0,12,7,Lc,0.2487878787878789,0.21500000000000008,0.17000000000000007,0.17625000000000005
3,17,34,1,1,0.47000000000000025,2,4,56,73,51,50,2.6599999999999975,1.8900000000000015,4.489999999999949,0.48000000000000026,3,4,6,1,5,5,8,1,3,0.5,27,7,Lc,0.5319999999999995,0.37800000000000017,0.5612500000000004,0.48000000000000026
3,18,35,1,2,0.5500000000000003,2,5,52,10,57,60,10.19999999999984,0.6800000000000004,1.350000000000001,3.189999999999976,15,1,3,7,33,1,3,7,4,0.5,30,7,Lc,0.3090909090909092,0.6800000000000004,0.45000000000000023,0.45571428571428596
3,18,36,1,4,0.9900000000000007,3,4,84,24,21,78,7.409999999999908,4.329999999999952,4.569999999999947,0.8500000000000005,12,4,6,3,19,7,8,4,2,0,18,7,Lc,0.3900000000000002,0.618571428571429,0.5712500000000004,0.21250000000000008
3,19,37,1,1,2.3199999999999945,5,6,75,79,74,24,7.639999999999926,0.3300000000000001,1.1800000000000008,2.6099999999999883,15,1,6,7,22,1,6,7,3,0.5,24,7,Lc,0.34727272727272746,0.3300000000000001,0.1966666666666667,0.37285714285714305
3,19,38,1,4,1.1800000000000008,3,8,101,104,12,52,11.029999999999836,2.299999999999995,0.21000000000000005,4.0299999999999585,17,6,1,8,31,7,1,10,2,0,14,7,Lc,0.3558064516129034,0.32857142857142874,0.21000000000000005,0.4030000000000002
4,1,1,0,7,0.4000000000000002,2,3,115,84,30,14,2.799999999999993,1.2200000000000009,1.1600000000000008,0.49000000000000027,10,3,2,3,11,4,2,3,6,0,16,7,Lc,0.25454545454545463,0.3050000000000001,0.5800000000000004,0.16333333333333339
4,1,2,0,4,0.35000000000000014,2,4,100,59,43,3,1.8900000000000012,0.6600000000000004,0.5800000000000003,0.6700000000000004,7,1,3,2,11,1,3,2,2,0,17,7,Lc,0.17181818181818187,0.6600000000000004,0.19333333333333336,0.33500000000000013
4,2,3,0,10,0.3200000000000001,4,5,90,95,4,46,1.2500000000000007,1.450000000000001,0.25000000000000006,1.0400000000000007,7,5,1,4,9,5,1,4,3,0,17,7,Lc,0.13888888888888892,0.2900000000000001,0.25000000000000006,0.2600000000000001
4,2,4,0,7,0.6500000000000004,6,9,101,51,34,79,3.6399999999999806,0.15,0.08,0.7800000000000005,13,1,2,2,18,1,2,2,6,0,14,7,Lc,0.2022222222222223,0.15,0.04,0.39000000000000024
4,3,5,0,3,0.6300000000000003,3,4,14,79,61,62,8.639999999999874,0.03,0.01,0.02,19,1,1,1,29,1,1,1,5,0,17,7,Lc,0.29793103448275876,0.03,0.01,0.02
4,3,6,0,10,0.38000000000000017,2,3,3,4,7,116,3.2899999999999823,0.20000000000000004,1.1100000000000008,0.5600000000000003,12,2,3,2,16,2,3,2,3,0.5,38,7,Lc,0.20562500000000006,0.1,0.3700000000000002,0.28000000000000014
4,4,7,0,2,0.35000000000000014,2,3,50,60,47,108,4.709999999999952,0.2700000000000001,0.38000000000000017,0.01,10,2,3,1,13,2,3,1,4,0,15,7,Lc,0.3623076923076925,0.13500000000000004,0.12666666666666668,0.01
4,4,8,0,3,0.48000000000000026,3,4,80,81,84,1,1.8300000000000012,3.8299999999999623,2.109999999999999,3.3099999999999734,5,8,5,12,8,12,5,14,5,0.5,24,7,Lc,0.2287500000000001,0.3191666666666668,0.42200000000000026,0.23642857142857152
4,5,9,0,1,0.5600000000000003,4,5,100,11,39,102,6.559999999999917,11.239999999999805,0.03,2.4699999999999913,16,14,1,6,25,20,1,9,3,0,15,7,Lc,0.26240000000000013,0.5619999999999998,0.03,0.2744444444444446
4,5,10,0,10,0.35000000000000014,3,4,88,19,92,59,1.3700000000000008,0.5900000000000003,0.2700000000000001,1.5800000000000012,5,1,2,4,6,1,3,5,3,0,16,7,Lc,0.22833333333333342,0.5900000000000003,0.09000000000000001,0.31600000000000017
4,6,11,0,9,0.5900000000000003,4,5,100,87,21,62,2.8899999999999952,0.38000000000000017,0.34000000000000014,0.07,8,2,2,1,9,2,2,1,4,0,15,7,Lc,0.32111111111111124,0.19000000000000006,0.17,0.07
4,6,12,0,6,0.25000000000000006,2,3,10,11,2,79,1.1000000000000005,0.6800000000000004,4.039999999999958,1.6200000000000012,3,3,7,3,4,3,8,3,6,0.5,39,7,Lc,0.27500000000000013,0.22666666666666677,0.5050000000000003,0.5400000000000003
4,7,13,1,2,0.25000000000000006,2,5,2,57,89,8,3.9799999999999645,0.03,0.07,2.0799999999999996,11,1,1,5,16,1,2,7,4,0,19,7,Lc,0.2487500000000001,0.03,0.035,0.2971428571428573
4,7,14,1,5,0.6000000000000003,4,5,97,103,24,98,2.859999999999996,0.34000000000000014,0.6400000000000003,0.09,9,2,2,1,11,2,2,1,5,0.5,18,7,Lc,0.2600000000000001,0.17000000000000004,0.3200000000000002,0.09
4,8,15,1,2,0.46000000000000024,2,5,43,53,79,101,3.519999999999979,0.05,0.9900000000000007,0.22000000000000006,12,1,3,2,17,1,3,2,4,0,14,7,Lc,0.20705882352941182,0.05,0.3300000000000002,0.11000000000000001
4,8,16,1,3,0.2800000000000001,2,3,25,88,8,95,2.0100000000000016,0.26000000000000006,0.2900000000000001,0.22000000000000006,5,1,1,2,6,1,1,2,5,0,17,7,Lc,0.3350000000000002,0.26000000000000006,0.2900000000000001,0.10999999999999999
4,9,17,1,10,0.2700000000000001,1,2,4,85,60,91,2.369999999999999,0.4100000000000002,0.6600000000000004,0.08,5,2,1,1,7,3,1,1,3,0,16,7,Lc,0.3385714285714287,0.1366666666666667,0.6600000000000004,0.08
4,9,18,1,9,0.45000000000000023,2,5,76,77,81,105,2.390000000000002,0.3200000000000001,0.49000000000000027,0.11999999999999998,5,1,2,1,9,2,2,1,4,0.5,20,7,Lc,0.26555555555555566,0.16,0.24500000000000005,0.11999999999999998
4,10,19,1,8,0.25000000000000006,1,2,57,92,22,58,1.600000000000001,1.1400000000000008,0.23000000000000007,0.19000000000000003,3,4,1,2,5,4,1,2,2,0,17,7,Lc,0.3200000000000001,0.28500000000000014,0.23000000000000007,0.095
4,10,20,1,6,0.21000000000000005,3,5,9,12,5,4,1.630000000000001,2.909999999999982,0.01,0.16,6,9,1,2,9,11,1,2,6,1,72,7,Lc,0.18111111111111117,0.26454545454545464,0.01,0.08
4,11,21,1,2,1.7200000000000013,5,8,87,54,109,50,3.6200000000000028,0.3900000000000002,0.26000000000000006,0.05,8,2,1,1,12,2,1,1,4,0,13,7,Lc,0.3016666666666668,0.19500000000000003,0.26000000000000006,0.05
4,11,22,1,1,0.2800000000000001,2,3,76,82,35,65,1.3400000000000007,1.330000000000001,1.1600000000000008,0.03,4,4,7,1,8,6,7,1,3,0,15,7,Lc,0.16750000000000004,0.22166666666666673,0.16571428571428576,0.03
4,12,23,1,7,0.2800000000000001,2,3,24,102,69,38,1.8600000000000012,1.0700000000000007,0.37000000000000016,0.09,7,3,3,1,9,5,3,1,6,0,17,7,Lc,0.20666666666666672,0.21400000000000008,0.12333333333333335,0.09
4,12,24,1,3,0.3900000000000002,2,3,11,34,118,9,1.1900000000000006,2.249999999999996,0.12999999999999998,0.01,4,5,1,1,5,6,1,1,5,0,19,7,Lc,0.23800000000000007,0.3750000000000002,0.12999999999999998,0.01
4,13,25,1,4,0.35000000000000014,6,8,100,58,35,93,1.510000000000001,1.1900000000000008,0.5700000000000003,0.18000000000000002,8,2,2,2,11,3,2,2,2,0,14,7,Lc,0.13727272727272732,0.39666666666666683,0.2850000000000001,0.09
4,13,26,1,5,0.7500000000000004,11,13,37,48,70,81,2.4000000000000017,1.260000000000001,0.7400000000000004,0.26000000000000006,14,4,2,2,17,4,2,2,5,0,17,7,Lc,0.14117647058823535,0.3150000000000001,0.3700000000000002,0.13
4,14,27,1,2,0.4400000000000002,2,3,10,102,103,37,0.8700000000000004,1.0800000000000007,0.21000000000000005,0.5300000000000002,3,3,2,3,5,5,2,3,4,0,15,7,Lc,0.17400000000000004,0.21600000000000005,0.10500000000000001,0.1766666666666667
4,14,28,1,9,0.5300000000000002,2,3,71,79,120,109,23.04000000000072,3.3399999999999728,0.18000000000000002,1.0700000000000007,20,7,2,2,56,10,2,2,4,0,11,7,Lc,0.4114285714285713,0.3340000000000002,0.09,0.5350000000000004
4,15,29,1,2,1.360000000000001,5,9,12,79,43,55,2.860000000000002,0.7300000000000004,0.21000000000000005,0.15,10,1,2,2,14,1,3,2,4,0,18,7,Lc,0.20428571428571438,0.7300000000000004,0.06999999999999999,0.075
4,15,30,1,8,0.3900000000000002,5,6,16,120,21,68,3.39999999999998,0.19000000000000003,0.19000000000000003,0.7600000000000005,9,2,1,3,15,2,1,3,2,0,18,7,Lc,0.22666666666666677,0.09499999999999999,0.19000000000000003,0.25333333333333347
4,16,31,1,10,0.3300000000000001,4,5,95,36,34,90,1.1800000000000006,1.2400000000000009,1.1000000000000008,0.03,6,2,4,1,7,3,5,1,3,0,16,7,Lc,0.16857142857142862,0.4133333333333336,0.22000000000000006,0.03
4,16,32,1,7,0.3300000000000001,2,3,107,98,102,16,1.1400000000000006,0.18000000000000002,0.36000000000000015,2.899999999999982,5,1,2,5,6,1,2,5,6,0.5,18,7,Lc,0.19000000000000006,0.18000000000000002,0.18000000000000002,0.5800000000000004
4,17,33,1,9,0.49000000000000027,2,4,68,100,91,24,1.660000000000001,0.09,0.8300000000000005,0.4200000000000002,5,2,3,1,9,2,4,1,4,0,15,7,Lc,0.1844444444444445,0.045000000000000005,0.20750000000000005,0.4200000000000002
4,17,34,1,3,0.38000000000000017,2,4,34,26,58,29,2.979999999999989,2.239999999999996,0.05,0.09,8,5,2,2,12,5,2,2,5,0.5,34,7,Lc,0.24833333333333343,0.4480000000000003,0.025,0.045000000000000005
4,18,35,1,9,0.34000000000000014,2,4,63,61,68,11,1.8800000000000012,0.4000000000000002,2.2299999999999964,0.01,9,2,3,1,13,2,3,1,4,0.5,30,7,Lc,0.14461538461538465,0.20000000000000004,0.7433333333333338,0.01
4,18,36,1,3,0.5600000000000003,2,6,36,103,93,94,1.530000000000001,1.0300000000000007,0.3200000000000001,0.2900000000000001,4,4,1,2,12,5,1,3,5,0,13,7,Lc,0.12750000000000003,0.2060000000000001,0.3200000000000001,0.09666666666666666
4,19,37,1,4,0.18000000000000002,2,3,97,106,83,99,1.680000000000001,0.16,1.6600000000000013,0.16,6,1,2,2,7,1,2,2,2,0.5,15,7,Lc,0.2400000000000001,0.16,0.8300000000000005,0.07999999999999999
4,19,38,1,10,0.25000000000000006,3,4,88,4,92,90,2.0700000000000016,27.870000000001557,8.21999999999987,0.04,8,19,10,1,14,67,18,1,3,0.5,24,7,Lc,0.1478571428571429,0.4159701492537313,0.4566666666666669,0.04
4,20,39,1,8,0.3000000000000001,2,3,118,19,45,89,2.1800000000000015,1.0800000000000007,0.25000000000000006,0.8600000000000005,6,5,1,4,10,6,1,4,2,0,16,7,Lc,0.21800000000000008,0.18000000000000002,0.25000000000000006,0.21500000000000008
4,20,40,1,3,0.4400000000000002,7,8,100,34,82,81,2.3400000000000016,0.4200000000000002,0.4300000000000002,0.47000000000000025,11,3,2,3,13,3,2,3,5,0,13,7,Lc,0.18000000000000008,0.13999999999999999,0.21500000000000008,0.15666666666666668
4,21,41,1,8,0.5300000000000002,2,3,117,31,35,109,1.9100000000000013,1.320000000000001,0.45000000000000023,0.07,5,3,1,1,7,5,1,1,2,0,14,7,Lc,0.27285714285714296,0.2640000000000001,0.45000000000000023,0.07
4,21,42,1,1,0.23000000000000007,2,3,76,60,101,43,2.1800000000000015,0.9100000000000006,0.04,0.08,8,3,1,1,11,3,1,1,3,0,14,7,Lc,0.19818181818181824,0.30333333333333345,0.04,0.08
5,1,1,0,10,1.1300000000000008,3,40,86,88,85,22,16.36999999999972,2.53999999999999,1.1200000000000008,1.5500000000000012,5,2,2,2,554,83,40,53,3,0.5,24,6,Lc,0.029548736462093862,0.030602409638554217,0.028,0.029245283018867925
5,1,2,0,6,1.6400000000000012,2,57,10,11,4,83,19.079999999999927,2.0899999999999994,20.97000000000048,1.360000000000001,4,2,4,2,635,70,696,55,6,0.5,39,6,Lc,0.03004724409448819,0.029857142857142856,0.030129310344827586,0.024727272727272726
5,2,3,0,9,4.259999999999954,2,120,69,105,21,101,20.609999999999708,2.769999999999985,0.9400000000000006,1.0900000000000007,5,4,2,2,682,86,35,45,4,0,14,6,Lc,0.030219941348973607,0.0322093023255814,0.026857142857142857,0.02422222222222222
5,2,4,0,6,0.8300000000000005,2,32,1,9,58,109,17.05999999999974,1.270000000000001,2.5599999999999894,0.6500000000000004,4,2,2,2,566,36,85,20,6,0,18,6,Lc,0.030141342756183746,0.035277777777777776,0.03011764705882353,0.0325
5,3,5,0,4,3.319999999999973,3,116,48,70,66,65,24.04000000000041,1.8000000000000014,1.6500000000000012,0.17,15,3,3,2,792,44,57,6,2,0.5,29,6,Lc,0.030353535353535355,0.04090909090909091,0.02894736842105263,0.028333333333333335
5,3,6,0,1,4.719999999999944,8,162,24,84,117,19,23.87000000000014,0.34000000000000014,17.489999999999934,0.7300000000000004,12,2,6,3,770,10,589,19,3,0,17,6,Lc,0.031,0.033999999999999996,0.02969439728353141,0.038421052631578946
5,4,7,0,10,1.440000000000001,2,54,96,60,29,94,18.529999999999873,5.199999999999934,2.679999999999987,0.12999999999999998,5,5,2,2,656,155,88,4,3,0,15,6,Lc,0.028246951219512196,0.03354838709677419,0.030454545454545456,0.0325
5,4,8,0,5,6.059999999999915,3,194,39,111,120,119,22.809999999999732,0.8400000000000005,1.5500000000000012,1.5600000000000012,5,2,2,2,772,27,53,47,5,0.5,17,6,Lc,0.02954663212435233,0.03111111111111111,0.029245283018867925,0.03319148936170213
5,5,9,0,6,1.350000000000001,2,41,8,6,116,3,18.689999999999912,4.559999999999947,0.23000000000000007,1.9100000000000015,6,8,3,5,603,154,7,65,6,0.5,38,6,Lc,0.03099502487562189,0.02961038961038961,0.032857142857142856,0.029384615384615384
5,5,10,0,3,3.569999999999968,2,129,52,26,75,34,22.170000000000076,0.2800000000000001,1.1300000000000008,0.5500000000000003,5,2,2,2,724,9,28,17,5,0,17,6,Lc,0.030621546961325966,0.031111111111111114,0.040357142857142855,0.03235294117647059
5,6,11,1,10,1.330000000000001,2,52,96,91,23,58,19.209999999999997,1.0100000000000007,1.1700000000000008,1.430000000000001,4,3,4,4,655,45,34,40,3,0,16,6,Lc,0.02932824427480916,0.022444444444444444,0.03441176470588235,0.03575
5,6,12,1,9,0.3900000000000002,2,12,4,30,71,82,48.27999999999904,0.02,0.01,0.01,20,1,1,1,1557,1,1,1,4,0,18,6,Lc,0.03100834938985228,0.02,0.01,0.01
5,7,13,1,6,3.229999999999975,3,110,11,7,74,4,20.549999999999883,1.8900000000000015,5.9999999999999165,0.2800000000000001,7,4,10,2,702,67,203,8,6,0.5,39,6,Lc,0.029273504273504274,0.0282089552238806,0.02955665024630542,0.035
5,7,14,1,7,1.470000000000001,2,51,24,51,14,25,14.169999999999774,7.899999999999876,0.34000000000000014,1.300000000000001,9,7,2,3,475,284,14,49,6,0,21,6,Lc,0.02983157894736842,0.027816901408450705,0.024285714285714285,0.026530612244897958
5,8,15,1,4,1.380000000000001,2,46,108,52,59,73,16.389999999999727,3.4899999999999696,3.5899999999999674,2.099999999999999,12,3,3,3,548,114,128,65,2,0,13,6,Lc,0.02990875912408759,0.0306140350877193,0.028046875,0.03230769230769231
5,8,16,1,10,1.7400000000000013,2,61,87,90,96,93,18.389999999999805,2.439999999999992,0.36000000000000015,1.8300000000000014,6,3,2,3,601,81,15,64,3,1,36,6,Lc,0.03059900166389351,0.030123456790123456,0.024,0.02859375
5,9,17,1,1,1.490000000000001,20,48,1,75,43,6,36.460000000001614,0.01,0.05,0.09,20,1,2,2,1193,1,4,6,3,0,20,6,Lc,0.030561609388097235,0.01,0.0125,0.015
5,9,18,1,2,4.88999999999994,2,169,60,53,104,99,20.239999999999657,1.7900000000000014,4.609999999999946,0.5100000000000002,5,4,6,3,655,59,162,16,4,0,12,6,Lc,0.030900763358778626,0.030338983050847458,0.028456790123456793,0.031875
5,10,19,1,1,5.209999999999933,4,199,73,79,59,108,21.6299999999997,3.429999999999971,0.18000000000000002,2.2199999999999966,18,4,3,4,784,121,5,78,3,0,12,6,Lc,0.027589285714285715,0.02834710743801653,0.036,0.028461538461538462
5,10,20,1,9,1.6700000000000013,4,52,68,69,65,113,17.579999999999707,2.3799999999999932,4.979999999999938,1.5900000000000012,6,4,7,4,559,91,176,51,4,0.5,26,6,Lc,0.03144901610017889,0.026153846153846153,0.028295454545454547,0.031176470588235295
5,11,21,1,9,1.7200000000000013,2,63,69,65,1,30,19.09999999999992,1.5900000000000012,5.299999999999931,0.3300000000000001,4,2,8,3,665,53,177,12,4,0,19,6,Lc,0.028721804511278197,0.030000000000000002,0.029943502824858758,0.0275
5,11,22,1,7,0.8000000000000005,4,28,78,77,16,50,20.150000000000226,1.280000000000001,0.7200000000000004,0.2800000000000001,9,2,2,2,708,39,20,13,6,0,16,6,Lc,0.02846045197740113,0.03282051282051282,0.036000000000000004,0.021538461538461538
5,12,23,1,2,3.0599999999999787,2,101,59,50,107,90,20.639999999999926,3.93999999999996,0.34000000000000014,2.6499999999999875,6,5,3,6,675,137,7,90,4,0,13,6,Lc,0.030577777777777777,0.02875912408759124,0.04857142857142857,0.029444444444444443
5,12,24,1,9,1.370000000000001,2,42,66,74,48,5,18.42999999999987,5.699999999999923,2.629999999999988,1.5600000000000012,4,3,3,3,622,189,86,42,4,0,18,6,Lc,0.029630225080385854,0.03015873015873016,0.03058139534883721,0.037142857142857144
5,13,25,1,4,1.1900000000000008,4,42,105,107,36,67,19.630000000000084,2.579999999999989,1.9400000000000015,0.3000000000000001,6,2,3,3,622,87,58,12,2,0,13,6,Lc,0.031559485530546626,0.029655172413793104,0.033448275862068964,0.025
5,13,26,1,8,1.2300000000000009,2,43,114,116,112,77,19.59000000000007,0.9600000000000006,0.23000000000000007,1.360000000000001,4,2,3,5,647,30,10,50,2,0.5,15,6,Lc,0.03027820710973725,0.032,0.023,0.027200000000000002
5,14,27,1,8,1.9500000000000015,2,65,113,77,74,110,17.499999999999716,5.519999999999927,0.6600000000000004,0.09999999999999999,5,3,4,2,575,194,21,2,2,0,10,6,Lc,0.030434782608695653,0.02845360824742268,0.03142857142857143,0.05
5,14,28,1,6,4.2199999999999545,2,157,57,103,91,95,37.490000000001906,0.7600000000000005,0.01,0.12999999999999998,20,5,1,2,1258,23,1,4,6,0,12,6,Lc,0.02980127186009539,0.03304347826086956,0.01,0.0325
5,15,29,1,4,2.289999999999995,3,85,100,104,55,31,20.370000000000022,1.0500000000000007,4.559999999999947,1.390000000000001,5,2,7,4,671,39,153,50,2,0,13,6,Lc,0.030357675111773473,0.02692307692307692,0.02980392156862745,0.027800000000000002
5,15,30,1,6,0.9100000000000006,2,22,1,9,3,80,19.500000000000107,0.23000000000000007,1.1300000000000008,6.6599999999999024,11,2,3,3,641,6,35,235,6,0.5,39,6,Lc,0.030421216848673948,0.03833333333333334,0.032285714285714286,0.028340425531914893
5,16,31,1,3,1.370000000000001,2,47,26,36,29,33,18.24999999999984,0.6000000000000003,0.6200000000000003,2.6899999999999866,5,3,3,7,634,23,13,94,5,1,60,6,Lc,0.028785488958990538,0.026086956521739132,0.047692307692307694,0.028617021276595746
5,16,32,1,5,2.249999999999996,2,77,83,37,49,55,20.76000000000009,0.22000000000000006,1.450000000000001,0.4300000000000002,5,2,3,2,704,3,45,22,5,0,16,6,Lc,0.029488636363636363,0.07333333333333333,0.03222222222222222,0.019545454545454546
5,17,33,1,9,3.0599999999999787,2,107,77,72,107,99,24.69000000000056,2.429999999999992,0.9600000000000006,0.8600000000000005,10,7,2,3,829,91,36,31,4,0,11,6,Lc,0.029782870928829915,0.026703296703296703,0.02666666666666667,0.02774193548387097
5,17,34,1,8,0.25000000000000006,2,12,2,25,33,8,48.29999999999901,0.01,0.01,0.02,20,1,1,1,1622,1,1,1,2,0,22,6,Lc,0.029778051787916152,0.01,0.01,0.02
6,1,1,0,9,0.49000000000000027,2,8,61,65,46,40,3.069999999999989,0.3100000000000001,0.10999999999999999,0.9200000000000006,6,2,1,5,28,7,1,11,4,0,18,7,Lc,0.10964285714285715,0.04428571428571429,0.10999999999999999,0.08363636363636365
6,1,2,0,3,0.4000000000000002,2,6,29,36,53,27,2.3800000000000017,0.45000000000000023,0.24000000000000007,0.12999999999999998,4,2,2,1,28,7,2,1,5,0.5,34,7,Lc,0.085,0.06428571428571428,0.12000000000000002,0.12999999999999998
6,2,3,0,3,0.6000000000000003,2,7,54,27,98,100,2.3400000000000016,0.6300000000000003,0.5400000000000003,0.26000000000000006,4,2,3,2,20,6,7,3,5,0,13,7,Lc,0.11700000000000002,0.10500000000000001,0.07714285714285714,0.08666666666666667
6,2,4,0,9,0.4200000000000002,2,6,47,38,61,69,2.3200000000000016,0.4200000000000002,0.48000000000000026,0.17,6,2,2,2,24,2,6,4,4,0,18,7,Lc,0.09666666666666668,0.21000000000000005,0.07999999999999999,0.042499999999999996
6,3,5,0,1,0.9000000000000006,2,10,73,100,19,38,2.840000000000002,0.7600000000000005,0.13999999999999999,0.18000000000000002,4,2,1,2,28,9,1,4,3,0,16,7,Lc,0.10142857142857144,0.08444444444444445,0.13999999999999999,0.045
6,3,6,0,3,0.46000000000000024,2,6,35,36,28,120,1.9200000000000013,1.280000000000001,0.4200000000000002,1.6000000000000012,5,6,3,4,20,20,6,21,5,0.5,32,7,Lc,0.096,0.064,0.07,0.0761904761904762
6,4,7,0,10,0.46000000000000024,3,8,94,88,45,114,2.2000000000000015,0.38000000000000017,0.7900000000000005,0.19000000000000003,5,2,4,2,24,5,12,4,3,0,13,7,Lc,0.09166666666666667,0.076,0.06583333333333333,0.0475
6,4,8,0,2,0.7100000000000004,3,8,49,35,19,58,2.3500000000000014,0.9800000000000006,3.0299999999999794,0.02,6,2,5,1,26,7,31,1,4,0,19,7,Lc,0.0903846153846154,0.14,0.09774193548387097,0.02
6,5,9,0,2,0.5600000000000003,3,12,60,57,14,55,2.6399999999999997,0.9000000000000006,0.25000000000000006,0.09,6,2,2,2,36,6,2,3,4,0.5,30,7,Lc,0.07333333333333333,0.15,0.12499999999999997,0.03
6,5,10,0,8,0.6900000000000004,2,8,118,34,73,110,3.199999999999991,0.22000000000000006,0.08,0.18000000000000002,7,2,1,2,36,2,1,3,2,0,12,7,Lc,0.08888888888888889,0.10999999999999999,0.08,0.060000000000000005
6,6,11,0,1,0.6200000000000003,2,8,119,84,28,113,3.599999999999981,0.07,0.2700000000000001,0.22000000000000006,9,1,2,3,36,1,3,3,3,0,12,7,Lc,0.10000000000000002,0.07,0.09,0.07333333333333333
6,6,12,0,2,0.7000000000000004,2,11,50,19,17,102,2.939999999999997,0.2700000000000001,0.26000000000000006,0.24000000000000007,5,1,2,2,41,1,2,3,4,0,18,7,Lc,0.07170731707317074,0.2700000000000001,0.13000000000000003,0.08
6,7,13,1,9,0.3900000000000002,2,5,68,40,67,112,1.8400000000000012,1.0600000000000007,0.25000000000000006,0.10999999999999999,5,2,2,1,20,12,2,1,4,0,15,7,Lc,0.092,0.08833333333333333,0.12499999999999997,0.10999999999999999
6,7,14,1,4,0.3200000000000001,2,6,34,27,102,14,3.2999999999999807,0.16,0.35000000000000014,0.15,8,1,3,2,39,1,6,2,2,0,18,7,Lc,0.08461538461538462,0.16,0.05833333333333333,0.075
6,8,15,1,2,0.5500000000000003,2,4,32,31,113,30,3.759999999999976,0.3100000000000001,0.47000000000000025,0.060000000000000005,8,2,3,1,30,3,3,1,4,0.5,32,7,Lc,0.12533333333333335,0.10333333333333333,0.15666666666666673,0.060000000000000005
6,8,16,1,5,0.8400000000000005,2,13,44,14,70,106,2.730000000000002,0.7800000000000005,0.6500000000000004,0.09,4,4,2,2,41,7,5,2,5,0,17,7,Lc,0.06658536585365854,0.11142857142857143,0.13,0.045
6,9,17,1,1,0.48000000000000026,3,6,80,42,13,78,2.0900000000000016,1.5100000000000011,0.23000000000000007,0.09,6,6,2,2,21,19,6,2,3,0,17,7,Lc,0.09952380952380954,0.07947368421052632,0.03833333333333334,0.045
6,9,18,1,6,0.4400000000000002,2,8,2,10,9,118,2.99999999999999,0.3100000000000001,2.209999999999997,0.02,7,2,8,1,33,4,24,1,6,0.5,38,7,Lc,0.09090909090909093,0.0775,0.09208333333333335,0.02
6,10,19,1,9,0.5900000000000003,2,13,100,64,29,1,3.4499999999999833,0.5000000000000002,0.3300000000000001,0.5000000000000002,9,5,3,2,43,6,5,4,4,0,17,7,Lc,0.08023255813953489,0.08333333333333333,0.06599999999999999,0.12500000000000003
6,10,20,1,2,0.48000000000000026,3,6,59,52,120,58,2.929999999999992,0.3300000000000001,0.26000000000000006,0.12999999999999998,5,2,2,2,50,3,2,2,4,0.5,26,7,Lc,0.0586,0.11,0.13,0.065
6,11,21,1,2,0.5500000000000003,2,8,15,120,76,81,3.189999999999988,0.46000000000000024,0.3100000000000001,0.09,8,3,2,1,40,9,2,1,4,0,14,7,Lc,0.07975,0.05111111111111111,0.15500000000000003,0.09
6,11,22,1,5,0.24000000000000007,2,3,46,48,66,8,2.7699999999999902,0.07,1.1000000000000008,0.26000000000000006,9,1,3,2,32,1,8,2,5,0,20,7,Lc,0.0865625,0.07,0.13750000000000004,0.13
6,12,23,1,6,0.17,2,3,4,11,96,43,4.709999999999948,0.02,0.13999999999999999,0.060000000000000005,9,1,1,1,51,1,1,1,6,0,20,7,Lc,0.09235294117647061,0.02,0.13999999999999999,0.060000000000000005
6,12,24,1,9,0.19000000000000003,2,3,66,19,69,116,2.0100000000000016,1.310000000000001,0.10999999999999999,0.19000000000000003,7,2,2,2,19,17,2,4,4,0,16,7,Lc,0.10578947368421054,0.07705882352941176,0.05500000000000001,0.0475
6,13,25,1,10,0.38000000000000017,2,4,96,87,45,43,2.2600000000000016,0.6400000000000003,0.23000000000000007,0.3200000000000001,5,2,2,2,26,7,4,4,3,0,16,7,Lc,0.08692307692307692,0.09142857142857143,0.057499999999999996,0.08
6,13,26,1,3,0.2900000000000001,6,12,16,114,112,76,7.349999999999894,0.01,0.01,0.02,20,1,1,1,96,1,1,1,5,0,13,7,Lc,0.0765625,0.01,0.01,0.02
6,14,27,1,7,0.9400000000000006,2,20,19,63,16,61,3.000000000000001,0.7100000000000004,0.8600000000000005,1.0100000000000007,4,3,7,7,43,5,14,18,6,0,20,7,Lc,0.06976744186046512,0.14200000000000002,0.06142857142857143,0.05611111111111111
6,14,28,1,2,0.7000000000000004,6,13,103,53,94,102,3.3699999999999877,0.15,0.23000000000000007,0.35000000000000014,9,2,3,2,44,3,9,4,4,0,11,7,Lc,0.0765909090909091,0.05,0.025555555555555557,0.0875
6,15,29,1,8,0.5700000000000003,4,8,114,7,38,109,2.4400000000000017,0.7400000000000004,0.13999999999999999,0.18000000000000002,7,2,2,2,30,5,2,2,2,0,15,7,Lc,0.08133333333333334,0.14800000000000002,0.06999999999999999,0.09
6,15,30,1,3,0.6200000000000003,4,12,30,28,27,65,2.4600000000000017,0.3900000000000002,0.09,0.4400000000000002,6,2,1,2,24,5,1,2,5,0.5,34,7,Lc,0.10250000000000002,0.078,0.09,0.22000000000000003
6,16,31,1,10,0.7700000000000005,2,11,85,10,40,1,2.9799999999999973,0.2800000000000001,0.35000000000000014,0.37000000000000016,4,3,2,2,33,4,3,4,3,0,20,7,Lc,0.0903030303030303,0.06999999999999999,0.11666666666666665,0.09249999999999999
6,16,32,1,3,0.2700000000000001,2,7,25,30,61,13,1.720000000000001,0.9000000000000006,0.3100000000000001,0.4400000000000002,4,2,2,2,21,11,5,4,5,0,20,7,Lc,0.08190476190476191,0.08181818181818182,0.062,0.11000000000000001
6,17,33,1,5,0.5400000000000003,2,7,40,46,75,65,2.3000000000000016,0.6400000000000003,0.5900000000000003,0.09999999999999999,4,3,2,1,30,4,9,1,5,0,17,7,Lc,0.07666666666666667,0.16000000000000003,0.06555555555555555,0.09999999999999999
6,17,34,1,8,0.4200000000000002,2,5,109,86,111,90,2.869999999999992,0.48000000000000026,0.16,0.09,5,3,2,1,33,5,3,1,2,0,10,7,Lc,0.08696969696969697,0.096,0.05333333333333334,0.09
6,18,35,1,10,0.6400000000000003,2,9,87,92,104,72,2.600000000000002,0.9400000000000006,0.15,0.21000000000000005,4,2,1,3,29,8,1,5,3,0,12,7,Lc,0.0896551724137931,0.1175,0.15,0.041999999999999996
6,18,36,1,1,0.5900000000000003,4,10,11,59,117,84,2.899999999999995,4.269999999999953,0.01,0.02,8,7,1,1,31,40,1,1,3,0,15,7,Lc,0.09354838709677421,0.10675000000000001,0.01,0.02
6,19,37,1,7,0.34000000000000014,2,5,15,90,89,16,2.2400000000000015,0.6600000000000004,0.2700000000000001,0.22000000000000006,4,2,2,2,29,6,2,3,6,0,18,7,Lc,0.07724137931034483,0.11000000000000001,0.135,0.07333333333333333
6,19,38,1,8,0.5600000000000003,2,10,116,9,33,7,2.450000000000002,0.8500000000000005,1.0600000000000007,0.09,4,4,5,2,32,6,8,2,2,0,19,7,Lc,0.0765625,0.1416666666666667,0.1325,0.045
6,20,39,1,2,0.5400000000000003,2,8,58,47,53,84,2.0200000000000014,1.430000000000001,0.15,0.16,4,4,2,1,22,13,2,1,4,0,16,7,Lc,0.09181818181818183,0.11000000000000001,0.07500000000000001,0.16
6,20,40,1,9,0.5100000000000002,2,4,90,9,71,105,3.0399999999999903,0.38000000000000017,0.11999999999999998,0.11999999999999998,5,2,1,1,27,6,1,1,4,0,15,7,Lc,0.1125925925925926,0.06333333333333334,0.11999999999999998,0.11999999999999998
6,21,41,1,8,0.2700000000000001,2,3,110,65,27,76,2.839999999999989,0.20000000000000004,0.3200000000000001,0.2700000000000001,6,2,1,2,32,2,1,3,2,0,14,7,Lc,0.08875000000000001,0.1,0.3200000000000001,0.09
6,21,42,1,2,0.2700000000000001,2,2,15,44,90,102,7.139999999999898,0.01,0.01,0.03,12,1,1,2,76,1,1,2,4,0,16,7,Lc,0.09394736842105264,0.01,0.01,0.015
6,22,43,1,10,0.9800000000000006,8,17,86,13,27,106,3.1999999999999975,0.18000000000000002,0.6200000000000003,0.3100000000000001,10,1,2,3,45,1,9,3,3,0,16,7,Lc,0.07111111111111111,0.18000000000000002,0.06888888888888889,0.10333333333333335
6,22,44,1,6,0.5100000000000002,2,8,4,3,76,73,2.909999999999993,3.46999999999997,0.01,0.02,5,9,1,1,30,34,1,1,6,0,18,7,Lc,0.097,0.10205882352941177,0.01,0.02
7,1,1,0,6,0.5000000000000002,2,10,12,50,40,4,2.8499999999999943,1.320000000000001,0.17,0.15,4,2,2,2,64,32,3,4,6,0,21,7,Lc,0.04453125,0.04125,0.05666666666666667,0.0375
7,1,2,0,9,1.0000000000000007,2,26,68,65,72,107,3.6199999999999886,0.49000000000000027,0.11999999999999998,0.5600000000000003,4,2,2,3,102,14,3,17,4,0.5,26,7,Lc,0.035490196078431374,0.035,0.04,0.03294117647058824
7,2,3,0,1,0.22000000000000006,2,10,2,105,81,84,10.229999999999832,0.01,0.01,0.01,16,1,1,1,280,1,1,1,3,0,14,7,Lc,0.03653571428571429,0.01,0.01,0.01
7,2,4,0,9,1.1600000000000008,2,38,67,71,111,19,3.030000000000002,1.260000000000001,0.8200000000000005,0.7900000000000005,8,5,2,3,76,28,22,20,4,0,16,7,Lc,0.03986842105263158,0.045,0.03727272727272728,0.0395
7,3,5,0,10,1.280000000000001,2,38,95,97,14,53,2.7500000000000018,2.399999999999993,0.20000000000000004,0.2800000000000001,4,4,2,2,82,62,3,7,3,0,15,7,Lc,0.03353658536585366,0.03870967741935484,0.06666666666666667,0.04
7,3,6,0,3,1.1200000000000008,2,35,36,12,64,112,2.960000000000002,1.6800000000000013,0.4100000000000002,0.22000000000000006,4,2,2,2,83,39,11,9,5,0,17,7,Lc,0.03566265060240964,0.043076923076923075,0.03727272727272727,0.024444444444444446
7,4,7,0,6,1.350000000000001,2,34,6,90,9,1,4.059999999999987,1.0200000000000007,0.45000000000000023,0.7200000000000004,4,2,2,6,108,25,12,21,6,0.5,39,7,Lc,0.037592592592592594,0.040799999999999996,0.0375,0.03428571428571429
7,4,8,0,2,1.2000000000000008,2,31,54,114,13,27,2.650000000000002,1.380000000000001,0.48000000000000026,0.5300000000000002,4,2,3,4,67,28,10,18,4,0,17,7,Lc,0.03955223880597015,0.04928571428571429,0.048,0.029444444444444443
7,5,9,0,8,0.7900000000000005,2,20,110,21,25,20,3.299999999999991,0.3200000000000001,0.8500000000000005,0.09999999999999999,5,2,2,2,92,10,24,4,2,0,19,7,Lc,0.035869565217391305,0.032,0.035416666666666666,0.024999999999999998
7,5,10,0,5,0.20000000000000004,2,6,1,10,44,91,10.25999999999983,0.01,0.01,0.01,16,1,1,1,242,1,1,1,5,0,20,7,Lc,0.04239669421487603,0.01,0.01,0.01
7,6,11,0,9,1.400000000000001,2,43,69,20,104,31,4.169999999999986,0.6700000000000004,0.4200000000000002,0.7300000000000004,5,2,2,2,109,18,14,25,4,0,17,7,Lc,0.038256880733944953,0.03722222222222222,0.03,0.0292
7,6,12,0,2,0.8700000000000006,2,27,60,5,116,109,2.860000000000002,1.280000000000001,0.3000000000000001,0.18000000000000002,4,2,2,2,83,33,7,9,4,0,14,7,Lc,0.034457831325301204,0.03878787878787879,0.04285714285714286,0.02
7,7,13,1,4,0.11999999999999998,2,3,13,96,89,97,9.68999999999984,0.02,0.01,0.02,20,2,1,1,261,2,1,1,2,0,14,7,Lc,0.03712643678160919,0.01,0.01,0.02
7,7,14,1,6,1.270000000000001,3,36,11,10,43,118,3.6699999999999937,0.8200000000000005,4.6399999999999455,0.01,5,2,10,1,98,22,125,1,6,0,19,7,Lc,0.03744897959183673,0.03727272727272728,0.03712,0.01
7,8,15,1,9,1.2200000000000009,3,39,61,102,47,64,2.690000000000002,1.0400000000000007,0.8100000000000005,0.5600000000000003,5,2,2,2,83,26,17,21,4,0,15,7,Lc,0.032409638554216864,0.04,0.04764705882352941,0.02666666666666667
7,8,16,1,1,0.6700000000000004,4,17,83,79,77,120,2.9099999999999966,0.46000000000000024,0.4400000000000002,0.09,6,2,3,1,71,9,12,1,3,0.5,20,7,Lc,0.04098591549295775,0.05111111111111111,0.03666666666666667,0.09
7,9,17,1,8,1.8000000000000014,2,48,68,115,48,72,3.2000000000000024,0.3900000000000002,0.6300000000000003,0.6700000000000004,5,2,2,2,77,13,10,18,2,0,15,7,Lc,0.04155844155844156,0.030000000000000002,0.063,0.03722222222222222
7,9,18,1,2,1.1200000000000008,3,29,58,6,108,102,3.5999999999999917,0.5900000000000003,0.35000000000000014,0.34000000000000014,5,5,2,2,101,16,10,10,4,0,14,7,Lc,0.03564356435643564,0.036875,0.035,0.034
7,10,19,1,1,0.09,2,4,15,117,76,118,8.979999999999855,0.01,0.01,0.01,8,1,1,1,243,1,1,1,3,0,13,7,Lc,0.036954732510288066,0.01,0.01,0.01
7,10,20,1,6,1.2200000000000009,8,32,4,2,38,11,3.3999999999999986,5.619999999999925,0.01,0.060000000000000005,10,8,1,2,89,137,1,2,6,0.5,41,7,Lc,0.038202247191011236,0.04102189781021898,0.01,0.030000000000000002
7,11,21,1,9,1.330000000000001,2,36,72,81,84,69,3.340000000000002,0.7200000000000004,0.07,0.6000000000000003,4,2,1,3,88,12,1,15,4,0,14,7,Lc,0.037954545454545456,0.06000000000000001,0.07,0.04
7,11,22,1,10,0.7500000000000004,2,24,86,94,116,111,2.9399999999999977,0.37000000000000016,0.11999999999999998,0.20000000000000004,4,2,2,2,85,5,3,9,3,0,10,7,Lc,0.03458823529411765,0.074,0.04,0.022222222222222223
7,12,23,1,2,0.6300000000000003,2,20,92,54,85,56,3.029999999999993,0.3300000000000001,0.21000000000000005,0.17,4,2,3,2,83,7,5,4,4,0,14,7,Lc,0.03650602409638554,0.047142857142857146,0.042,0.042499999999999996
7,12,24,1,6,0.6700000000000004,2,17,10,80,43,12,3.1899999999999906,0.9600000000000006,1.9500000000000015,0.3200000000000001,4,3,6,6,83,17,49,11,6,0,20,7,Lc,0.03843373493975904,0.05647058823529412,0.03979591836734694,0.02909090909090909
7,13,25,1,5,0.25000000000000006,5,8,105,14,47,78,10.26999999999983,1.1200000000000008,0.03,0.01,20,17,1,1,257,25,1,1,5,0,16,7,Lc,0.039961089494163424,0.0448,0.03,0.01
7,13,26,1,6,0.5800000000000003,2,16,3,1,114,8,2.570000000000002,0.49000000000000027,0.8300000000000005,0.23000000000000007,4,2,4,2,76,14,22,8,6,0.5,38,7,Lc,0.03381578947368421,0.035,0.03772727272727273,0.02875
7,14,27,1,8,0.9300000000000006,4,27,119,120,70,40,3.3199999999999936,0.46000000000000024,0.7600000000000005,0.13999999999999999,6,2,4,2,89,9,22,5,2,0,13,7,Lc,0.037303370786516854,0.051111111111111114,0.034545454545454546,0.028
7,14,28,1,2,0.7200000000000004,2,24,59,51,28,58,3.0399999999999947,0.3000000000000001,0.7600000000000005,0.2800000000000001,4,4,2,4,80,13,19,7,4,0.5,29,7,Lc,0.038,0.023076923076923078,0.04,0.04
7,15,29,1,1,1.300000000000001,3,33,80,47,113,117,3.370000000000001,0.9500000000000006,0.15,0.6200000000000003,5,2,2,2,72,23,3,12,3,0,12,7,Lc,0.04680555555555556,0.041304347826086954,0.049999999999999996,0.051666666666666666
7,15,30,1,2,1.0400000000000007,3,27,52,51,13,29,3.0900000000000007,0.8000000000000005,1.8500000000000014,0.18000000000000002,5,4,7,3,75,27,42,9,4,0,19,7,Lc,0.0412,0.02962962962962963,0.04404761904761905,0.02
7,16,31,1,9,1.6500000000000012,2,38,71,70,1,8,3.8499999999999983,0.8600000000000005,0.46000000000000024,0.5300000000000002,4,3,2,2,96,25,9,14,4,0,20,7,Lc,0.04010416666666667,0.0344,0.051111111111111114,0.03785714285714286
7,16,32,1,10,0.6400000000000003,2,21,93,104,100,96,3.0499999999999927,7.399999999999887,0.37000000000000016,0.04,6,18,8,3,83,188,13,3,3,0,10,7,Lc,0.03674698795180723,0.039361702127659576,0.028461538461538462,0.013333333333333334
7,17,33,1,1,0.8500000000000005,2,23,73,1,75,76,3.5299999999999874,1.1200000000000008,0.21000000000000005,0.3000000000000001,4,4,3,6,101,31,8,11,3,0.5,24,7,Lc,0.034950495049504954,0.03612903225806452,0.026250000000000002,0.027272727272727275
7,17,34,1,10,1.360000000000001,3,37,89,61,64,92,3.3100000000000023,0.6800000000000004,0.4000000000000002,0.7100000000000004,6,2,2,3,83,13,9,26,3,0,14,7,Lc,0.039879518072289157,0.05230769230769232,0.044444444444444446,0.027307692307692307
7,18,35,1,4,0.8300000000000005,3,21,104,107,85,87,3.0799999999999965,0.48000000000000026,0.18000000000000002,0.17,7,2,3,2,87,12,5,5,2,0,10,7,Lc,0.035402298850574714,0.04,0.036000000000000004,0.034
7,18,36,1,8,1.280000000000001,2,32,62,8,48,3,4.659999999999973,0.6600000000000004,0.49000000000000027,0.22000000000000006,9,3,3,3,110,18,11,5,2,0,21,7,Lc,0.04236363636363637,0.03666666666666667,0.04454545454545455,0.044
7,19,37,1,5,1.8800000000000014,20,56,46,39,52,41,4.199999999999996,0.2800000000000001,0.26000000000000006,0.060000000000000005,20,3,2,2,115,7,8,4,5,0.5,34,7,Lc,0.036521739130434785,0.04,0.0325,0.015
7,19,38,1,1,0.8700000000000006,3,22,81,69,63,82,2.870000000000002,1.0800000000000007,0.34000000000000014,0.13999999999999999,5,2,4,2,84,25,11,5,3,0,14,7,Lc,0.034166666666666665,0.0432,0.03090909090909091,0.028
7,20,39,1,7,0.48000000000000026,2,12,23,22,13,17,2.5899999999999994,0.45000000000000023,4.749999999999943,0.2900000000000001,4,2,7,3,63,13,115,6,6,1,72,7,Lc,0.04111111111111111,0.03461538461538462,0.04130434782608696,0.04833333333333333
7,20,40,1,6,0.8900000000000006,2,27,10,9,11,67,3.1499999999999964,0.45000000000000023,0.6300000000000003,0.48000000000000026,7,2,5,3,89,21,14,15,6,0.5,40,7,Lc,0.03539325842696629,0.02142857142857143,0.045,0.032
7,21,41,1,5,0.7400000000000004,2,21,42,40,103,99,2.7700000000000014,1.0400000000000007,0.5300000000000002,0.4000000000000002,4,2,3,4,61,31,13,9,5,0,14,7,Lc,0.04540983606557377,0.03354838709677419,0.04076923076923077,0.044444444444444446
7,21,42,1,1,0.9400000000000006,4,27,75,64,110,62,3.689999999999986,0.7300000000000004,0.7300000000000004,0.09,8,2,6,2,107,19,19,3,3,0,13,7,Lc,0.03448598130841121,0.038421052631578946,0.038421052631578946,0.030000000000000002
8,1,1,0,8,2.4999999999999907,2,39,117,58,115,26,3.6599999999999913,2.849999999999983,0.37000000000000016,2.53999999999999,5,3,2,2,49,33,5,34,2,0,13,7,Lc,0.07469387755102042,0.08636363636363638,0.074,0.07470588235294118
8,1,2,0,6,1.260000000000001,2,15,6,2,44,66,3.230000000000002,12.069999999999787,0.01,0.01,4,12,1,1,39,142,1,1,6,0,21,7,Lc,0.08282051282051282,0.085,0.01,0.01
8,2,3,0,7,1.460000000000001,3,19,22,40,24,18,4.369999999999983,0.6000000000000003,8.569999999999862,0.05,7,3,6,2,59,6,109,2,6,0.5,41,7,Lc,0.07406779661016949,0.10000000000000002,0.07862385321100918,0.025
8,2,4,0,4,1.5300000000000011,2,26,102,28,76,106,4.4399999999999835,2.4499999999999917,0.3300000000000001,0.35000000000000014,4,2,2,3,66,31,3,8,2,0,12,7,Lc,0.06727272727272728,0.07903225806451614,0.11000000000000001,0.04375
8,3,5,0,1,1.0200000000000007,3,17,78,116,26,110,2.740000000000002,2.2199999999999966,0.5600000000000003,0.8700000000000006,5,2,2,2,31,24,12,12,3,0,12,7,Lc,0.08838709677419355,0.09250000000000001,0.04666666666666666,0.0725
8,3,6,0,4,0.6500000000000004,2,10,105,106,42,43,3.3699999999999863,0.36000000000000015,1.7400000000000013,0.5800000000000003,4,2,2,2,41,7,21,6,2,0,14,7,Lc,0.08219512195121952,0.05142857142857143,0.08285714285714287,0.09666666666666665
8,4,7,0,9,1.9400000000000015,20,31,66,65,62,19,3.3300000000000027,0.3200000000000001,1.5100000000000011,7.379999999999887,20,1,7,8,49,1,22,88,4,0.5,30,7,Lc,0.06795918367346938,0.3200000000000001,0.06863636363636363,0.08386363636363636
8,4,8,0,3,0.7100000000000004,2,9,30,26,112,78,3.119999999999993,1.280000000000001,0.3300000000000001,1.360000000000001,4,2,1,3,41,15,2,22,5,0,15,7,Lc,0.07609756097560975,0.08533333333333334,0.165,0.06181818181818182
8,5,9,0,4,0.6500000000000004,2,7,100,101,103,105,4.059999999999972,0.24000000000000007,1.1600000000000008,1.450000000000001,8,1,5,5,55,1,12,21,2,1,24,7,Lc,0.07381818181818182,0.24000000000000007,0.09666666666666669,0.06904761904761905
8,5,10,0,9,0.6900000000000004,3,6,66,69,17,15,3.9799999999999742,0.19000000000000003,1.400000000000001,0.3200000000000001,5,2,3,2,46,3,19,3,4,0,20,7,Lc,0.08652173913043479,0.06333333333333334,0.0736842105263158,0.10666666666666666
8,6,11,0,10,0.7400000000000004,2,10,85,96,72,66,3.2399999999999913,0.5000000000000002,0.5600000000000003,0.35000000000000014,5,4,2,2,39,7,3,5,3,0,14,7,Lc,0.08307692307692308,0.07142857142857142,0.18666666666666673,0.07
8,6,12,0,1,0.6300000000000003,2,11,81,36,32,74,3.1099999999999914,2.239999999999996,0.19000000000000003,0.25000000000000006,4,8,1,2,43,37,1,4,3,0,16,7,Lc,0.07232558139534885,0.06054054054054054,0.19000000000000003,0.0625
8,7,13,1,9,0.9200000000000006,11,14,31,66,72,111,7.399999999999907,0.04,0.3200000000000001,0.25000000000000006,14,1,3,2,83,1,5,5,4,0,15,7,Lc,0.0891566265060241,0.04,0.064,0.05
8,7,14,1,4,0.6900000000000004,2,9,108,1,85,101,3.3499999999999877,8.399999999999865,0.01,0.01,7,3,1,1,40,103,1,1,2,0,13,7,Lc,0.08375,0.08155339805825243,0.01,0.01
8,8,15,1,10,1.1200000000000008,2,14,88,63,8,64,3.0600000000000023,2.0500000000000003,0.9400000000000006,0.13999999999999999,5,2,2,1,38,23,11,1,3,0,17,7,Lc,0.08052631578947368,0.08913043478260871,0.08545454545454545,0.13999999999999999
8,8,16,1,1,1.1000000000000008,3,20,74,81,76,24,2.7500000000000018,0.6500000000000004,1.7000000000000013,3.559999999999968,6,3,6,11,36,8,18,42,3,0.5,24,7,Lc,0.0763888888888889,0.08125,0.09444444444444444,0.08476190476190476
8,9,17,1,2,1.0300000000000007,2,14,53,6,57,60,3.3399999999999954,6.689999999999902,0.060000000000000005,0.01,6,4,2,1,42,76,2,1,4,0.5,30,7,Lc,0.07952380952380952,0.08802631578947369,0.03,0.01
8,9,18,1,5,0.46000000000000024,2,7,41,72,47,43,1.620000000000001,3.329999999999973,0.22000000000000006,0.49000000000000027,5,9,2,4,25,45,4,12,5,0.5,34,7,Lc,0.0648,0.07400000000000001,0.05500000000000001,0.04083333333333333
8,10,19,1,3,1.0800000000000007,2,19,28,32,94,111,3.7599999999999874,0.5900000000000003,0.8900000000000006,0.8000000000000005,4,2,2,2,57,8,11,14,5,0,15,7,Lc,0.06596491228070175,0.07375,0.08090909090909092,0.05714285714285714
8,10,20,1,7,0.7100000000000004,2,7,18,14,24,22,2.4600000000000017,10.429999999999822,0.13999999999999999,0.01,4,7,2,1,27,129,2,1,6,1,72,7,Lc,0.09111111111111111,0.08085271317829458,0.06999999999999999,0.01
8,11,21,1,3,2.6399999999999877,4,33,29,109,35,95,6.059999999999959,0.21000000000000005,0.5100000000000002,0.3200000000000001,6,1,2,3,79,1,4,3,5,0,15,7,Lc,0.07670886075949368,0.21000000000000005,0.1275,0.10666666666666666
8,11,22,1,5,1.320000000000001,2,18,41,37,104,44,3.519999999999998,0.6300000000000003,1.9600000000000015,0.3300000000000001,4,2,2,2,47,13,26,5,5,0.5,32,7,Lc,0.0748936170212766,0.04846153846153846,0.07538461538461538,0.066
8,12,23,1,4,1.0300000000000007,2,9,106,101,46,5,4.749999999999965,0.5400000000000003,1.410000000000001,1.0000000000000007,8,3,7,4,61,7,18,9,2,0,15,7,Lc,0.0778688524590164,0.07714285714285715,0.07833333333333334,0.11111111111111113
8,12,24,1,7,0.9200000000000006,7,20,15,13,95,21,2.9400000000000013,10.699999999999816,0.01,0.01,9,9,1,1,36,125,1,1,6,0.5,39,7,Lc,0.08166666666666668,0.08560000000000001,0.01,0.01
8,13,25,1,5,0.9300000000000006,2,9,43,46,11,119,3.48999999999999,0.9700000000000006,1.0200000000000007,1.7500000000000013,4,2,2,2,44,15,9,19,5,0,18,7,Lc,0.07931818181818183,0.06466666666666666,0.11333333333333334,0.09210526315789475
8,13,26,1,3,0.4300000000000002,4,8,15,108,31,17,14.979999999999734,0.01,0.01,0.03,19,1,1,2,199,1,1,2,5,0,19,7,Lc,0.07527638190954775,0.01,0.01,0.015
8,14,27,1,4,0.9300000000000006,2,8,102,4,101,108,3.9899999999999793,1.7000000000000013,0.2900000000000001,0.26000000000000006,4,2,2,2,40,20,4,4,2,0.5,18,7,Lc,0.09975,0.085,0.0725,0.065
8,14,28,1,10,0.3200000000000001,6,6,14,23,35,21,13.279999999999768,0.01,0.01,0.5600000000000003,19,1,1,5,172,1,1,7,3,0.5,41,7,Lc,0.0772093023255814,0.01,0.01,0.08
8,15,29,1,10,0.4200000000000002,2,5,88,91,85,49,2.4200000000000017,1.430000000000001,0.2800000000000001,3.619999999999967,4,2,2,4,29,19,4,47,3,0.5,22,7,Lc,0.08344827586206897,0.07526315789473684,0.06999999999999999,0.07702127659574469
8,15,30,1,9,1.0700000000000007,3,20,61,1,7,66,3.439999999999994,1.1100000000000008,0.12999999999999998,0.19000000000000003,5,2,1,1,58,15,1,1,4,0,20,7,Lc,0.05931034482758621,0.074,0.12999999999999998,0.19000000000000003
8,16,31,1,1,0.6900000000000004,2,18,79,75,35,27,3.4099999999999864,0.22000000000000006,1.8600000000000014,0.9600000000000006,4,2,5,7,58,3,22,12,3,0,16,7,Lc,0.05879310344827587,0.07333333333333333,0.08454545454545455,0.08
8,16,32,1,2,1.1200000000000008,2,13,52,104,56,108,4.9199999999999635,1.8000000000000014,0.4400000000000002,0.5200000000000002,6,4,2,4,57,30,6,6,4,0,12,7,Lc,0.08631578947368422,0.06,0.07333333333333333,0.08666666666666667
8,17,33,1,8,1.0700000000000007,2,18,115,110,116,81,3.5699999999999914,0.6400000000000003,0.6400000000000003,0.9100000000000006,4,2,2,2,52,9,11,9,2,0.5,15,7,Lc,0.06865384615384616,0.07111111111111111,0.05818181818181818,0.10111111111111112
8,17,34,1,4,1.470000000000001,2,29,101,103,55,102,4.1699999999999875,0.6900000000000004,0.9700000000000006,0.6500000000000004,4,5,5,2,61,13,11,6,2,0.5,16,7,Lc,0.06836065573770492,0.05307692307692308,0.0881818181818182,0.10833333333333332
8,18,35,1,9,0.7700000000000005,2,15,64,12,70,102,2.370000000000002,2.3699999999999934,0.5600000000000003,0.2700000000000001,4,2,2,2,41,27,6,3,4,0,16,7,Lc,0.05780487804878049,0.08777777777777779,0.09333333333333335,0.09
8,18,36,1,5,0.8000000000000005,2,10,47,59,49,39,3.3099999999999907,1.2100000000000009,0.7000000000000004,0.9500000000000006,4,3,2,2,46,17,7,8,5,0,18,7,Lc,0.07195652173913043,0.07117647058823529,0.09999999999999999,0.11875000000000002
8,19,37,1,10,1.0600000000000007,2,18,91,95,94,10,3.5999999999999908,0.7200000000000004,0.8000000000000005,1.1500000000000008,4,4,4,6,53,14,15,18,3,0.5,24,7,Lc,0.06792452830188679,0.05142857142857143,0.05333333333333333,0.06388888888888888
8,19,38,1,1,0.9400000000000006,2,17,78,105,42,37,4.199999999999975,1.7900000000000014,0.5000000000000002,0.4400000000000002,5,2,2,2,51,21,11,7,3,0,15,7,Lc,0.0823529411764706,0.08523809523809524,0.045454545454545456,0.06285714285714285
8,20,39,1,4,1.2500000000000009,2,16,102,51,55,77,3.679999999999993,1.1400000000000008,1.1500000000000008,0.25000000000000006,4,3,5,2,58,10,16,3,2,0,13,7,Lc,0.06344827586206897,0.11400000000000002,0.07187500000000001,0.08333333333333333
8,20,40,1,8,0.8700000000000006,2,11,113,117,86,46,3.709999999999984,0.5200000000000002,0.5800000000000003,2.9399999999999813,4,2,3,2,51,10,8,39,2,0,12,7,Lc,0.0727450980392157,0.052,0.07250000000000001,0.0753846153846154
8,21,41,1,5,1.1000000000000008,2,13,39,42,104,64,4.059999999999982,0.9000000000000006,1.1300000000000008,0.25000000000000006,4,2,3,2,53,11,12,3,5,0,16,7,Lc,0.07660377358490567,0.08181818181818183,0.09416666666666668,0.08333333333333333
8,21,42,1,3,0.8500000000000005,3,16,28,49,26,53,3.2399999999999936,0.8300000000000005,0.17,0.2800000000000001,5,4,1,2,51,10,1,3,5,0,18,7,Lc,0.06352941176470588,0.083,0.17,0.09333333333333332
9,1,1,0,8,1.1500000000000008,2,45,113,109,37,45,3.0600000000000023,0.5400000000000003,0.3100000000000001,0.3000000000000001,4,2,3,3,108,20,12,9,2,0,14,7,Lc,0.028333333333333335,0.027,0.025833333333333333,0.03333333333333333
9,1,2,0,3,1.0800000000000007,20,41,29,33,7,77,3.399999999999995,0.5600000000000003,3.239999999999975,0.9000000000000006,20,2,3,11,124,20,96,35,5,0,19,7,Lc,0.027419354838709678,0.028,0.03375,0.025714285714285714
9,2,3,0,3,1.0100000000000007,2,34,32,7,5,3,2.4400000000000017,1.260000000000001,0.2700000000000001,0.11999999999999998,4,2,2,2,82,33,6,4,5,0.5,41,7,Lc,0.029756097560975612,0.03818181818181818,0.045,0.030000000000000002
9,2,4,0,9,1.0900000000000007,2,29,72,108,38,100,2.4600000000000017,1.280000000000001,0.3300000000000001,0.3200000000000001,6,2,2,2,81,44,8,8,4,0,13,7,Lc,0.03037037037037037,0.02909090909090909,0.04125,0.04
9,3,5,0,3,1.0900000000000007,2,37,30,28,68,16,3.459999999999994,0.12999999999999998,0.7200000000000004,0.07,4,2,2,1,116,5,27,1,5,0,20,7,Lc,0.02982758620689655,0.026,0.02666666666666667,0.07
9,3,6,0,5,1.410000000000001,2,40,41,42,51,99,2.570000000000002,1.470000000000001,0.5600000000000003,0.20000000000000004,4,3,2,2,88,61,29,7,5,0,16,7,Lc,0.029204545454545455,0.024098360655737706,0.019310344827586208,0.028571428571428574
9,4,7,0,2,1.400000000000001,2,52,54,112,59,120,2.7100000000000017,2.429999999999992,0.04,0.03,4,2,2,1,84,85,2,1,4,0,12,7,Lc,0.03226190476190476,0.028588235294117647,0.02,0.03
9,4,8,0,3,1.0200000000000007,5,39,28,15,19,67,3.0900000000000007,0.7900000000000005,0.34000000000000014,0.12999999999999998,7,2,2,2,107,28,11,4,5,0,21,7,Lc,0.028878504672897196,0.028214285714285716,0.03090909090909091,0.0325
9,5,9,0,8,0.6700000000000004,2,18,111,116,60,117,2.8799999999999972,0.4400000000000002,0.38000000000000017,0.37000000000000016,4,2,2,2,92,19,10,14,2,0.5,16,7,Lc,0.03130434782608696,0.023157894736842106,0.038,0.026428571428571426
9,5,10,0,9,1.1200000000000008,2,34,66,107,98,105,3.0800000000000023,0.6900000000000004,0.2900000000000001,0.09,4,2,2,2,102,28,10,6,4,0.5,16,7,Lc,0.03019607843137255,0.024642857142857143,0.028999999999999998,0.015
9,6,11,0,5,0.9100000000000006,2,33,39,45,44,109,2.330000000000002,0.5800000000000003,0.38000000000000017,0.37000000000000016,4,4,2,3,87,18,14,13,5,0.5,32,7,Lc,0.0267816091954023,0.03222222222222222,0.027142857142857142,0.028461538461538462
9,6,12,0,10,1.0400000000000007,2,31,87,58,50,49,2.2300000000000013,1.6200000000000012,0.36000000000000015,0.5200000000000002,5,5,2,3,69,45,11,16,3,0.5,27,7,Lc,0.03231884057971014,0.036000000000000004,0.03272727272727273,0.0325
9,7,13,1,9,0.6300000000000003,18,23,61,67,70,66,2.3000000000000016,0.5300000000000002,0.46000000000000024,0.3900000000000002,20,2,4,4,73,17,16,16,4,1,48,7,Lc,0.031506849315068496,0.031176470588235295,0.02875,0.024375
9,7,14,1,2,1.0100000000000007,2,34,51,109,110,59,2.3400000000000016,1.8600000000000014,0.18000000000000002,0.03,4,2,2,1,68,51,5,1,4,0,12,7,Lc,0.03441176470588236,0.036470588235294116,0.036,0.03
9,8,15,1,6,0.17,2,7,2,4,53,7,2.789999999999988,0.02,0.12999999999999998,0.23000000000000007,4,1,1,3,98,1,2,11,6,0.5,40,7,Lc,0.028469387755102042,0.02,0.065,0.02090909090909091
9,8,16,1,10,0.6900000000000004,2,20,87,94,22,116,2.3400000000000016,0.11999999999999998,1.460000000000001,0.07,4,2,5,1,71,5,42,1,3,0,14,7,Lc,0.03295774647887324,0.024,0.034761904761904765,0.07
9,9,17,1,3,0.6200000000000003,2,19,26,28,53,58,2.4400000000000017,0.09,0.6600000000000004,0.4300000000000002,4,2,2,2,86,5,17,12,5,0,18,7,Lc,0.028372093023255815,0.018000000000000002,0.03882352941176471,0.035833333333333335
9,9,18,1,5,0.2700000000000001,10,10,6,43,48,92,6.729999999999907,0.01,0.01,0.03,13,1,1,1,218,1,1,1,5,0,19,7,Lc,0.030871559633027523,0.01,0.01,0.03
9,10,19,1,6,1.7600000000000013,20,66,11,102,12,8,3.2000000000000024,0.45000000000000023,0.11999999999999998,0.5400000000000003,20,2,2,2,114,13,6,15,6,0.5,38,7,Lc,0.028070175438596492,0.03461538461538461,0.02,0.036
9,10,20,1,7,0.8500000000000005,2,29,22,19,17,24,2.410000000000002,0.6100000000000003,2.3299999999999943,0.02,4,2,6,1,72,19,77,1,6,1,72,7,Lc,0.03347222222222222,0.03210526315789474,0.03025974025974026,0.02
9,11,21,1,8,1.1400000000000008,3,44,112,89,96,32,2.600000000000002,1.500000000000001,0.26000000000000006,0.18000000000000002,5,3,2,3,88,49,10,7,2,0,13,7,Lc,0.029545454545454545,0.030612244897959183,0.026,0.025714285714285714
9,11,22,1,5,0.9600000000000006,3,42,43,38,45,100,2.560000000000002,3.139999999999977,0.01,0.03,8,5,1,1,100,113,1,1,5,0.5,32,7,Lc,0.0256,0.027787610619469025,0.01,0.03
9,12,23,1,4,1.2400000000000009,5,44,107,4,55,108,2.6700000000000017,1.0900000000000007,0.35000000000000014,0.08,8,2,2,2,96,38,11,5,2,0,14,7,Lc,0.0278125,0.02868421052631579,0.03181818181818182,0.016
9,12,24,1,7,0.6600000000000004,3,26,24,17,117,44,2.450000000000002,0.24000000000000007,2.109999999999999,0.2800000000000001,5,2,6,4,88,9,69,6,6,0,19,7,Lc,0.02784090909090909,0.02666666666666667,0.030579710144927538,0.04666666666666666
9,13,25,1,9,0.6700000000000004,2,17,63,64,62,20,2.3600000000000017,0.4300000000000002,0.6800000000000004,0.26000000000000006,5,4,5,4,67,19,25,11,4,0.5,30,7,Lc,0.03522388059701492,0.022631578947368423,0.027200000000000002,0.023636363636363636
9,13,26,1,10,0.5900000000000003,2,21,85,92,120,115,2.2300000000000013,0.25000000000000006,0.6800000000000004,0.15,4,2,5,2,70,5,24,8,3,0,10,7,Lc,0.031857142857142855,0.05,0.028333333333333335,0.01875
9,14,27,1,7,0.6800000000000004,2,25,108,20,106,17,2.530000000000002,0.3100000000000001,0.19000000000000003,0.20000000000000004,6,3,2,3,98,7,5,7,6,0,16,7,Lc,0.025816326530612246,0.04428571428571429,0.038,0.02857142857142857
9,14,28,1,5,0.7200000000000004,20,26,65,10,2,7,6.389999999999924,0.09999999999999999,0.03,0.060000000000000005,20,3,2,3,212,6,2,4,5,0.5,40,7,Lc,0.030141509433962266,0.016666666666666666,0.015,0.015
9,15,29,1,9,0.9100000000000006,2,38,68,69,66,14,2.6300000000000017,0.5300000000000002,0.35000000000000014,0.5400000000000003,7,5,4,2,106,17,11,16,4,0.5,30,7,Lc,0.02481132075471698,0.031176470588235295,0.031818181818181815,0.03375
9,15,30,1,2,0.7800000000000005,3,28,58,56,7,101,2.2100000000000017,0.47000000000000025,0.7600000000000005,0.23000000000000007,6,2,2,2,74,18,24,11,4,0,16,7,Lc,0.029864864864864865,0.026111111111111113,0.03166666666666667,0.02090909090909091
9,16,31,1,8,0.5400000000000003,4,20,113,111,116,16,2.1000000000000014,0.3100000000000001,0.4300000000000002,0.45000000000000023,6,2,3,2,70,13,12,15,2,0.5,18,7,Lc,0.030000000000000002,0.023846153846153847,0.035833333333333335,0.030000000000000002
9,16,32,1,5,0.5600000000000003,3,20,37,100,1,42,3.0199999999999916,0.09,0.3300000000000001,0.05,5,2,2,2,112,7,9,3,5,0,18,7,Lc,0.026964285714285715,0.012857142857142857,0.03666666666666667,0.016666666666666666
9,17,33,1,10,1.1700000000000008,2,38,95,92,101,106,3.1000000000000023,0.19000000000000003,0.20000000000000004,0.47000000000000025,6,3,5,5,94,7,8,8,3,0,10,7,Lc,0.03297872340425532,0.027142857142857142,0.025,0.05875
9,17,34,1,9,0.6400000000000003,3,22,64,62,120,9,2.450000000000002,0.07,0.9300000000000006,0.11999999999999998,5,2,2,2,84,3,25,5,4,0,16,7,Lc,0.029166666666666667,0.023333333333333334,0.037200000000000004,0.024
9,18,35,1,2,0.4300000000000002,3,15,52,56,81,5,1.9000000000000012,0.38000000000000017,1.2400000000000009,0.20000000000000004,5,2,2,3,63,15,35,4,4,0,17,7,Lc,0.03015873015873016,0.025333333333333333,0.03542857142857143,0.05
9,18,36,1,5,0.7700000000000005,2,27,39,41,47,111,2.2000000000000015,0.8600000000000005,0.23000000000000007,0.3300000000000001,4,2,4,2,75,42,7,14,5,0.5,32,7,Lc,0.029333333333333333,0.020476190476190478,0.032857142857142856,0.023571428571428573
9,19,37,1,4,0.5100000000000002,7,17,102,106,47,48,1.8200000000000012,0.8600000000000005,0.8400000000000005,0.3000000000000001,9,4,5,4,65,25,31,11,2,0,14,7,Lc,0.028,0.0344,0.027096774193548386,0.027272727272727275
9,19,38,1,7,0.09,2,5,17,23,20,110,2.2699999999999974,0.060000000000000005,0.36000000000000015,0.7100000000000004,4,2,4,2,78,3,10,20,6,0.5,38,7,Lc,0.029102564102564104,0.02,0.036,0.035500000000000004
9,20,39,1,7,0.5100000000000002,10,20,23,24,18,16,2.5700000000000003,0.07,0.26000000000000006,1.6200000000000012,12,2,3,12,95,3,9,57,6,1,72,7,Lc,0.02705263157894737,0.023333333333333334,0.02888888888888889,0.028421052631578948
9,20,40,1,6,1.420000000000001,2,44,9,6,2,5,2.7500000000000018,1.1600000000000008,0.49000000000000027,0.7700000000000005,5,10,2,6,88,40,16,35,6,1,72,7,Lc,0.03125,0.029,0.030625,0.022
9,21,41,1,4,0.46000000000000024,2,18,102,101,73,47,1.7600000000000011,1.400000000000001,0.11999999999999998,0.38000000000000017,9,4,4,3,49,49,7,12,2,0,12,7,Lc,0.035918367346938776,0.02857142857142857,0.017142857142857144,0.03166666666666667
9,21,42,1,6,1.0000000000000007,2,36,3,5,10,8,3.08,0.23000000000000007,0.4200000000000002,0.5300000000000002,12,3,5,6,92,9,11,17,6,1,72,7,Lc,0.03347826086956522,0.025555555555555557,0.038181818181818185,0.031176470588235295
10,1,1,0,7,1.6500000000000012,2,13,23,120,119,57,3.1600000000000024,0.8300000000000005,1.1500000000000008,0.18000000000000002,4,2,3,1,27,6,18,1,6,0,14,7,Lc,0.11703703703703705,0.13833333333333334,0.06388888888888888,0.18000000000000002
10,1,2,0,4,1.2500000000000009,2,11,102,74,104,70,3.689999999999993,0.6800000000000004,1.330000000000001,0.23000000000000007,4,2,4,2,29,4,14,3,2,0,11,7,Lc,0.12724137931034485,0.17,0.095,0.07666666666666667
10,2,3,0,3,0.8200000000000005,2,9,30,104,70,103,3.1399999999999952,1.2500000000000009,0.47000000000000025,0.24000000000000007,5,2,2,2,37,10,3,3,5,0,13,7,Lc,0.08486486486486487,0.12500000000000003,0.15666666666666668,0.08000000000000002
10,2,4,0,5,1.5700000000000012,2,21,38,19,77,21,3.3100000000000023,1.2200000000000009,0.9100000000000006,0.5900000000000003,4,2,2,2,35,11,9,8,5,0,20,7,Lc,0.09457142857142858,0.11090909090909094,0.10111111111111112,0.07375
10,3,5,0,7,0.7700000000000005,3,10,17,18,15,77,3.3399999999999896,0.34000000000000014,6.2799999999999105,0.01,5,2,6,1,37,3,61,1,6,0.5,39,7,Lc,0.09027027027027028,0.11333333333333336,0.10295081967213116,0.01
10,3,6,0,3,1.290000000000001,2,20,33,25,30,103,3.8899999999999895,0.7200000000000004,0.8100000000000005,0.4300000000000002,4,4,5,3,51,7,6,5,5,0.5,32,7,Lc,0.07627450980392157,0.10285714285714286,0.13500000000000004,0.08600000000000001
10,4,7,0,10,0.6700000000000004,3,12,88,93,97,106,2.8299999999999983,1.0700000000000007,0.3000000000000001,0.35000000000000014,5,5,3,2,35,16,5,6,3,0,10,7,Lc,0.08085714285714286,0.066875,0.06,0.05833333333333334
10,4,8,0,8,1.1800000000000008,3,18,115,29,81,84,2.580000000000002,2.010000000000001,0.17,0.3900000000000002,5,3,2,3,34,20,2,6,2,0,13,7,Lc,0.07588235294117648,0.10050000000000002,0.08499999999999999,0.06499999999999999
10,5,9,0,9,0.6500000000000004,2,8,68,13,69,97,2.2600000000000016,1.7800000000000014,0.16,1.300000000000001,4,2,1,6,26,19,1,11,4,0,16,7,Lc,0.08692307692307694,0.0936842105263158,0.16,0.1181818181818182
10,5,10,0,1,1.0300000000000007,2,13,73,77,80,117,3.3399999999999954,0.2900000000000001,0.5900000000000003,0.5700000000000003,5,1,4,5,39,1,5,9,3,0.5,20,7,Lc,0.08564102564102564,0.2900000000000001,0.11800000000000001,0.06333333333333332
10,6,11,0,7,0.6100000000000003,2,10,18,15,85,23,2.650000000000001,11.419999999999801,0.17,0.01,5,18,2,1,42,122,2,1,6,0.5,39,7,Lc,0.0630952380952381,0.09360655737704919,0.085,0.01
10,6,12,0,1,0.5600000000000003,2,6,81,79,77,65,2.62,0.5100000000000002,1.0000000000000007,0.9700000000000006,4,3,11,2,20,5,14,16,3,0.5,22,7,Lc,0.13100000000000003,0.102,0.07142857142857144,0.060625000000000005
10,7,13,1,7,1.0500000000000007,2,18,23,107,14,93,2.1300000000000017,4.399999999999951,0.19000000000000003,0.13999999999999999,6,7,2,3,25,36,2,3,6,0,17,7,Lc,0.08520000000000001,0.12222222222222225,0.095,0.04666666666666666
10,7,14,1,6,0.9900000000000007,2,14,7,75,1,6,2.820000000000002,1.430000000000001,0.37000000000000016,0.9000000000000006,4,5,2,5,37,14,5,13,6,0.5,39,7,Lc,0.07621621621621621,0.10214285714285716,0.074,0.06923076923076923
10,8,15,1,8,0.5100000000000002,2,9,115,109,114,88,1.8400000000000012,0.8800000000000006,0.21000000000000005,2.53999999999999,4,2,1,2,26,17,1,26,2,0.5,15,7,Lc,0.07076923076923078,0.05176470588235295,0.21000000000000005,0.0976923076923077
10,8,16,1,4,0.6900000000000004,2,8,104,63,61,98,3.3199999999999883,0.8600000000000005,0.47000000000000025,0.10999999999999999,5,2,4,1,30,9,7,1,2,0,12,7,Lc,0.11066666666666668,0.09555555555555556,0.06714285714285714,0.10999999999999999
10,9,17,1,5,1.1100000000000008,2,15,37,44,66,91,2.3400000000000016,0.8000000000000005,1.2200000000000009,1.6800000000000013,4,4,2,4,27,11,12,22,5,0,17,7,Lc,0.08666666666666667,0.07272727272727272,0.10166666666666667,0.07636363636363636
10,9,18,1,7,1.0800000000000007,2,10,17,54,101,102,3.269999999999998,5.5299999999999265,0.04,0.01,4,6,1,1,26,52,1,1,6,0,14,7,Lc,0.12576923076923077,0.10634615384615387,0.04,0.01
10,10,19,1,8,0.5300000000000002,2,6,112,61,113,9,2.490000000000002,1.2500000000000009,2.249999999999996,0.9100000000000006,5,2,6,5,25,14,25,14,2,0,14,7,Lc,0.09960000000000001,0.08928571428571429,0.09000000000000001,0.065
10,10,20,1,5,0.9100000000000006,2,9,43,44,47,55,3.4399999999999906,0.6100000000000003,1.430000000000001,1.0300000000000007,5,2,7,2,37,4,18,12,5,0.5,34,7,Lc,0.09297297297297298,0.1525,0.07944444444444446,0.08583333333333334
10,11,21,1,6,1.2200000000000009,3,17,6,62,2,113,3.709999999999992,0.35000000000000014,0.46000000000000024,2.07,5,2,2,5,51,6,3,21,6,0,18,7,Lc,0.0727450980392157,0.058333333333333334,0.15333333333333338,0.09857142857142859
10,11,22,1,4,0.7300000000000004,2,8,104,103,83,102,2.7400000000000015,0.6800000000000004,0.9600000000000006,0.6100000000000003,4,3,2,4,29,5,13,8,2,0.5,15,7,Lc,0.09448275862068965,0.136,0.07384615384615385,0.07625
10,12,23,1,10,0.8800000000000006,2,10,91,93,64,111,2.370000000000002,1.7700000000000014,0.4000000000000002,0.3200000000000001,4,2,2,2,26,19,5,5,3,0,12,7,Lc,0.09115384615384617,0.0931578947368421,0.08,0.064
10,12,24,1,5,0.6300000000000003,2,10,39,53,55,107,2.0100000000000016,2.299999999999995,0.7800000000000005,0.49000000000000027,5,3,2,2,20,21,4,11,5,0,15,7,Lc,0.1005,0.10952380952380954,0.19500000000000006,0.04454545454545455
10,13,25,1,8,0.7600000000000005,3,11,117,112,94,27,3.529999999999985,0.10999999999999999,0.6100000000000003,0.26000000000000006,5,1,3,2,50,1,9,2,2,0,12,7,Lc,0.0706,0.10999999999999999,0.06777777777777777,0.13000000000000003
10,13,26,1,6,0.9400000000000006,2,9,11,7,60,56,2.370000000000002,2.259999999999996,0.2700000000000001,0.45000000000000023,4,2,2,3,21,26,2,4,6,0,20,7,Lc,0.11285714285714286,0.08692307692307692,0.13500000000000004,0.11250000000000002
10,14,27,1,5,0.8400000000000005,2,18,46,40,106,103,2.520000000000002,0.6500000000000004,2.1399999999999983,0.4400000000000002,4,2,3,2,29,9,21,5,5,0,14,7,Lc,0.08689655172413795,0.07222222222222223,0.10190476190476191,0.088
10,14,28,1,10,1.7200000000000013,2,28,94,118,119,86,3.5400000000000027,1.0400000000000007,0.5500000000000003,0.21000000000000005,4,2,2,2,48,8,5,3,3,0,10,7,Lc,0.07375000000000001,0.13000000000000003,0.11000000000000001,0.06999999999999999
10,15,29,1,6,0.7600000000000005,2,8,8,5,12,11,2.3600000000000017,7.109999999999893,0.01,1.5900000000000012,4,10,1,8,25,71,1,12,6,1,72,7,Lc,0.09440000000000001,0.10014084507042255,0.01,0.13250000000000003
10,15,30,1,9,0.34000000000000014,2,3,66,98,61,102,2.9099999999999895,0.8200000000000005,0.18000000000000002,0.2700000000000001,5,2,2,2,29,9,2,6,4,0,12,7,Lc,0.10034482758620691,0.09111111111111111,0.09,0.045
10,16,31,1,9,0.7300000000000004,2,4,63,97,71,79,2.530000000000002,0.8000000000000005,1.1200000000000008,0.25000000000000006,4,2,2,2,16,5,10,7,4,0,13,7,Lc,0.15812500000000004,0.16000000000000003,0.11200000000000002,0.03571428571428571
10,16,32,1,10,1.2000000000000008,3,16,93,113,95,110,3.0600000000000023,0.8400000000000005,0.4300000000000002,1.380000000000001,5,2,3,5,37,6,7,20,3,0,10,7,Lc,0.0827027027027027,0.14000000000000004,0.06142857142857143,0.069
10,17,33,1,2,0.9300000000000006,2,15,60,44,110,118,2.030000000000001,1.400000000000001,0.9500000000000006,0.8900000000000006,4,3,2,2,25,13,7,8,4,0,13,7,Lc,0.08120000000000001,0.10769230769230771,0.13571428571428573,0.11125
10,17,34,1,10,0.6100000000000003,2,5,86,93,72,71,3.1899999999999893,0.12999999999999998,1.1800000000000008,0.7800000000000005,4,1,2,3,34,1,9,10,3,0,14,7,Lc,0.09382352941176471,0.12999999999999998,0.13111111111111115,0.078
10,18,35,1,5,0.21000000000000005,3,4,85,90,119,114,7.269999999999894,0.46000000000000024,0.02,0.6500000000000004,7,4,2,5,69,5,2,8,5,0,10,7,Lc,0.10536231884057971,0.092,0.01,0.08125000000000002
10,18,36,1,9,0.8400000000000005,3,10,71,21,24,104,2.680000000000002,1.5200000000000011,0.16,0.5400000000000003,5,6,2,2,32,17,2,7,4,0,18,7,Lc,0.08375,0.08941176470588236,0.07999999999999999,0.07714285714285715
10,19,37,1,3,0.6400000000000003,3,14,31,63,71,100,2.450000000000002,0.8000000000000005,0.18000000000000002,1.0100000000000007,5,2,2,5,36,6,4,11,5,0,15,7,Lc,0.06805555555555556,0.13333333333333336,0.045,0.09181818181818183
10,19,38,1,5,1.0500000000000007,3,11,46,47,116,52,3.000000000000002,1.0200000000000007,0.8400000000000005,0.5700000000000003,5,2,4,3,30,7,7,11,5,0,16,7,Lc,0.10000000000000002,0.14571428571428574,0.12000000000000002,0.05181818181818182
10,20,39,1,1,0.4200000000000002,2,3,82,67,79,65,2.9099999999999913,0.6000000000000003,1.0200000000000007,0.8900000000000006,5,2,4,2,29,4,6,11,3,0,14,7,Lc,0.10034482758620691,0.15000000000000002,0.17000000000000004,0.08090909090909092
10,20,40,1,10,1.2400000000000009,3,18,88,116,119,89,2.600000000000002,2.4699999999999913,0.15,0.3000000000000001,5,3,2,2,28,31,2,4,3,0,10,7,Lc,0.09285714285714286,0.07967741935483871,0.07499999999999998,0.075
10,21,41,1,6,0.5200000000000002,2,5,10,104,107,7,2.370000000000002,2.06,0.19000000000000003,0.15,5,6,2,2,21,20,2,2,6,0,16,7,Lc,0.11285714285714286,0.10300000000000001,0.095,0.07500000000000001
10,21,42,1,3,0.07,2,2,14,25,53,28,16.859999999999825,0.02,0.01,0.01,20,2,1,1,191,2,1,1,5,0,20,7,Lc,0.08827225130890053,0.01,0.01,0.01
11,1,1,0,6,2.9199999999999817,3,16,9,52,8,7,3.199999999999982,0.3200000000000001,0.22000000000000006,0.9000000000000006,5,2,2,3,18,3,4,4,6,0.5,40,7,Lc,0.17777777777777784,0.10666666666666666,0.05499999999999999,0.22500000000000006
11,1,2,0,1,4.459999999999949,6,23,78,37,119,73,4.64999999999995,0.19000000000000003,0.2900000000000001,0.13999999999999999,8,2,1,1,25,3,2,1,3,0,13,7,Lc,0.18600000000000005,0.06333333333333332,0.14500000000000002,0.13999999999999999
11,2,3,0,9,2.0400000000000005,3,17,66,71,76,116,2.2500000000000004,0.3100000000000001,0.12999999999999998,0.01,4,2,1,1,18,3,1,1,4,0,13,7,Lc,0.12500000000000003,0.10333333333333333,0.12999999999999998,0.01
11,2,4,0,4,1.7200000000000013,3,9,100,108,26,7,1.8300000000000014,0.21000000000000005,0.9000000000000006,0.47000000000000025,5,1,5,2,11,1,8,2,2,0,15,7,Lc,0.16636363636363644,0.21000000000000005,0.11250000000000003,0.2350000000000001
11,3,5,0,5,1.0200000000000007,3,7,15,106,89,95,10.789999999999837,0.01,0.02,0.01,17,1,1,1,40,1,1,1,5,0,14,7,Lc,0.2697500000000001,0.01,0.02,0.01
11,3,6,0,3,1.9500000000000015,3,15,30,75,73,27,3.530000000000003,0.09,0.09999999999999999,0.03,5,1,1,1,17,1,1,1,5,0,16,7,Lc,0.20764705882352952,0.09,0.09999999999999999,0.03
11,4,7,0,6,0.8000000000000005,3,6,2,1,4,92,0.8400000000000005,2.3099999999999947,1.6600000000000013,0.01,4,5,8,1,7,11,11,1,6,0.5,39,7,Lc,0.12000000000000002,0.21000000000000008,0.15090909090909094,0.01
11,4,8,0,5,2.719999999999986,4,19,74,20,44,82,2.769999999999986,0.22000000000000006,0.07,0.35000000000000014,5,2,1,2,20,2,1,2,5,0,17,7,Lc,0.13850000000000004,0.11000000000000001,0.07,0.17500000000000002
11,5,9,0,6,2.339999999999994,4,8,12,25,99,32,2.859999999999994,0.25000000000000006,0.19000000000000003,0.10999999999999999,6,1,2,1,11,1,2,1,6,0,18,7,Lc,0.2600000000000002,0.25000000000000006,0.09500000000000001,0.10999999999999999
11,5,10,0,5,0.8200000000000005,4,11,55,91,116,92,6.959999999999914,1.1500000000000008,0.6300000000000003,0.01,20,6,3,1,45,8,3,1,5,0,12,7,Lc,0.1546666666666667,0.14375000000000004,0.21000000000000008,0.01
11,6,11,0,5,2.4499999999999917,4,17,38,65,6,39,2.6399999999999917,0.3900000000000002,0.6200000000000003,0.04,6,1,3,1,19,1,3,1,5,0,20,7,Lc,0.13894736842105268,0.3900000000000002,0.20666666666666675,0.04
11,6,12,0,7,1.360000000000001,3,6,15,88,89,14,1.470000000000001,2.7999999999999843,0.6900000000000004,0.01,5,6,2,1,8,17,2,1,6,0,18,7,Lc,0.18375000000000005,0.16470588235294123,0.3450000000000002,0.01
11,7,13,1,1,1.8400000000000014,3,13,44,82,75,50,1.8600000000000014,0.060000000000000005,0.6500000000000004,0.09,4,1,2,1,14,1,2,1,3,0,15,7,Lc,0.1328571428571429,0.060000000000000005,0.3250000000000002,0.09
11,7,14,1,4,1.6400000000000012,4,11,10,100,97,36,1.8300000000000012,0.03,0.060000000000000005,0.10999999999999999,6,1,1,1,14,1,1,1,2,0,15,7,Lc,0.13071428571428576,0.03,0.060000000000000005,0.10999999999999999
11,8,15,1,4,2.249999999999996,4,13,105,64,100,89,4.059999999999997,1.6800000000000013,0.01,0.5100000000000002,6,4,1,2,15,4,1,2,2,0,11,7,Lc,0.27066666666666683,0.42000000000000026,0.01,0.2550000000000001
11,8,16,1,1,2.569999999999989,5,12,73,47,42,82,2.8499999999999894,0.15,0.12999999999999998,0.060000000000000005,7,1,1,1,14,1,1,1,3,0,16,7,Lc,0.20357142857142865,0.15,0.12999999999999998,0.060000000000000005
11,9,17,1,10,4.3599999999999515,11,33,93,95,4,106,4.379999999999951,0.01,1.7600000000000013,0.01,12,1,4,1,34,1,12,1,3,0,14,7,Lc,0.12882352941176475,0.01,0.14666666666666672,0.01
11,9,18,1,1,3.1299999999999772,4,13,15,13,46,19,4.1399999999999775,3.889999999999961,0.01,0.02,8,11,1,1,18,21,1,1,3,0.5,41,7,Lc,0.2300000000000001,0.18523809523809528,0.01,0.02
11,10,19,1,9,2.489999999999991,3,16,62,94,5,66,2.799999999999991,0.34000000000000014,0.6300000000000003,0.04,5,2,3,2,18,3,6,2,4,0,17,7,Lc,0.15555555555555559,0.11333333333333334,0.10500000000000001,0.02
11,10,20,1,8,1.400000000000001,3,10,119,13,120,56,1.440000000000001,1.9400000000000015,1.1400000000000008,0.6700000000000004,5,2,4,2,12,2,4,2,2,0,14,7,Lc,0.12000000000000004,0.9700000000000008,0.28500000000000014,0.3350000000000002
11,11,21,1,2,0.9000000000000006,4,8,58,79,76,1,1.1000000000000005,0.5600000000000003,0.4000000000000002,0.19000000000000003,6,2,2,2,10,2,2,3,4,0,16,7,Lc,0.11000000000000001,0.2800000000000001,0.2000000000000001,0.06333333333333332
11,11,22,1,3,4.269999999999953,3,21,28,18,15,111,4.419999999999954,2.6599999999999873,0.09,0.01,5,7,2,1,23,14,2,1,5,0,19,7,Lc,0.19217391304347833,0.19000000000000006,0.045000000000000005,0.01
11,12,23,1,10,1.0000000000000007,3,11,93,94,20,87,1.2700000000000007,0.7000000000000004,0.24000000000000007,1.0100000000000007,5,4,2,3,13,4,2,3,3,0.5,24,7,Lc,0.0976923076923077,0.17500000000000004,0.12000000000000001,0.33666666666666684
11,12,24,1,5,4.159999999999956,6,22,46,3,12,45,5.229999999999956,0.060000000000000005,0.060000000000000005,0.060000000000000005,11,1,1,2,27,1,1,2,5,0,22,7,Lc,0.1937037037037038,0.060000000000000005,0.060000000000000005,0.03
11,13,25,1,7,0.3300000000000001,3,8,16,17,43,63,0.34000000000000014,0.04,3.00999999999998,0.03,4,1,11,1,9,1,15,1,6,0,21,7,Lc,0.03777777777777778,0.04,0.20066666666666674,0.03
11,13,26,1,1,2.4099999999999926,6,20,77,30,73,82,2.6999999999999926,0.09999999999999999,0.09,0.15,8,1,1,3,22,1,1,3,3,0.5,23,7,Lc,0.12272727272727275,0.09999999999999999,0.09,0.05
11,14,27,1,2,4.749999999999943,8,21,36,60,10,6,4.849999999999943,0.10999999999999999,0.08,0.3000000000000001,9,1,1,1,22,1,1,1,4,0,21,7,Lc,0.22045454545454557,0.10999999999999999,0.08,0.3000000000000001
11,14,28,1,4,1.8900000000000015,3,11,42,106,98,40,2.1800000000000015,0.060000000000000005,0.10999999999999999,0.19000000000000003,4,1,2,1,12,1,2,1,2,0,14,7,Lc,0.18166666666666673,0.060000000000000005,0.05500000000000001,0.19000000000000003
11,15,29,1,6,3.2199999999999753,4,14,11,102,4,5,3.3699999999999752,2.7399999999999856,0.01,0.35000000000000014,6,5,1,2,17,7,1,2,6,0.5,38,7,Lc,0.19823529411764715,0.3914285714285716,0.01,0.17500000000000007
11,15,30,1,7,1.8100000000000014,3,14,21,79,20,111,1.8600000000000014,0.5200000000000002,0.09999999999999999,0.4300000000000002,4,3,1,3,15,5,1,3,6,0,17,7,Lc,0.12400000000000003,0.10400000000000001,0.09999999999999999,0.14333333333333337
11,16,31,1,3,2.52999999999999,3,13,35,24,32,62,3.1999999999999904,0.2900000000000001,0.05,0.12999999999999998,5,1,1,1,15,1,1,1,5,0,20,7,Lc,0.2133333333333334,0.2900000000000001,0.05,0.12999999999999998
11,16,32,1,1,2.1799999999999975,5,12,117,45,4,73,2.3499999999999974,0.21000000000000005,2.339999999999994,1.2200000000000009,7,2,9,7,15,2,13,7,3,0,16,7,Lc,0.15666666666666673,0.10500000000000001,0.18000000000000005,0.17428571428571435
11,17,33,1,9,1.2300000000000009,3,12,66,67,22,120,1.330000000000001,0.05,0.17,0.10999999999999999,4,1,1,1,13,1,1,1,4,0,16,7,Lc,0.10230769230769231,0.05,0.17,0.10999999999999999
11,17,34,1,2,2.8799999999999826,6,16,50,59,2,4,5.829999999999964,0.21000000000000005,0.11999999999999998,0.01,15,2,2,1,30,2,2,1,4,0,20,7,Lc,0.1943333333333334,0.10500000000000002,0.05999999999999999,0.01
11,18,35,1,1,2.399999999999993,3,14,84,81,55,23,2.4899999999999927,0.5300000000000002,0.12999999999999998,0.38000000000000017,4,3,1,1,15,5,1,2,3,0,16,7,Lc,0.16600000000000006,0.10600000000000002,0.12999999999999998,0.19000000000000003
11,18,36,1,10,0.8700000000000006,3,11,61,95,70,93,4.579999999999965,0.4400000000000002,0.7100000000000004,0.05,13,3,4,2,29,3,5,2,3,0,14,7,Lc,0.15793103448275866,0.1466666666666667,0.14200000000000002,0.025
11,19,37,1,7,1.9000000000000015,5,17,15,24,62,20,1.9100000000000015,0.07,0.6000000000000003,0.08,6,1,2,1,18,1,3,1,6,0.5,40,7,Lc,0.10611111111111113,0.07,0.20000000000000007,0.08
11,19,38,1,10,0.7400000000000004,4,6,89,117,116,115,0.8400000000000004,0.08,0.18000000000000002,0.12999999999999998,6,1,1,2,8,1,1,2,3,0.5,15,7,Lc,0.10500000000000002,0.08,0.18000000000000002,0.065
11,20,39,1,3,3.00999999999998,5,16,30,33,92,25,3.34999999999998,0.5000000000000002,3.3599999999999723,1.0700000000000007,8,2,7,3,20,3,12,4,5,0.5,33,7,Lc,0.16750000000000007,0.16666666666666669,0.28000000000000014,0.2675000000000001
11,20,40,1,5,4.489999999999949,5,24,38,109,39,42,4.899999999999949,0.07,0.02,0.5600000000000003,7,1,1,2,26,1,1,2,5,0.5,32,7,Lc,0.1884615384615385,0.07,0.02,0.28000000000000014
11,21,41,1,1,1.7700000000000014,3,9,79,80,48,78,1.9700000000000013,0.05,0.3000000000000001,0.04,5,1,4,1,11,1,5,2,3,0.5,23,7,Lc,0.17909090909090913,0.05,0.06,0.02
11,21,42,1,2,0.5500000000000003,4,9,13,120,32,19,4.889999999999953,0.01,0.02,0.07,13,1,1,1,21,1,1,1,4,0,19,7,Lc,0.23285714285714296,0.01,0.02,0.07
12,1,1,0,2,2.259999999999996,2,13,50,57,117,47,2.899999999999996,0.9900000000000007,0.6200000000000003,1.380000000000001,4,2,2,4,15,3,5,15,4,0,15,7,Lc,0.19333333333333338,0.3300000000000001,0.12400000000000001,0.09200000000000001
12,1,2,0,3,0.8500000000000005,2,7,28,78,22,33,2.6700000000000017,1.490000000000001,0.5300000000000002,0.5300000000000002,4,2,2,3,15,8,4,4,5,0,19,7,Lc,0.17800000000000005,0.18625000000000005,0.1325,0.1325
12,2,3,0,8,0.6600000000000004,2,5,118,46,119,38,1.3400000000000007,2.3299999999999943,0.20000000000000004,1.8200000000000014,6,6,1,5,11,10,1,12,2,0,14,7,Lc,0.12181818181818184,0.2330000000000001,0.20000000000000004,0.1516666666666667
12,2,4,0,9,0.9800000000000006,6,14,62,35,31,22,2.5000000000000018,1.310000000000001,0.5400000000000003,0.7300000000000004,9,3,2,2,20,4,6,7,4,0,20,7,Lc,0.12500000000000003,0.3275000000000002,0.09,0.10428571428571429
12,3,5,0,10,0.48000000000000026,2,3,118,27,89,17,1.1100000000000005,2.949999999999981,0.8100000000000005,0.23000000000000007,3,3,2,1,4,15,4,1,3,0,16,7,Lc,0.27750000000000014,0.1966666666666667,0.20250000000000007,0.23000000000000007
12,3,6,0,4,0.6200000000000003,3,5,98,105,41,83,1.9500000000000013,1.470000000000001,1.500000000000001,0.5200000000000002,5,3,4,1,15,11,8,2,2,0,12,7,Lc,0.13000000000000003,0.13363636363636366,0.18750000000000006,0.2600000000000001
12,4,7,0,9,0.6500000000000004,3,7,71,77,65,76,0.9400000000000004,0.7900000000000005,0.3900000000000002,1.1500000000000008,5,2,1,3,9,2,2,3,4,0,14,7,Lc,0.10444444444444446,0.3950000000000002,0.19500000000000003,0.3833333333333335
12,4,8,0,2,1.440000000000001,3,10,51,50,36,59,2.740000000000002,0.9300000000000006,3.45999999999997,0.6000000000000003,5,2,5,2,18,7,16,2,4,0.5,29,7,Lc,0.15222222222222226,0.13285714285714287,0.21625000000000008,0.30000000000000016
12,5,9,0,6,0.5800000000000003,2,5,12,10,84,2,2.330000000000002,0.9000000000000006,1.1800000000000008,0.15,6,2,3,1,13,3,6,1,6,0.5,39,7,Lc,0.17923076923076928,0.3000000000000001,0.1966666666666667,0.15
12,5,10,0,8,0.5600000000000003,2,4,109,117,27,34,1.640000000000001,1.400000000000001,0.8600000000000005,0.8800000000000006,6,2,2,2,15,9,4,5,2,0,14,7,Lc,0.10933333333333335,0.15555555555555559,0.21500000000000005,0.17600000000000005
12,6,11,0,1,1.0400000000000007,2,9,79,48,40,83,1.4900000000000009,3.47999999999997,1.5900000000000012,1.320000000000001,4,9,3,5,13,12,6,7,3,0,16,7,Lc,0.11461538461538465,0.2900000000000001,0.2650000000000001,0.18857142857142864
12,6,12,0,4,0.47000000000000025,2,7,107,103,88,33,1.0600000000000005,0.9800000000000006,0.48000000000000026,2.159999999999998,4,2,1,5,11,2,1,14,2,0,12,7,Lc,0.09636363636363637,0.4900000000000002,0.48000000000000026,0.15428571428571433
12,7,13,1,4,0.12999999999999998,2,2,1,107,91,98,13.129999999999768,0.01,0.01,0.01,17,1,1,1,51,1,1,1,2,0,13,7,Lc,0.25745098039215697,0.01,0.01,0.01
12,7,14,1,3,1.400000000000001,2,11,28,27,81,83,2.1500000000000012,1.1400000000000008,1.350000000000001,1.0300000000000007,4,4,2,5,16,7,9,5,5,0,16,7,Lc,0.13437500000000002,0.1628571428571429,0.15000000000000005,0.20600000000000007
12,8,15,1,2,0.49000000000000027,2,3,51,81,58,100,0.6700000000000003,2.339999999999994,0.23000000000000007,1.5700000000000012,3,5,2,2,4,10,3,5,4,0,13,7,Lc,0.16750000000000004,0.2340000000000001,0.07666666666666666,0.3140000000000001
12,8,16,1,8,0.8300000000000005,2,6,112,116,2,3,1.670000000000001,8.039999999999873,0.47000000000000025,0.02,4,10,2,1,12,48,2,1,2,0,16,7,Lc,0.1391666666666667,0.16750000000000007,0.23500000000000013,0.02
12,9,17,1,9,0.8200000000000005,2,6,35,70,71,104,3.2299999999999933,0.5500000000000003,0.3200000000000001,0.2700000000000001,5,2,2,2,19,5,6,2,4,0,15,7,Lc,0.17000000000000004,0.11,0.05333333333333333,0.135
12,9,18,1,2,2.5999999999999885,2,16,8,1,10,109,4.43999999999999,1.300000000000001,0.34000000000000014,0.08,5,2,1,1,23,8,1,1,4,0.5,38,7,Lc,0.19304347826086962,0.16250000000000003,0.34000000000000014,0.08
