Subject,Round,Phase,afterbreak,Schema,Schema_RT,Schema_OB,Schema_AS,Cho_1,Cho_2,Cho_3,Cho_4,RT_1,RT_2,RT_3,RT_4,OB_1,OB_2,OB_3,OB_4,AS_1,AS_2,AS_3,AS_4,schema_payoff,AC,performance,breakR,type,dwellmean_1,dwellmean_2,dwellmean_3,dwellmean_4
1,1,1,0,2,0.16,2,4,51,58,113,73,0.4900000000000001,0.18000000000000002,0.13999999999999999,0.08,4,2,1,1,6,3,1,1,4,0,13,7,L,0.08166666666666669,0.06,0.13999999999999999,0.08
1,1,2,0,4,0.16,2,3,101,30,21,86,0.44000000000000006,0.21000000000000005,0.09999999999999999,0.09999999999999999,4,1,1,1,5,1,1,1,2,0,16,7,L,0.088,0.21000000000000005,0.09999999999999999,0.09999999999999999
1,2,3,0,10,0.26000000000000006,6,6,91,120,35,94,0.5400000000000001,0.3200000000000001,0.060000000000000005,0.04,7,2,1,1,7,2,1,1,3,0,13,7,L,0.07714285714285715,0.16000000000000003,0.060000000000000005,0.04
1,2,4,0,1,0.18000000000000002,2,3,81,82,1,37,0.5000000000000001,0.09999999999999999,0.15,1.1400000000000008,3,1,1,2,4,1,1,2,3,0,17,7,L,0.12500000000000003,0.09999999999999999,0.15,0.5700000000000004
1,3,5,0,3,0.21000000000000005,2,3,19,29,111,22,0.4900000000000001,0.09999999999999999,0.21000000000000005,0.04,3,1,2,1,4,1,3,1,5,0,19,7,L,0.12250000000000003,0.09999999999999999,0.06999999999999999,0.04
1,3,6,0,6,0.18000000000000002,2,3,2,39,38,105,3.9999999999999627,0.01,0.01,0.01,9,1,1,1,11,1,1,1,6,0,18,7,L,0.3636363636363638,0.01,0.01,0.01
1,4,7,0,10,0.17,2,3,86,50,87,28,0.45000000000000007,0.4100000000000002,0.03,0.04,3,2,1,1,4,2,1,1,3,0,15,7,L,0.11250000000000002,0.20500000000000004,0.03,0.04
1,4,8,0,1,0.5500000000000003,9,9,76,39,77,84,0.8700000000000003,1.310000000000001,0.38000000000000017,2.2799999999999954,10,4,2,2,10,5,2,3,3,0.5,23,7,L,0.08700000000000001,0.2620000000000001,0.19000000000000003,0.7600000000000005
1,5,9,0,2,0.18000000000000002,2,3,60,85,92,13,0.7200000000000003,0.12999999999999998,0.10999999999999999,0.04,3,2,2,1,4,2,2,1,4,0,16,7,L,0.18000000000000008,0.065,0.055,0.04
1,5,10,0,9,0.12999999999999998,2,4,98,31,6,9,0.5000000000000001,0.21000000000000005,0.08,0.060000000000000005,3,1,1,2,5,1,1,2,4,0,19,7,L,0.10000000000000003,0.21000000000000005,0.08,0.03
1,6,11,0,5,0.12999999999999998,2,3,10,42,4,90,0.5400000000000001,0.08,0.37000000000000016,0.02,3,1,3,1,4,1,3,1,5,0,20,7,L,0.13500000000000006,0.08,0.12333333333333335,0.02
1,6,12,0,3,0.2700000000000001,3,4,25,54,73,117,0.5400000000000001,0.09999999999999999,0.12999999999999998,0.08,5,1,1,1,6,1,1,1,5,0,14,7,L,0.09,0.09999999999999999,0.12999999999999998,0.08
1,7,13,1,13,0.22000000000000006,2,3,33,9,35,111,0.5300000000000001,0.20000000000000004,0.05,0.15,3,1,1,2,4,1,1,2,2,0,18,7,L,0.13250000000000003,0.20000000000000004,0.05,0.07499999999999998
1,7,14,1,15,0.20000000000000004,2,3,107,50,21,23,0.5600000000000002,0.11999999999999998,0.08,0.060000000000000005,3,1,2,2,4,1,2,2,6,0,18,7,L,0.14000000000000004,0.11999999999999998,0.04,0.03
1,8,15,1,11,0.34000000000000014,7,7,75,15,71,64,0.9900000000000004,1.8100000000000014,0.01,0.01,10,5,1,1,10,5,1,1,4,0,17,7,L,0.09900000000000003,0.3620000000000002,0.01,0.01
1,8,16,1,14,0.09999999999999999,2,2,3,5,93,98,42.81000000000007,0.01,0.01,0.01,20,1,1,1,93,1,1,1,3,0,17,7,L,0.46032258064516157,0.01,0.01,0.01
1,9,17,1,7,0.13999999999999999,2,3,12,2,61,10,0.37000000000000005,0.22000000000000006,0.12999999999999998,2.0799999999999996,4,2,1,4,5,2,1,5,6,0.5,40,7,L,0.07400000000000001,0.11000000000000001,0.12999999999999998,0.41600000000000026
1,9,18,1,15,0.19000000000000003,2,3,20,13,99,45,0.5500000000000002,0.15,0.37000000000000016,0.13999999999999999,4,1,1,1,5,1,1,1,6,0,19,7,L,0.11000000000000001,0.15,0.37000000000000016,0.13999999999999999
1,10,19,1,2,0.12999999999999998,2,3,52,75,50,56,0.44000000000000006,0.3000000000000001,0.03,0.05,4,2,1,1,5,2,1,1,4,0.5,27,7,L,0.08800000000000001,0.15,0.03,0.05
1,10,20,1,14,0.25000000000000006,3,4,92,88,65,101,0.6200000000000002,0.08,0.09999999999999999,0.09999999999999999,5,1,1,1,6,1,1,1,3,0,12,7,L,0.10333333333333333,0.08,0.09999999999999999,0.09999999999999999
1,11,21,1,13,0.18000000000000002,2,3,46,17,49,95,0.8900000000000005,0.2700000000000001,0.03,0.02,4,2,1,1,5,2,1,1,2,0,18,7,L,0.17800000000000005,0.135,0.03,0.02
1,11,22,1,3,0.4000000000000002,2,4,34,31,4,103,0.6600000000000003,0.04,0.22000000000000006,0.11999999999999998,3,1,2,1,5,1,2,1,5,0,18,7,L,0.13200000000000003,0.04,0.10999999999999999,0.11999999999999998
1,12,23,1,7,0.13999999999999999,2,3,12,85,68,64,0.4,0.2900000000000001,0.05,0.09,4,2,1,1,5,2,1,1,6,0,17,7,L,0.08000000000000002,0.145,0.05,0.09
1,12,24,1,2,0.10999999999999999,1,2,60,22,58,97,0.4100000000000001,0.09999999999999999,0.15,0.05,3,1,1,1,4,1,1,1,4,0,16,7,L,0.10250000000000001,0.09999999999999999,0.15,0.05
1,13,25,1,2,0.2700000000000001,3,4,58,24,22,17,0.6400000000000002,0.09999999999999999,0.09999999999999999,0.07,5,1,2,1,6,1,2,1,4,0.5,40,7,L,0.10666666666666667,0.09999999999999999,0.05,0.07
1,13,26,1,3,0.16,2,3,65,89,27,29,0.4900000000000001,0.13999999999999999,0.05,0.05,3,1,1,1,4,1,1,1,5,0,17,7,L,0.12250000000000003,0.13999999999999999,0.05,0.05
1,14,27,1,7,0.17,2,3,29,25,31,73,0.4900000000000001,1.360000000000001,0.26000000000000006,0.5200000000000002,3,4,2,1,4,5,2,1,6,0.5,33,7,L,0.12250000000000003,0.27200000000000013,0.13,0.5200000000000002
1,14,28,1,15,0.24000000000000007,2,3,88,48,101,96,0.7500000000000003,0.8300000000000005,0.15,0.15,4,3,1,1,5,4,1,1,6,0,13,7,L,0.15000000000000005,0.20750000000000007,0.15,0.15
1,15,29,1,15,0.09999999999999999,2,2,16,13,52,98,0.32000000000000006,2.569999999999989,0.02,0.01,3,3,1,1,3,4,1,1,6,0,18,7,L,0.10666666666666669,0.6425000000000004,0.02,0.01
1,15,30,1,14,0.22000000000000006,2,3,4,34,5,88,1.630000000000001,0.01,0.16,0.01,4,1,1,1,6,1,1,1,3,0,20,7,L,0.27166666666666683,0.01,0.16,0.01
1,16,31,1,13,0.09,2,2,120,117,87,92,0.30000000000000004,0.13999999999999999,0.6100000000000003,0.01,3,1,3,1,3,1,3,1,2,0,10,7,L,0.10000000000000002,0.13999999999999999,0.20333333333333342,0.01
1,16,32,1,1,0.10999999999999999,1,2,76,72,36,26,0.4500000000000001,0.11999999999999998,0.09,0.05,3,2,1,1,4,2,1,1,3,0,17,7,L,0.1125,0.05999999999999999,0.09,0.05
1,17,33,1,1,0.16,1,3,69,21,38,72,0.45000000000000007,0.2900000000000001,0.17,0.03,2,2,1,1,4,2,1,1,3,0,19,7,L,0.11250000000000002,0.14500000000000005,0.17,0.03
1,17,34,1,8,0.20000000000000004,3,3,98,102,11,1,0.4700000000000001,0.09999999999999999,0.6800000000000004,0.03,5,1,2,1,5,1,2,1,2,0,16,7,L,0.09400000000000001,0.09999999999999999,0.34000000000000014,0.03
1,18,35,1,14,0.21000000000000005,2,3,93,17,14,34,0.8200000000000004,0.05,0.20000000000000004,0.38000000000000017,4,1,2,3,6,1,2,3,3,0,20,7,L,0.1366666666666667,0.05,0.10000000000000002,0.1266666666666667
1,18,36,1,1,0.15,2,3,79,80,47,3,0.45000000000000007,0.11999999999999998,0.23000000000000007,0.03,3,1,1,1,4,1,1,1,3,0,17,7,L,0.11250000000000003,0.11999999999999998,0.23000000000000007,0.03
1,19,37,1,8,0.15,2,3,96,100,103,4,0.5700000000000002,0.11999999999999998,0.09,0.11999999999999998,3,1,1,1,4,1,1,1,2,0,13,7,L,0.14250000000000004,0.11999999999999998,0.09,0.11999999999999998
1,19,38,1,2,0.3000000000000001,2,3,60,82,77,19,0.5900000000000002,0.16,0.19000000000000003,0.060000000000000005,4,1,2,1,5,1,2,1,4,0,16,7,L,0.11800000000000002,0.16,0.095,0.060000000000000005
1,20,39,1,2,0.09,2,2,57,58,36,87,0.33000000000000007,0.15,0.2700000000000001,0.03,3,1,2,1,3,1,3,1,4,0,16,7,L,0.11000000000000003,0.15,0.09,0.03
1,20,40,1,15,0.16,2,3,23,13,74,19,0.6000000000000002,0.09,0.23000000000000007,0.34000000000000014,4,1,2,2,5,1,2,2,6,0.5,39,7,L,0.12000000000000002,0.09,0.11500000000000003,0.17000000000000007
1,21,41,1,12,0.19000000000000003,2,3,111,42,23,22,0.5700000000000002,0.24000000000000007,0.08,0.02,4,2,2,1,5,2,2,1,5,0,19,7,L,0.11400000000000003,0.12000000000000002,0.04,0.02
1,21,42,1,2,0.12999999999999998,2,4,34,52,26,85,0.43000000000000005,0.11999999999999998,1.0900000000000007,0.01,3,1,3,1,5,1,3,1,4,0,17,7,L,0.08600000000000002,0.11999999999999998,0.3633333333333335,0.01
1,22,43,1,14,0.25000000000000006,2,3,49,96,39,41,0.5400000000000001,0.09999999999999999,0.17,0.11999999999999998,3,1,1,1,4,1,1,1,3,0,17,7,L,0.135,0.09999999999999999,0.17,0.11999999999999998
1,22,44,1,11,0.10999999999999999,2,3,65,68,69,5,0.36000000000000004,0.12999999999999998,0.09,0.12999999999999998,3,1,1,1,4,1,1,1,4,0.5,30,7,L,0.09000000000000001,0.12999999999999998,0.09,0.12999999999999998
2,1,1,0,9,0.08,2,3,64,14,61,79,0.42000000000000015,0.13999999999999999,0.07,0.060000000000000005,4,2,2,1,7,2,2,1,4,0,17,7,L,0.06,0.06999999999999999,0.035,0.060000000000000005
2,1,2,0,2,0.10999999999999999,2,2,57,52,10,27,0.48000000000000015,0.09,0.10999999999999999,0.05,4,1,1,1,4,1,1,1,4,0,19,7,L,0.12000000000000002,0.09,0.10999999999999999,0.05
2,2,3,0,6,0.08,2,2,10,9,2,74,0.3700000000000001,0.18000000000000002,2.4699999999999913,0.01,3,2,7,1,3,4,8,1,6,0.5,39,7,L,0.12333333333333336,0.045000000000000005,0.30875000000000014,0.01
2,2,4,0,10,0.11999999999999998,2,3,88,13,46,23,0.5500000000000002,0.09,0.17,0.060000000000000005,4,1,3,1,9,1,4,1,3,0,20,7,L,0.06111111111111111,0.09,0.0425,0.060000000000000005
2,3,5,0,3,0.19000000000000003,6,6,36,96,92,6,0.4800000000000001,0.12999999999999998,0.08,0.08,7,1,1,1,7,1,1,1,5,0,17,7,L,0.06857142857142859,0.12999999999999998,0.08,0.08
2,3,6,0,2,0.13999999999999999,4,4,53,17,120,76,0.4,0.19000000000000003,0.5600000000000003,0.08,5,1,2,2,5,1,3,2,4,0,15,7,L,0.08000000000000002,0.19000000000000003,0.18666666666666673,0.04
2,4,7,0,6,0.17,4,4,5,110,54,7,0.45000000000000007,0.22000000000000006,0.05,0.03,5,1,1,1,5,1,1,2,6,0,18,7,L,0.09000000000000001,0.22000000000000006,0.05,0.015
2,4,8,0,10,0.09,2,2,92,93,15,16,0.5600000000000003,0.05,0.05,0.03,4,1,1,1,6,1,1,1,3,0,18,7,L,0.09333333333333334,0.05,0.05,0.03
2,5,9,0,5,0.11999999999999998,2,3,39,70,120,4,0.5100000000000001,0.18000000000000002,0.09999999999999999,0.02,4,2,1,1,9,2,1,1,5,0,17,7,L,0.056666666666666664,0.09,0.09999999999999999,0.02
2,5,10,0,4,0.07,2,2,104,19,49,103,0.3500000000000001,0.12999999999999998,0.07,0.04,3,1,1,1,3,1,1,1,2,0,14,7,L,0.1166666666666667,0.12999999999999998,0.07,0.04
2,6,11,0,2,0.13999999999999999,2,3,53,76,46,9,0.5300000000000001,0.12999999999999998,0.04,0.02,4,1,1,1,7,1,1,1,4,0,18,7,L,0.0757142857142857,0.12999999999999998,0.04,0.02
2,6,12,0,3,0.25000000000000006,5,6,116,36,69,91,0.7300000000000003,0.05,0.20000000000000004,0.01,8,1,2,1,9,1,2,1,5,0,14,7,L,0.08111111111111112,0.05,0.09999999999999999,0.01
2,7,13,1,2,0.09,2,2,54,28,57,100,0.5300000000000002,0.05,0.060000000000000005,0.07,4,1,1,2,5,1,1,2,4,0,15,7,L,0.10600000000000001,0.05,0.060000000000000005,0.035
2,7,14,1,1,0.09999999999999999,3,4,81,75,63,68,0.4000000000000001,0.9900000000000007,0.01,0.01,4,4,1,1,5,4,1,1,3,0,14,7,L,0.08000000000000002,0.24750000000000008,0.01,0.01
2,8,15,1,15,0.09,2,2,23,21,22,24,0.42000000000000015,0.12999999999999998,2.849999999999983,0.01,4,1,9,1,5,1,17,1,6,1,72,7,L,0.08400000000000002,0.12999999999999998,0.16764705882352945,0.01
2,8,16,1,14,0.4400000000000002,4,5,94,87,38,112,0.5200000000000002,0.26000000000000006,0.20000000000000004,0.02,5,2,1,1,6,4,1,1,3,0,13,7,L,0.08666666666666667,0.065,0.20000000000000004,0.02
2,9,17,1,1,0.09999999999999999,2,2,2,120,77,33,8.949999999999855,0.01,0.01,0.01,20,1,1,1,50,1,1,1,3,0,16,7,L,0.17900000000000005,0.01,0.01,0.01
2,9,18,1,14,0.09999999999999999,2,3,41,51,92,44,0.5200000000000002,0.12999999999999998,0.02,0.07,3,1,1,2,4,1,1,2,3,0,17,7,L,0.13000000000000006,0.12999999999999998,0.02,0.035
2,10,19,1,7,0.08,2,2,2,8,32,79,5.699999999999925,0.01,0.01,0.01,16,1,1,1,30,1,1,1,6,0,20,7,L,0.19000000000000006,0.01,0.01,0.01
2,10,20,1,12,0.11999999999999998,2,2,43,59,51,41,0.4400000000000001,0.47000000000000025,0.060000000000000005,0.20000000000000004,3,3,1,2,3,3,1,2,5,0,18,7,L,0.1466666666666667,0.1566666666666667,0.060000000000000005,0.10000000000000002
2,11,21,1,14,0.10999999999999999,2,4,109,85,92,11,0.49000000000000016,0.11999999999999998,0.03,0.05,4,2,1,1,7,2,1,1,3,0,14,7,L,0.07000000000000002,0.06,0.03,0.05
2,11,22,1,1,0.13999999999999999,2,3,46,57,106,47,0.5100000000000001,0.12999999999999998,0.16,0.03,3,2,2,1,4,2,2,2,3,0,16,7,L,0.12750000000000003,0.065,0.08,0.015
2,12,23,1,1,0.09999999999999999,3,4,76,74,117,84,0.38000000000000006,0.12999999999999998,0.060000000000000005,0.05,4,2,1,1,5,2,1,1,3,0.5,20,7,L,0.07600000000000001,0.065,0.060000000000000005,0.05
2,12,24,1,8,0.15,2,3,38,47,100,48,0.5200000000000001,0.23000000000000007,0.01,0.060000000000000005,3,4,1,1,4,4,1,1,2,0.5,32,7,L,0.13000000000000003,0.057499999999999996,0.01,0.060000000000000005
2,13,25,1,2,0.10999999999999999,2,3,52,93,25,105,0.5000000000000002,0.21000000000000005,0.22000000000000006,0.01,4,1,2,1,5,1,2,1,4,0,14,7,L,0.1,0.21000000000000005,0.11000000000000003,0.01
2,13,26,1,12,0.2700000000000001,3,4,82,118,4,112,0.6200000000000002,0.17,0.03,0.07,4,2,1,1,5,3,1,1,5,0,13,7,L,0.12400000000000004,0.05666666666666666,0.03,0.07
2,14,27,1,13,0.15,3,3,111,110,87,13,0.5600000000000002,0.05,0.05,0.21000000000000005,5,1,1,1,6,1,1,1,2,0,13,7,L,0.09333333333333334,0.05,0.05,0.21000000000000005
2,14,28,1,7,0.17,2,4,6,80,76,99,0.6700000000000003,0.060000000000000005,0.09,0.060000000000000005,4,1,2,1,6,1,2,1,6,0,14,7,L,0.11166666666666669,0.060000000000000005,0.045000000000000005,0.060000000000000005
2,15,29,1,12,0.10999999999999999,2,3,61,41,48,18,1.0100000000000007,0.01,0.01,0.01,5,1,1,1,7,1,1,1,5,0,20,7,L,0.14428571428571435,0.01,0.01,0.01
2,15,30,1,13,0.3900000000000002,4,5,51,34,110,113,1.2800000000000007,0.02,0.01,0.01,6,1,1,1,7,1,1,1,2,0,13,7,L,0.18285714285714294,0.02,0.01,0.01
2,16,31,1,11,0.060000000000000005,2,3,72,62,22,40,0.4800000000000002,0.09999999999999999,0.07,0.02,4,2,1,1,5,2,1,1,4,0,19,7,L,0.09600000000000002,0.05,0.07,0.02
2,16,32,1,14,0.13999999999999999,2,3,52,106,31,105,0.5900000000000002,0.060000000000000005,0.01,0.03,4,2,1,1,6,2,1,1,3,0,13,7,L,0.09833333333333334,0.03,0.01,0.03
2,17,33,1,11,0.18000000000000002,4,4,64,15,102,19,0.6000000000000002,0.3300000000000001,0.01,0.060000000000000005,5,2,1,2,5,2,1,2,4,0,18,7,L,0.12000000000000004,0.16500000000000004,0.01,0.030000000000000002
2,17,34,1,3,0.16,2,3,32,36,10,5,0.42000000000000004,0.12999999999999998,0.07,1.0800000000000007,4,1,1,4,5,1,1,4,5,0,22,7,L,0.08399999999999999,0.12999999999999998,0.07,0.27000000000000013
2,18,35,1,12,0.2800000000000001,3,3,45,2,49,111,0.6700000000000003,0.19000000000000003,0.02,0.03,5,2,1,1,6,2,1,1,5,0,17,7,L,0.11166666666666669,0.09499999999999999,0.02,0.03
2,18,36,1,11,0.16,2,4,64,19,18,66,0.5000000000000001,0.10999999999999999,0.18000000000000002,0.03,4,1,2,1,8,1,2,1,4,0,20,7,L,0.06249999999999999,0.10999999999999999,0.09,0.03
2,19,37,1,14,0.09,2,3,93,87,50,110,0.42000000000000015,0.10999999999999999,0.11999999999999998,0.09,4,1,1,1,7,1,1,1,3,0,12,7,L,0.06,0.10999999999999999,0.11999999999999998,0.09
2,19,38,1,3,0.18000000000000002,3,3,33,36,28,14,0.5900000000000002,0.060000000000000005,1.330000000000001,0.01,5,1,3,1,7,1,3,1,5,0.5,36,7,L,0.0842857142857143,0.060000000000000005,0.4433333333333336,0.01
2,20,39,1,7,0.18000000000000002,5,5,5,1,60,41,0.5200000000000001,1.9100000000000015,0.03,0.01,7,8,1,1,8,9,1,1,6,0,21,7,L,0.065,0.2122222222222223,0.03,0.01
2,20,40,1,1,0.10999999999999999,2,3,80,103,20,23,0.4200000000000001,0.15,0.34000000000000014,0.15,4,2,2,2,5,2,2,2,3,0,17,7,L,0.084,0.07499999999999998,0.17000000000000004,0.075
2,21,41,1,12,0.16,2,2,6,75,55,50,5.52999999999993,0.02,0.01,0.01,16,1,1,1,27,1,1,1,5,0,17,7,L,0.20481481481481487,0.02,0.01,0.01
2,21,42,1,15,0.07,2,2,20,14,91,25,0.43000000000000016,0.08,0.16,0.37000000000000016,4,1,2,2,5,1,2,2,6,0,20,7,L,0.08600000000000001,0.08,0.08,0.18500000000000008
2,22,43,1,13,0.20000000000000004,4,5,118,86,96,9,0.37000000000000005,0.3000000000000001,0.07,0.09,5,2,1,2,6,2,1,2,2,0,14,7,L,0.06166666666666666,0.15000000000000002,0.07,0.045
2,22,44,1,3,0.15,2,4,28,97,57,75,0.4900000000000001,0.18000000000000002,0.04,0.02,4,2,1,1,6,2,1,1,5,0,14,7,L,0.08166666666666668,0.09,0.04,0.02
3,1,1,0,3,0.34000000000000014,2,7,33,27,23,100,0.8000000000000004,0.2800000000000001,0.11999999999999998,0.25000000000000006,4,2,3,2,17,7,5,3,5,0,18,7,L,0.047058823529411764,0.04,0.024,0.08333333333333334
3,1,2,0,1,0.35000000000000014,7,8,75,109,57,118,0.8800000000000003,0.45000000000000023,0.15,0.20000000000000004,10,2,2,1,19,10,2,1,3,0,11,7,L,0.046315789473684206,0.045,0.075,0.20000000000000004
3,2,3,0,4,0.35000000000000014,14,14,43,107,105,59,1.4900000000000009,0.01,0.01,0.02,18,1,1,1,31,1,1,1,2,0,13,7,L,0.04806451612903226,0.01,0.01,0.02
3,2,4,0,6,0.45000000000000023,2,13,6,1,7,81,0.7600000000000003,0.5900000000000003,0.03,0.09999999999999999,6,5,1,2,19,10,1,2,6,0.5,39,7,L,0.04,0.059,0.03,0.05
3,3,5,0,2,0.24000000000000007,2,6,4,90,57,47,2.4399999999999973,0.11999999999999998,0.01,0.01,13,2,1,1,52,2,1,1,4,0,18,7,L,0.04692307692307692,0.06,0.01,0.01
3,3,6,0,1,0.5100000000000002,17,21,75,21,80,103,1.1200000000000006,0.3100000000000001,0.46000000000000024,0.03,19,3,4,2,40,4,4,2,3,0,14,7,L,0.028,0.07750000000000001,0.11500000000000003,0.015
3,4,7,0,10,0.5400000000000003,19,24,88,10,95,29,1.0400000000000005,0.20000000000000004,0.5700000000000003,0.01,20,2,6,1,33,3,10,1,3,0,17,7,L,0.03151515151515152,0.06666666666666667,0.057,0.01
3,4,8,0,7,0.34000000000000014,2,11,19,18,43,79,0.9700000000000004,0.09,0.11999999999999998,0.09,4,1,3,2,27,1,3,2,6,0,20,7,L,0.035925925925925924,0.09,0.04,0.045
3,5,9,0,2,0.2800000000000001,2,13,54,5,4,1,0.7600000000000003,0.18000000000000002,0.10999999999999999,0.04,4,3,2,1,25,5,3,1,4,0.5,40,7,L,0.0304,0.036,0.03666666666666667,0.04
3,5,10,0,4,0.38000000000000017,2,9,105,26,75,21,0.6400000000000002,0.47000000000000025,0.35000000000000014,0.25000000000000006,4,4,4,5,11,7,6,6,2,0,16,7,L,0.05818181818181818,0.06714285714285714,0.05833333333333333,0.04166666666666667
3,6,11,0,2,0.26000000000000006,2,5,55,107,85,100,0.7900000000000003,0.23000000000000007,0.19000000000000003,0.05,4,2,2,2,17,6,4,3,4,0,11,7,L,0.04647058823529412,0.03833333333333333,0.0475,0.016666666666666666
3,6,12,0,9,0.4200000000000002,14,18,70,2,81,26,0.7500000000000003,0.7600000000000005,0.05,0.08,16,4,2,3,25,14,2,3,4,0,18,7,L,0.03,0.05428571428571429,0.025,0.02666666666666667
3,7,13,1,1,0.2900000000000001,6,9,74,68,61,84,0.8900000000000003,0.21000000000000005,0.22000000000000006,0.09999999999999999,9,3,7,3,21,7,9,4,3,0,14,7,L,0.04238095238095238,0.03,0.024444444444444446,0.025
3,7,14,1,2,0.23000000000000007,2,5,52,54,29,11,0.8300000000000004,0.20000000000000004,0.03,0.05,4,2,1,2,13,6,1,3,4,0,19,7,L,0.06384615384615384,0.03333333333333333,0.03,0.016666666666666666
3,8,15,1,7,0.24000000000000007,4,7,3,94,93,66,0.9000000000000005,0.3100000000000001,0.16,0.03,7,2,2,2,21,7,4,2,6,0,16,7,L,0.04285714285714286,0.04428571428571428,0.04,0.015
3,8,16,1,13,0.36000000000000015,2,12,113,82,118,81,0.8600000000000003,0.17,0.19000000000000003,0.15,5,3,3,2,25,7,4,3,2,0,10,7,L,0.0344,0.024285714285714285,0.0475,0.049999999999999996
3,9,17,1,12,0.2700000000000001,3,7,37,38,62,68,0.8300000000000003,0.20000000000000004,0.19000000000000003,0.01,5,2,2,1,18,5,9,1,5,0,18,7,L,0.04611111111111111,0.04,0.021111111111111112,0.01
3,9,18,1,2,0.47000000000000025,17,23,57,31,33,102,0.9100000000000005,0.4100000000000002,0.10999999999999999,0.09,20,5,3,2,32,9,3,2,4,0,16,7,L,0.0284375,0.04555555555555556,0.03666666666666667,0.045000000000000005
3,10,19,1,2,0.4000000000000002,2,11,75,54,15,73,1.4300000000000008,0.26000000000000006,0.060000000000000005,0.02,12,4,1,1,31,4,1,1,4,0,16,7,L,0.046129032258064515,0.065,0.060000000000000005,0.02
3,10,20,1,8,0.3200000000000001,5,12,101,106,88,87,0.8500000000000003,0.09999999999999999,0.25000000000000006,0.09,7,1,3,3,18,1,3,4,2,0,10,7,L,0.04722222222222222,0.09999999999999999,0.08333333333333334,0.022500000000000003
3,11,21,1,15,0.34000000000000014,2,8,21,65,16,94,0.9400000000000004,0.34000000000000014,0.48000000000000026,0.4400000000000002,5,4,6,8,26,7,7,9,6,0,19,7,L,0.036153846153846154,0.04857142857142857,0.06857142857142857,0.04888888888888889
3,11,22,1,2,0.4100000000000002,2,9,49,117,57,119,0.9900000000000004,0.3200000000000001,0.21000000000000005,0.07,8,3,4,1,25,7,5,1,4,0,12,7,L,0.0396,0.045714285714285714,0.042,0.07
3,12,23,1,2,0.2900000000000001,2,10,49,60,22,120,0.9800000000000004,0.16,0.02,0.05,4,2,1,1,27,8,1,1,4,0,16,7,L,0.0362962962962963,0.02,0.02,0.05
3,12,24,1,7,0.26000000000000006,2,8,1,10,66,39,0.8100000000000003,0.09999999999999999,0.20000000000000004,0.17,4,2,3,2,19,3,6,8,6,0,21,7,L,0.04263157894736842,0.03333333333333333,0.03333333333333333,0.02125
3,13,25,1,1,0.2700000000000001,12,13,73,74,108,41,0.9200000000000004,0.22000000000000006,0.01,0.48000000000000026,14,2,1,7,28,5,1,10,3,0,13,7,L,0.032857142857142856,0.044,0.01,0.048
3,13,26,1,3,0.46000000000000024,3,17,27,51,90,59,0.9100000000000005,0.3000000000000001,0.05,0.09999999999999999,6,2,1,1,33,4,1,1,5,0,16,7,L,0.027575757575757576,0.07500000000000001,0.05,0.09999999999999999
3,14,27,1,3,0.17,2,3,15,29,104,56,1.9300000000000013,0.03,0.02,0.02,14,2,2,1,37,2,2,1,5,0,17,7,L,0.052162162162162164,0.015,0.01,0.02
3,14,28,1,12,0.3100000000000001,9,9,61,1,11,40,1.650000000000001,0.12999999999999998,0.01,0.01,13,4,1,1,37,4,1,1,5,0,21,7,L,0.0445945945945946,0.0325,0.01,0.01
3,15,29,1,1,0.21000000000000005,7,10,9,34,27,3,6.719999999999906,0.01,0.02,0.16,20,1,2,4,141,1,2,5,3,0,22,7,L,0.04765957446808511,0.01,0.01,0.032
3,15,30,1,15,0.3200000000000001,2,6,18,60,50,45,0.7700000000000004,0.38000000000000017,0.08,0.3000000000000001,5,4,1,4,18,10,1,7,6,0,19,7,L,0.042777777777777776,0.038,0.08,0.04285714285714286
3,16,31,1,13,0.4200000000000002,2,17,119,24,22,15,0.7500000000000003,0.6100000000000003,0.05,0.07,4,4,1,2,23,13,1,2,2,0.5,38,7,L,0.03260869565217391,0.04692307692307692,0.05,0.035
3,16,32,1,12,0.2900000000000001,2,9,38,37,104,73,0.9000000000000004,0.38000000000000017,0.09,0.12999999999999998,4,3,2,4,27,9,3,5,5,0,15,7,L,0.03333333333333333,0.042222222222222223,0.03,0.026000000000000002
3,17,33,1,13,0.3000000000000001,4,7,79,116,35,83,0.9000000000000004,0.07,0.21000000000000005,0.01,6,2,2,1,20,3,3,1,2,0,13,7,L,0.045,0.023333333333333334,0.06999999999999999,0.01
3,17,34,1,12,0.3100000000000001,2,6,46,41,15,98,0.8300000000000003,0.24000000000000007,0.24000000000000007,0.08,4,2,4,2,18,3,6,2,5,0,18,7,L,0.04611111111111111,0.08,0.04,0.04
3,18,35,1,14,0.25000000000000006,3,8,91,26,18,93,0.7500000000000002,0.4000000000000002,0.02,0.04,5,4,1,2,14,10,1,3,3,0,17,7,L,0.05357142857142857,0.04,0.02,0.013333333333333334
3,18,36,1,1,0.5000000000000002,10,16,103,99,58,7,1.0600000000000005,0.18000000000000002,0.4400000000000002,0.02,18,1,4,2,29,1,5,2,3,0,14,7,L,0.036551724137931035,0.18000000000000002,0.08800000000000001,0.01
3,19,37,1,1,0.3000000000000001,5,8,73,84,80,82,0.9700000000000004,0.060000000000000005,0.13999999999999999,0.01,7,3,2,1,24,4,5,1,3,1,36,7,L,0.04041666666666666,0.015,0.028,0.01
3,19,38,1,8,0.3900000000000002,2,12,20,98,37,89,1.3600000000000008,0.01,0.10999999999999999,0.09999999999999999,10,1,3,2,31,1,4,3,2,0,16,7,L,0.04387096774193548,0.01,0.0275,0.03333333333333333
3,20,39,1,13,0.4200000000000002,3,10,117,83,63,72,1.1100000000000005,0.060000000000000005,0.19000000000000003,0.060000000000000005,6,1,4,1,20,1,8,1,2,0,13,7,L,0.05550000000000001,0.060000000000000005,0.02375,0.060000000000000005
3,20,40,1,12,0.24000000000000007,2,4,38,37,104,54,0.7300000000000003,0.09999999999999999,0.16,0.07,4,2,2,1,16,3,2,1,5,0,16,7,L,0.045625,0.03333333333333333,0.08,0.07
3,21,41,1,8,0.4200000000000002,2,8,103,40,94,98,0.8600000000000004,0.4300000000000002,0.03,0.03,5,5,1,1,20,14,1,1,2,0,12,7,L,0.043,0.030714285714285715,0.03,0.03
3,21,42,1,2,0.4000000000000002,3,14,55,57,77,78,0.9500000000000004,0.2800000000000001,0.11999999999999998,0.04,5,3,3,2,26,5,3,2,4,0,14,7,L,0.03653846153846154,0.056,0.04,0.02
3,22,43,1,12,0.34000000000000014,2,10,48,44,40,107,0.9000000000000004,0.13999999999999999,0.17,0.060000000000000005,4,2,2,1,22,3,4,2,5,0.5,32,7,L,0.04090909090909091,0.04666666666666667,0.042499999999999996,0.03
3,22,44,1,14,0.19000000000000003,5,5,16,88,94,18,1.2200000000000006,0.03,0.02,0.02,12,1,1,2,32,2,1,2,3,0,18,7,L,0.038125,0.015,0.02,0.01
4,1,1,0,6,0.3000000000000001,2,4,5,76,97,102,0.9500000000000004,2.8299999999999836,0.21000000000000005,0.23000000000000007,4,10,4,3,18,45,4,3,6,0,13,7,L,0.05277777777777778,0.0628888888888889,0.0525,0.07666666666666666
4,1,2,0,8,0.37000000000000016,2,8,119,118,91,59,1.1900000000000006,0.12999999999999998,0.26000000000000006,0.060000000000000005,4,2,2,1,25,5,5,1,2,0,11,7,L,0.0476,0.026000000000000002,0.052000000000000005,0.060000000000000005
4,2,3,0,2,0.18000000000000002,2,4,14,47,103,54,3.2199999999999793,0.01,0.01,0.01,16,1,1,1,47,1,1,1,4,0,17,7,L,0.06851063829787235,0.01,0.01,0.01
4,2,4,0,3,0.21000000000000005,2,3,30,75,35,113,0.9500000000000005,0.4300000000000002,0.20000000000000004,0.19000000000000003,4,4,2,2,15,9,3,5,5,0,15,7,L,0.06333333333333334,0.04777777777777778,0.06666666666666667,0.038
4,3,5,0,6,0.18000000000000002,2,3,2,101,8,105,0.8200000000000004,0.2800000000000001,0.09999999999999999,0.07,4,2,2,2,13,3,3,2,6,0,16,7,L,0.06307692307692307,0.09333333333333334,0.03333333333333333,0.035
4,3,6,0,7,0.24000000000000007,2,3,16,112,15,13,0.7300000000000003,0.49000000000000027,0.12999999999999998,0.5200000000000002,4,2,2,7,9,6,3,12,6,0.5,38,7,L,0.0811111111111111,0.08166666666666667,0.043333333333333335,0.043333333333333335
4,4,7,0,9,0.34000000000000014,2,10,61,66,70,103,1.1400000000000006,0.07,0.20000000000000004,0.05,5,1,3,1,20,1,5,1,4,0.5,26,7,L,0.057,0.07,0.04,0.05
4,4,8,0,2,0.3100000000000001,2,4,54,27,79,36,0.8300000000000003,0.5400000000000003,0.2900000000000001,0.05,6,2,2,2,10,8,3,2,4,0,17,7,L,0.083,0.0675,0.09666666666666665,0.025
4,5,9,0,3,0.2900000000000001,2,6,26,36,57,96,1.1600000000000006,0.15,0.46000000000000024,0.04,4,2,3,2,20,3,9,2,5,0,17,7,L,0.058,0.05,0.05111111111111111,0.02
4,5,10,0,9,0.24000000000000007,2,5,72,4,65,11,1.0300000000000005,0.20000000000000004,0.26000000000000006,0.5200000000000002,6,1,3,6,15,1,5,9,4,0,20,7,L,0.06866666666666667,0.20000000000000004,0.052,0.057777777777777775
4,6,11,0,1,0.2800000000000001,2,5,72,82,23,15,1.2900000000000007,0.12999999999999998,0.08,0.2900000000000001,5,2,1,5,18,3,1,6,3,0,19,7,L,0.07166666666666667,0.04333333333333333,0.08,0.04833333333333334
4,6,12,0,4,0.6300000000000003,2,11,98,102,96,26,1.0300000000000005,0.5900000000000003,0.07,0.22000000000000006,5,3,2,2,15,5,2,7,2,0,12,7,L,0.06866666666666668,0.11800000000000002,0.035,0.03142857142857143
4,7,13,1,8,0.2800000000000001,2,3,107,95,22,45,0.8800000000000003,0.5800000000000003,0.46000000000000024,0.09,4,2,2,2,13,8,6,2,2,0,16,7,L,0.06769230769230769,0.0725,0.07666666666666666,0.045
4,7,14,1,13,0.2900000000000001,2,7,118,58,111,3,1.1500000000000006,0.24000000000000007,0.16,0.02,4,3,2,1,25,6,2,1,2,0,14,7,L,0.046,0.04,0.07999999999999999,0.02
4,8,15,1,3,0.2800000000000001,2,9,35,27,60,114,1.0400000000000005,0.25000000000000006,0.09,0.07,5,2,2,1,18,5,4,1,5,0,16,7,L,0.05777777777777778,0.05,0.0225,0.07
4,8,16,1,15,0.23000000000000007,2,6,91,18,22,93,1.2100000000000006,0.060000000000000005,0.19000000000000003,0.3300000000000001,4,2,2,2,21,3,5,5,6,0,18,7,L,0.05761904761904762,0.02,0.038,0.066
4,9,17,1,11,0.34000000000000014,2,7,13,65,102,46,1.0900000000000005,0.20000000000000004,0.060000000000000005,0.35000000000000014,4,3,1,1,20,5,1,3,4,0,17,7,L,0.0545,0.04,0.060000000000000005,0.1166666666666667
4,9,18,1,13,0.25000000000000006,2,7,118,120,5,35,1.0000000000000004,0.4200000000000002,3.6799999999999655,0.01,4,3,18,1,17,8,56,1,2,0,15,7,L,0.058823529411764705,0.052500000000000005,0.06571428571428571,0.01
4,10,19,1,13,0.25000000000000006,2,6,13,75,84,81,6.209999999999917,0.04,0.01,0.01,20,2,1,1,94,2,1,1,2,0.5,24,7,L,0.06606382978723405,0.02,0.01,0.01
4,10,20,1,8,0.18000000000000002,2,3,108,106,62,91,0.5700000000000002,0.35000000000000014,0.5200000000000002,0.09,5,3,4,1,9,7,6,1,2,0,11,7,L,0.06333333333333334,0.049999999999999996,0.08666666666666668,0.09
4,11,21,1,11,0.38000000000000017,2,8,68,74,44,67,1.0300000000000005,0.38000000000000017,0.12999999999999998,0.03,5,2,2,1,16,4,4,1,4,0,16,7,L,0.064375,0.09500000000000001,0.0325,0.03
4,11,22,1,13,0.20000000000000004,2,5,112,86,19,36,0.7000000000000003,0.34000000000000014,0.3200000000000001,0.19000000000000003,5,2,3,2,9,3,4,2,2,0,16,7,L,0.07777777777777779,0.11333333333333336,0.08000000000000002,0.095
4,12,23,1,2,0.19000000000000003,2,4,53,57,106,59,0.8700000000000004,0.15,0.38000000000000017,0.02,5,2,4,1,18,3,5,1,4,0.5,26,7,L,0.04833333333333333,0.05,0.076,0.02
4,12,24,1,13,0.3300000000000001,2,7,66,111,68,46,1.2500000000000007,0.01,0.10999999999999999,0.13999999999999999,4,1,1,2,20,1,1,3,2,0,15,7,L,0.0625,0.01,0.10999999999999999,0.04666666666666666
4,13,25,1,12,0.2800000000000001,2,5,43,45,46,37,1.1200000000000006,0.2800000000000001,0.08,0.5000000000000002,6,3,2,3,11,5,3,4,5,1,60,7,L,0.10181818181818182,0.056,0.02666666666666667,0.12500000000000006
4,13,26,1,14,0.23000000000000007,2,5,94,100,59,55,0.8400000000000004,0.46000000000000024,0.13999999999999999,0.02,6,3,2,1,17,11,3,1,3,0,13,7,L,0.04941176470588235,0.04181818181818182,0.04666666666666667,0.02
4,14,27,1,2,0.23000000000000007,2,6,55,53,87,27,0.8500000000000004,0.07,0.3200000000000001,0.23000000000000007,5,2,3,2,18,3,7,3,4,0,16,7,L,0.04722222222222222,0.023333333333333334,0.045714285714285714,0.07666666666666666
4,14,28,1,8,0.24000000000000007,2,6,97,42,17,104,1.2000000000000006,0.21000000000000005,0.05,0.01,7,3,2,1,22,7,2,1,2,0,15,7,L,0.05454545454545454,0.03,0.025,0.01
4,15,29,1,14,0.2700000000000001,2,8,94,58,47,42,0.9600000000000004,0.34000000000000014,0.15,0.060000000000000005,4,4,2,1,15,11,2,1,3,0,17,7,L,0.064,0.03090909090909091,0.07499999999999998,0.060000000000000005
4,15,30,1,1,0.2800000000000001,2,5,77,104,22,32,0.9000000000000004,0.35000000000000014,0.35000000000000014,0.02,4,2,2,1,19,3,6,2,3,0,16,7,L,0.04736842105263158,0.11666666666666665,0.058333333333333334,0.01
4,16,31,1,7,0.2800000000000001,3,10,55,8,1,59,1.0000000000000004,0.11999999999999998,0.15,0.2700000000000001,5,2,2,3,19,5,3,9,6,0,20,7,L,0.05263157894736842,0.024,0.05,0.030000000000000002
4,16,32,1,11,0.16,2,4,72,38,69,20,0.7300000000000003,0.35000000000000014,0.060000000000000005,0.16,6,2,1,2,12,7,1,3,4,0,19,7,L,0.060833333333333336,0.05,0.060000000000000005,0.05333333333333334
4,17,33,1,7,0.6500000000000004,2,12,3,12,2,1,1.1100000000000005,0.48000000000000026,0.07,0.9800000000000006,4,2,1,10,18,10,1,16,6,1,72,7,L,0.061666666666666675,0.048,0.07,0.06125
4,17,34,1,12,0.36000000000000015,2,5,37,41,98,100,1.3200000000000007,0.03,0.12999999999999998,0.07,4,1,2,1,30,1,3,1,5,0,14,7,L,0.044,0.03,0.043333333333333335,0.07
4,18,35,1,11,0.5600000000000003,20,24,71,69,75,27,1.3600000000000008,0.5100000000000002,0.5000000000000002,0.060000000000000005,20,2,4,3,41,8,7,4,4,0,16,7,L,0.033170731707317075,0.06375,0.07142857142857142,0.015
4,18,36,1,12,0.7200000000000004,4,17,47,55,52,44,1.2700000000000007,0.15,0.23000000000000007,0.11999999999999998,6,2,2,2,21,3,4,3,5,0,18,7,L,0.06047619047619048,0.05,0.0575,0.04
4,19,37,1,7,0.21000000000000005,3,4,8,60,38,1,0.9700000000000005,0.2900000000000001,0.12999999999999998,0.7200000000000004,5,3,3,3,18,6,5,7,6,0,21,7,L,0.05388888888888889,0.04833333333333333,0.026,0.10285714285714286
4,19,38,1,15,0.26000000000000006,2,6,19,17,35,61,0.6200000000000002,2.3299999999999943,0.04,0.05,4,13,2,2,12,38,2,2,6,0,21,7,L,0.051666666666666666,0.06131578947368421,0.02,0.025
4,20,39,1,13,0.08,2,2,13,119,82,117,3.7299999999999662,0.01,0.09,0.01,18,1,3,1,65,1,3,1,2,0,13,7,L,0.05738461538461538,0.01,0.03,0.01
4,20,40,1,8,0.25000000000000006,2,8,106,99,38,1,0.9100000000000004,0.09999999999999999,0.4100000000000002,0.04,4,1,5,1,18,1,7,1,2,0,15,7,L,0.050555555555555555,0.09999999999999999,0.05857142857142857,0.04
4,21,41,1,1,0.47000000000000025,3,6,84,20,25,117,1.0000000000000004,0.26000000000000006,0.3000000000000001,0.04,5,2,2,1,12,3,6,1,3,0,16,7,L,0.08333333333333334,0.08666666666666666,0.049999999999999996,0.04
4,21,42,1,14,0.2900000000000001,4,6,11,12,3,108,1.4000000000000008,0.18000000000000002,0.060000000000000005,0.08,7,3,2,2,19,3,2,2,3,0.5,38,7,L,0.0736842105263158,0.06,0.03,0.04
4,22,43,1,8,0.21000000000000005,2,3,104,108,14,97,0.7600000000000003,0.49000000000000027,0.3100000000000001,0.02,6,5,3,1,10,11,8,1,2,0.5,18,7,L,0.07600000000000001,0.04454545454545455,0.03875,0.02
4,22,44,1,3,0.5600000000000003,2,5,29,25,7,89,1.0500000000000005,0.5100000000000002,0.09,0.3100000000000001,5,2,2,4,11,7,3,5,5,0,19,7,L,0.09545454545454546,0.07285714285714287,0.030000000000000002,0.062000000000000006
5,1,1,0,4,0.34000000000000014,2,3,101,45,44,77,1.0900000000000005,0.7700000000000005,0.19000000000000003,1.0500000000000007,4,2,1,2,7,3,1,3,2,0,15,7,L,0.15571428571428575,0.25666666666666677,0.19000000000000003,0.35000000000000014
5,1,2,0,3,0.38000000000000017,2,4,36,49,34,96,1.1400000000000006,0.5000000000000002,0.07,0.5300000000000002,4,2,1,2,6,2,1,5,5,0,17,7,L,0.19000000000000006,0.2500000000000001,0.07,0.106
5,2,3,0,9,0.35000000000000014,2,3,69,47,7,40,1.0600000000000005,0.6900000000000004,0.19000000000000003,0.12999999999999998,4,2,1,1,7,2,1,1,4,0,20,7,L,0.15142857142857147,0.34500000000000014,0.19000000000000003,0.12999999999999998
5,2,4,0,7,0.2800000000000001,2,3,17,15,87,109,0.7600000000000003,16.719999999999814,0.01,0.01,4,11,1,1,5,14,1,1,6,0,17,7,L,0.15200000000000002,1.1942857142857095,0.01,0.01
5,3,5,0,1,0.3100000000000001,2,4,1,74,112,40,1.2200000000000006,0.12999999999999998,0.26000000000000006,0.37000000000000016,4,1,1,2,7,1,1,2,3,0,16,7,L,0.17428571428571435,0.12999999999999998,0.26000000000000006,0.18500000000000003
5,3,6,0,4,0.3300000000000001,2,3,29,90,21,62,2.0500000000000016,0.13999999999999999,1.7600000000000013,5.749999999999922,3,1,2,6,4,1,2,8,2,0,18,7,L,0.5125000000000003,0.13999999999999999,0.8800000000000007,0.7187500000000003
5,4,7,0,4,0.3000000000000001,2,4,107,100,108,97,0.8100000000000003,0.26000000000000006,0.2700000000000001,0.26000000000000006,3,1,1,2,5,1,1,2,2,1,24,7,L,0.16200000000000006,0.26000000000000006,0.2700000000000001,0.12999999999999998
5,4,8,0,8,1.0200000000000007,2,3,118,67,69,119,1.660000000000001,0.6100000000000003,0.09999999999999999,0.15,4,2,1,1,5,4,1,1,2,0,12,7,L,0.33200000000000013,0.15250000000000002,0.09999999999999999,0.15
5,5,9,0,10,0.3100000000000001,2,5,90,88,54,117,1.3400000000000007,0.10999999999999999,0.9900000000000007,0.25000000000000006,4,1,2,2,10,1,2,2,3,0,12,7,L,0.13400000000000004,0.10999999999999999,0.4950000000000003,0.12500000000000003
5,5,10,0,9,1.7600000000000013,5,9,71,68,19,13,2.330000000000002,0.03,0.24000000000000007,0.35000000000000014,7,1,1,1,11,1,1,1,4,0,20,7,L,0.2118181818181819,0.03,0.24000000000000007,0.35000000000000014
5,6,11,0,5,0.3200000000000001,2,3,44,71,61,109,0.8700000000000003,0.47000000000000025,0.24000000000000007,0.3200000000000001,4,1,1,2,5,1,1,3,5,0,15,7,L,0.17400000000000004,0.47000000000000025,0.24000000000000007,0.10666666666666666
5,6,12,0,4,0.34000000000000014,2,3,105,53,51,108,1.2900000000000007,0.5600000000000003,0.2700000000000001,0.7000000000000004,4,1,1,2,5,1,1,2,2,0,12,7,L,0.2580000000000001,0.5600000000000003,0.2700000000000001,0.3500000000000002
5,7,13,1,7,0.20000000000000004,2,3,7,4,45,105,0.6300000000000002,1.5400000000000011,0.24000000000000007,0.6000000000000003,3,2,1,2,4,3,1,2,6,0,19,7,L,0.15750000000000006,0.5133333333333336,0.24000000000000007,0.30000000000000016
5,7,14,1,3,0.12999999999999998,2,2,13,31,34,19,13.409999999999762,0.01,0.01,0.01,14,1,1,1,20,1,1,1,5,0,22,7,L,0.6704999999999982,0.01,0.01,0.01
5,8,15,1,14,0.3100000000000001,2,3,85,20,91,23,1.2600000000000007,0.5600000000000003,0.12999999999999998,0.10999999999999999,5,2,2,1,7,2,2,1,3,0,18,7,L,0.18000000000000005,0.2800000000000001,0.065,0.10999999999999999
5,8,16,1,8,0.26000000000000006,2,3,98,47,68,83,0.5500000000000002,2.719999999999986,0.05,0.03,3,3,1,1,4,3,1,1,2,0,14,7,L,0.1375,0.9066666666666667,0.05,0.03
5,9,17,1,15,0.35000000000000014,2,3,14,13,15,71,1.2400000000000007,6.029999999999916,1.7200000000000013,0.01,4,6,4,1,7,8,5,1,6,0.5,40,7,L,0.17714285714285719,0.7537499999999996,0.3440000000000002,0.01
5,9,18,1,7,0.2700000000000001,2,3,7,2,9,8,1.0500000000000005,32.890000000002026,0.02,0.01,5,16,1,1,7,41,1,1,6,1,72,7,L,0.15000000000000002,0.8021951219512176,0.02,0.01
5,10,19,1,15,0.35000000000000014,2,3,15,14,66,74,1.0400000000000005,5.779999999999921,0.01,2.479999999999991,4,5,1,6,5,11,1,6,6,0,19,7,L,0.20800000000000007,0.5254545454545457,0.01,0.41333333333333355
5,10,20,1,7,0.20000000000000004,2,4,10,8,86,6,0.5800000000000002,0.25000000000000006,2.569999999999989,0.02,4,1,6,1,6,1,6,1,6,0.5,39,7,L,0.09666666666666668,0.25000000000000006,0.42833333333333357,0.02
5,11,21,1,2,0.3000000000000001,2,3,16,59,60,89,1.2500000000000007,0.13999999999999999,4.339999999999952,0.01,3,1,4,1,4,1,5,1,4,0,17,7,L,0.31250000000000017,0.13999999999999999,0.8679999999999987,0.01
5,11,22,1,12,0.3100000000000001,2,3,40,61,70,47,0.8300000000000003,0.6500000000000004,0.09999999999999999,0.13999999999999999,4,2,1,1,5,3,1,1,5,0,18,7,L,0.16600000000000004,0.21666666666666673,0.09999999999999999,0.13999999999999999
5,12,23,1,14,0.16,2,2,15,85,95,30,6.9599999999999,0.01,0.01,0.01,8,1,1,1,13,1,1,1,3,0,17,7,L,0.5353846153846153,0.01,0.01,0.01
5,12,24,1,13,0.46000000000000024,2,3,117,4,37,44,0.8400000000000004,0.9900000000000007,0.18000000000000002,0.16,4,2,1,1,5,2,1,1,2,0,18,7,L,0.16800000000000004,0.4950000000000002,0.18000000000000002,0.16
5,13,25,1,12,0.45000000000000023,2,4,38,68,114,70,1.0400000000000005,0.46000000000000024,0.6700000000000004,0.11999999999999998,4,1,2,1,6,1,2,1,5,0,15,7,L,0.1733333333333334,0.46000000000000024,0.33500000000000013,0.11999999999999998
5,13,26,1,8,0.4100000000000002,4,5,97,27,15,19,0.8600000000000004,0.4000000000000002,0.5800000000000003,3.849999999999962,6,2,1,5,7,2,1,6,2,0,19,7,L,0.12285714285714287,0.2000000000000001,0.5800000000000003,0.641666666666667
5,14,27,1,11,0.2900000000000001,2,4,68,63,66,26,0.9800000000000004,0.08,0.5500000000000003,0.09,4,1,2,1,6,1,4,1,4,0.5,29,7,L,0.16333333333333339,0.08,0.1375,0.09
5,14,28,1,8,0.6200000000000003,6,8,104,103,99,56,1.0700000000000005,0.11999999999999998,0.22000000000000006,1.5200000000000011,8,1,2,3,10,1,3,3,2,0.5,16,7,L,0.10700000000000003,0.11999999999999998,0.07333333333333333,0.506666666666667
5,15,29,1,3,0.24000000000000007,2,3,25,53,32,59,0.8000000000000004,0.9000000000000006,0.20000000000000004,1.0400000000000007,4,1,2,2,5,1,2,2,5,0,18,7,L,0.16000000000000006,0.9000000000000006,0.1,0.5200000000000002
5,15,30,1,8,0.49000000000000027,8,9,102,103,89,16,0.9600000000000005,0.22000000000000006,0.8100000000000005,0.4200000000000002,9,1,1,2,10,1,1,2,2,0,13,7,L,0.09600000000000003,0.22000000000000006,0.8100000000000005,0.21000000000000008
5,16,31,1,1,1.1900000000000008,2,3,78,56,76,60,1.4700000000000009,0.8500000000000005,0.08,2.669999999999987,4,2,1,3,5,2,1,4,3,0,14,7,L,0.29400000000000015,0.4250000000000002,0.08,0.6675000000000004
5,16,32,1,11,0.22000000000000006,2,3,69,67,4,101,0.6100000000000002,0.7800000000000005,0.24000000000000007,0.7300000000000004,3,2,1,3,4,3,1,3,4,0,16,7,L,0.15250000000000005,0.2600000000000001,0.24000000000000007,0.2433333333333334
5,17,33,1,15,0.9700000000000006,2,4,33,92,25,110,1.730000000000001,0.46000000000000024,0.05,3.4899999999999696,3,3,1,3,5,3,2,7,6,0,15,7,L,0.34600000000000014,0.15333333333333335,0.025,0.49857142857142883
5,17,34,1,1,3.7399999999999642,3,5,78,73,11,97,4.179999999999964,0.7600000000000005,0.08,0.07,5,1,1,1,7,1,1,1,3,0,14,7,L,0.5971428571428575,0.7600000000000005,0.08,0.07
5,18,35,1,1,0.4200000000000002,2,3,78,80,2,8,1.0700000000000005,0.2900000000000001,0.24000000000000007,0.19000000000000003,4,1,2,2,6,1,2,2,3,0,18,7,L,0.17833333333333337,0.2900000000000001,0.12,0.095
5,18,36,1,12,0.18000000000000002,2,2,13,92,54,95,29.530000000001788,0.34000000000000014,0.01,0.04,18,1,1,1,37,2,1,1,5,0,16,7,L,0.7981081081081084,0.17000000000000004,0.01,0.04
5,19,37,1,13,0.4100000000000002,2,3,116,119,33,36,1.2500000000000007,0.2900000000000001,0.25000000000000006,0.19000000000000003,4,1,1,1,10,1,1,1,2,0,14,7,L,0.12500000000000003,0.2900000000000001,0.25000000000000006,0.19000000000000003
5,19,38,1,12,0.7400000000000004,2,3,53,49,40,50,1.590000000000001,0.22000000000000006,0.11999999999999998,0.2700000000000001,4,2,1,2,6,2,1,2,5,0.5,29,7,L,0.2650000000000001,0.11000000000000001,0.11999999999999998,0.135
5,20,39,1,3,0.17,2,3,34,26,80,109,0.6600000000000003,0.11999999999999998,0.9600000000000006,0.16,4,1,2,1,5,1,2,1,5,0,15,7,L,0.13200000000000003,0.11999999999999998,0.48000000000000026,0.16
5,20,40,1,7,0.34000000000000014,2,3,2,50,87,91,1.3500000000000008,0.25000000000000006,0.2800000000000001,1.280000000000001,4,1,1,2,5,1,1,2,6,0,16,7,L,0.27000000000000013,0.25000000000000006,0.2800000000000001,0.6400000000000005
5,21,41,1,8,0.26000000000000006,2,3,107,18,94,32,0.8000000000000003,0.38000000000000017,0.8800000000000006,0.7000000000000004,4,1,2,2,5,1,2,2,2,0,16,7,L,0.16000000000000003,0.38000000000000017,0.4400000000000003,0.3500000000000002
5,21,42,1,1,0.5400000000000003,6,8,49,79,53,83,1.3000000000000007,0.16,0.3900000000000002,1.0500000000000007,7,1,2,2,9,1,2,2,3,0,14,7,L,0.14444444444444451,0.16,0.19500000000000003,0.5250000000000004
6,1,1,0,10,0.13999999999999999,2,3,87,40,64,69,0.7600000000000003,0.18000000000000002,0.24000000000000007,0.2700000000000001,5,2,1,3,6,2,1,3,3,0,16,7,L,0.1266666666666667,0.09,0.24000000000000007,0.09000000000000001
6,1,2,0,2,0.09,1,2,74,49,25,55,0.7300000000000003,0.05,0.08,0.02,3,1,1,1,7,1,1,1,4,0,16,7,L,0.10428571428571429,0.05,0.08,0.02
6,2,3,0,7,0.08,2,2,15,14,61,112,0.3600000000000001,8.339999999999867,0.02,0.01,3,9,1,1,3,17,1,1,6,0,18,7,L,0.12000000000000002,0.49058823529411794,0.02,0.01
6,2,4,0,10,0.10999999999999999,2,3,86,58,89,39,0.4100000000000001,0.25000000000000006,0.05,0.15,4,2,1,1,5,3,1,1,3,0,15,7,L,0.082,0.08333333333333333,0.05,0.15
6,3,5,0,9,0.15,2,2,13,85,110,86,1.660000000000001,0.11999999999999998,0.02,0.02,8,2,1,1,8,2,1,1,4,0,14,7,L,0.20750000000000007,0.06,0.02,0.02
6,3,6,0,4,0.09,2,2,97,29,2,32,0.40000000000000013,0.22000000000000006,1.0900000000000007,0.01,3,1,3,1,3,1,3,1,2,0,18,7,L,0.13333333333333336,0.22000000000000006,0.3633333333333335,0.01
6,4,7,0,3,0.12999999999999998,2,2,34,79,15,33,0.5700000000000002,0.35000000000000014,0.07,0.05,4,2,1,1,4,2,1,1,5,0,19,7,L,0.14250000000000002,0.17500000000000002,0.07,0.05
6,4,8,0,8,0.21000000000000005,2,4,112,5,114,86,0.5900000000000002,0.10999999999999999,0.09999999999999999,0.13999999999999999,4,1,1,2,6,1,1,2,2,0,13,7,L,0.09833333333333334,0.10999999999999999,0.09999999999999999,0.06999999999999999
6,5,9,0,7,0.12999999999999998,2,4,17,87,24,13,0.5500000000000002,0.12999999999999998,1.0600000000000007,0.01,4,1,4,1,8,1,4,1,6,0.5,39,7,L,0.06875,0.12999999999999998,0.2650000000000001,0.01
6,5,10,0,8,0.2900000000000001,2,4,59,78,12,29,2.1600000000000015,0.01,0.04,0.01,7,1,1,1,9,1,1,1,2,0,18,7,L,0.2400000000000001,0.01,0.04,0.01
6,6,11,0,9,0.18000000000000002,4,5,71,6,64,101,0.4800000000000001,0.16,0.07,0.4200000000000002,6,1,1,2,7,1,1,2,4,0,16,7,L,0.06857142857142857,0.16,0.07,0.21000000000000008
6,6,12,0,1,0.16,2,3,25,54,32,34,0.6500000000000002,0.20000000000000004,0.10999999999999999,0.04,4,1,2,1,5,1,2,1,3,0.5,34,7,L,0.13000000000000003,0.20000000000000004,0.055,0.04
6,7,13,1,2,0.8300000000000005,5,7,39,42,13,19,1.590000000000001,0.3900000000000002,3.899999999999961,0.8300000000000005,8,2,11,3,10,2,14,3,4,0,22,7,L,0.15900000000000006,0.1950000000000001,0.2785714285714287,0.2766666666666668
6,7,14,1,8,0.16,5,6,104,3,71,88,0.37000000000000005,0.8000000000000005,0.060000000000000005,0.03,6,1,1,1,7,1,1,1,2,0,15,7,L,0.052857142857142866,0.8000000000000005,0.060000000000000005,0.03
6,8,15,1,1,0.11999999999999998,2,3,102,57,19,21,1.3200000000000007,0.04,0.19000000000000003,0.01,6,1,2,1,9,1,2,1,3,0,18,7,L,0.14666666666666672,0.04,0.095,0.01
6,8,16,1,14,0.12999999999999998,2,4,91,69,33,10,0.43000000000000005,0.24000000000000007,0.060000000000000005,0.05,3,2,1,1,5,2,1,1,3,0,18,7,L,0.08600000000000002,0.12000000000000001,0.060000000000000005,0.05
6,9,17,1,15,0.12999999999999998,2,3,18,46,40,15,0.4800000000000001,0.5000000000000002,0.22000000000000006,0.23000000000000007,4,4,5,2,5,4,5,2,6,0,22,7,L,0.096,0.12500000000000003,0.044,0.11500000000000003
6,9,18,1,7,0.15,2,2,10,61,12,93,0.5400000000000001,0.21000000000000005,0.38000000000000017,0.03,3,2,3,1,3,2,3,1,6,0,19,7,L,0.18000000000000005,0.10499999999999998,0.1266666666666667,0.03
6,10,19,1,11,0.22000000000000006,2,3,70,6,1,8,0.6800000000000003,0.09,0.10999999999999999,0.08,4,1,2,2,5,1,2,2,4,0.5,40,7,L,0.136,0.09,0.055,0.04
6,10,20,1,12,0.15,2,3,40,20,52,50,0.6900000000000003,0.09,0.19000000000000003,0.060000000000000005,4,1,1,1,5,1,1,1,5,0,19,7,L,0.13800000000000004,0.09,0.19000000000000003,0.060000000000000005
6,11,21,1,14,2.199999999999997,4,7,13,99,27,20,3.469999999999998,0.01,0.16,0.01,7,1,2,1,10,1,2,1,3,0,19,7,L,0.3470000000000002,0.01,0.07999999999999999,0.01
6,11,22,1,1,0.10999999999999999,2,2,83,73,45,42,0.5200000000000002,0.09999999999999999,0.2800000000000001,0.02,4,1,1,1,4,1,1,1,3,0,16,7,L,0.13000000000000003,0.09999999999999999,0.2800000000000001,0.02
6,12,23,1,11,0.37000000000000016,2,4,74,66,6,61,0.6900000000000003,0.7600000000000005,0.04,0.01,3,3,1,1,5,3,1,1,4,0,17,7,L,0.13800000000000004,0.25333333333333347,0.04,0.01
6,12,24,1,8,0.15,2,3,86,19,38,47,0.6800000000000003,0.13999999999999999,0.07,0.02,4,2,1,1,5,2,1,1,2,0,19,7,L,0.13600000000000004,0.07,0.07,0.02
6,13,25,1,3,0.17,2,3,65,28,118,71,1.510000000000001,0.060000000000000005,0.04,0.01,6,1,1,1,8,1,1,1,5,0,15,7,L,0.18875000000000008,0.060000000000000005,0.04,0.01
6,13,26,1,2,0.13999999999999999,2,3,47,97,44,54,0.5100000000000001,0.2700000000000001,0.02,0.01,3,2,1,1,4,2,1,1,4,0,16,7,L,0.12750000000000003,0.13500000000000004,0.02,0.01
6,14,27,1,11,0.34000000000000014,3,3,66,62,48,21,0.7300000000000003,0.22000000000000006,4.40999999999995,0.01,5,1,5,1,5,1,7,1,4,0,19,7,L,0.14600000000000002,0.22000000000000006,0.6300000000000004,0.01
6,14,28,1,3,0.4000000000000002,3,4,26,60,102,56,0.7500000000000003,1.0800000000000007,0.04,0.19000000000000003,5,2,1,2,6,2,1,2,5,0,15,7,L,0.12500000000000003,0.5400000000000004,0.04,0.09500000000000001
6,15,29,1,8,3.1999999999999758,5,9,36,1,10,100,3.929999999999976,0.19000000000000003,0.02,0.01,7,1,1,1,11,1,1,1,2,0,19,7,L,0.35727272727272746,0.19000000000000003,0.02,0.01
6,15,30,1,1,0.13999999999999999,2,3,45,41,52,75,0.4700000000000001,0.3000000000000001,0.09,0.3000000000000001,3,2,1,2,4,2,1,2,3,0,17,7,L,0.11750000000000003,0.15000000000000002,0.09,0.15000000000000005
6,16,31,1,13,0.07,1,2,40,44,114,18,0.5800000000000003,0.11999999999999998,0.02,0.060000000000000005,3,2,1,1,5,2,1,1,2,0,18,7,L,0.116,0.06,0.02,0.060000000000000005
6,16,32,1,8,0.5500000000000003,4,4,59,83,78,54,1.8000000000000012,0.01,0.08,0.5200000000000002,7,1,1,3,7,1,1,3,2,0,14,7,L,0.2571428571428573,0.01,0.08,0.1733333333333334
6,17,33,1,14,0.3200000000000001,2,3,29,27,94,99,0.6600000000000003,0.19000000000000003,0.11999999999999998,0.6600000000000004,3,2,1,2,4,2,1,2,3,0,15,7,L,0.16500000000000004,0.095,0.11999999999999998,0.3300000000000002
6,17,34,1,15,0.13999999999999999,2,3,111,15,118,115,0.4700000000000001,0.08,0.6900000000000004,3.509999999999969,3,1,3,7,4,1,3,10,6,0.5,18,7,L,0.11750000000000003,0.08,0.2300000000000001,0.3510000000000002
6,18,35,1,1,0.21000000000000005,3,3,14,24,31,49,6.449999999999911,0.01,0.01,0.01,17,1,1,1,22,1,1,1,3,0,21,7,L,0.2931818181818183,0.01,0.01,0.01
6,18,36,1,13,0.09,2,3,112,11,118,1,0.5000000000000002,0.09999999999999999,0.07,0.02,5,2,2,1,6,2,2,1,2,0,16,7,L,0.08333333333333334,0.049999999999999996,0.035,0.02
6,19,37,1,8,0.09,2,3,103,17,98,16,0.4600000000000002,0.21000000000000005,0.05,0.16,4,1,1,2,5,1,1,2,2,0,16,7,L,0.09200000000000001,0.21000000000000005,0.05,0.08
6,19,38,1,14,0.5200000000000002,9,9,90,117,10,9,0.8200000000000003,0.16,0.12999999999999998,0.17,10,1,2,1,10,1,2,1,3,0,17,7,L,0.082,0.16,0.06499999999999999,0.17
6,20,39,1,11,0.13999999999999999,2,3,69,117,46,47,0.4700000000000001,0.37000000000000016,0.8900000000000006,0.03,3,2,2,1,4,2,2,1,4,0,16,7,L,0.11750000000000003,0.18500000000000005,0.4450000000000003,0.03
6,20,40,1,8,0.15,2,3,107,35,8,58,0.5200000000000001,0.12999999999999998,4.149999999999956,0.01,4,1,4,1,5,1,4,1,2,0,17,7,L,0.10400000000000001,0.12999999999999998,1.0374999999999928,0.01
6,21,41,1,15,0.07,3,3,13,24,102,43,0.3400000000000001,0.15,0.3000000000000001,0.07,4,1,1,1,4,1,1,1,6,0,19,7,L,0.08500000000000002,0.15,0.3000000000000001,0.07
6,21,42,1,1,0.19000000000000003,4,6,61,83,6,8,0.5900000000000002,0.05,0.08,0.060000000000000005,5,1,1,1,7,1,1,1,3,0,19,7,L,0.08428571428571431,0.05,0.08,0.060000000000000005
6,22,43,1,12,1.470000000000001,5,7,2,107,72,75,5.089999999999968,0.34000000000000014,0.01,0.05,14,1,1,2,20,1,1,2,5,0,15,7,L,0.2545000000000001,0.34000000000000014,0.01,0.025
6,22,44,1,3,0.07,2,2,13,32,85,35,6.719999999999903,0.01,0.01,0.01,14,1,1,1,17,1,1,1,5,0,19,7,L,0.3952941176470591,0.01,0.01,0.01
7,1,1,0,6,0.2700000000000001,2,8,7,5,66,72,0.39000000000000007,1.2500000000000009,0.01,0.01,4,16,1,1,13,31,1,1,6,0,20,7,L,0.03,0.04032258064516129,0.01,0.01
7,1,2,0,2,0.25000000000000006,2,7,54,17,120,94,0.36000000000000004,0.21000000000000005,0.03,0.09,4,2,1,3,9,5,1,5,4,0,15,7,L,0.04,0.042,0.03,0.018000000000000002
7,2,3,0,1,0.23000000000000007,2,5,76,56,9,40,0.39000000000000007,0.08,0.12999999999999998,0.03,4,1,2,1,13,1,4,1,3,0,18,7,L,0.030000000000000002,0.08,0.0325,0.03
7,2,4,0,3,0.19000000000000003,6,6,71,97,86,93,1.0300000000000005,0.04,0.03,0.01,11,1,3,1,29,1,3,1,5,0,12,7,L,0.035517241379310345,0.04,0.01,0.01
7,3,5,0,3,0.19000000000000003,2,5,33,35,15,18,0.34,0.17,0.02,0.09999999999999999,4,2,1,4,9,6,1,4,5,0,22,7,L,0.03777777777777778,0.028333333333333335,0.02,0.025
7,3,6,0,6,0.22000000000000006,7,7,2,9,4,51,0.4900000000000001,0.02,0.07,0.02,9,1,2,1,12,1,4,1,6,0.5,40,7,L,0.04083333333333333,0.02,0.0175,0.02
7,4,7,0,6,0.19000000000000003,2,6,5,4,1,60,0.29000000000000004,0.16,2.3199999999999945,0.01,4,2,18,1,9,3,54,1,6,0.5,40,7,L,0.03222222222222222,0.05333333333333333,0.04296296296296297,0.01
7,4,8,0,9,0.24000000000000007,2,11,66,72,76,68,0.4000000000000001,0.08,0.11999999999999998,0.02,4,3,2,1,17,5,3,1,4,0.5,27,7,L,0.023529411764705882,0.016,0.04,0.02
7,5,9,0,10,0.25000000000000006,2,10,93,8,47,39,0.43000000000000005,0.12999999999999998,0.21000000000000005,0.02,4,2,2,1,14,3,3,1,3,0,19,7,L,0.030714285714285715,0.04333333333333333,0.06999999999999999,0.02
7,5,10,0,3,0.3000000000000001,8,10,34,30,25,15,0.4600000000000001,0.08,0.12999999999999998,0.5200000000000002,10,2,2,7,14,3,3,11,5,0.5,36,7,L,0.032857142857142856,0.026666666666666665,0.043333333333333335,0.04727272727272727
7,6,11,0,2,0.2700000000000001,3,9,52,89,91,20,0.39000000000000007,0.16,0.09,0.08,7,2,2,2,15,5,2,2,4,0,16,7,L,0.026000000000000002,0.032,0.045,0.04
7,6,12,0,6,0.34000000000000014,14,16,12,4,35,30,0.5000000000000001,0.13999999999999999,0.04,0.04,16,2,1,1,19,7,1,1,6,0,22,7,L,0.026315789473684213,0.02,0.04,0.04
7,7,13,1,2,0.23000000000000007,2,8,59,75,3,110,0.35000000000000003,0.21000000000000005,0.08,0.13999999999999999,4,2,3,3,10,2,3,4,4,0,15,7,L,0.035,0.10500000000000001,0.026666666666666665,0.034999999999999996
7,7,14,1,8,0.20000000000000004,2,6,103,61,93,108,0.26000000000000006,0.3200000000000001,0.04,0.02,4,4,1,2,10,9,1,2,2,0,11,7,L,0.026,0.035555555555555556,0.04,0.01
7,8,15,1,12,0.19000000000000003,2,5,46,77,109,47,0.25000000000000006,0.2800000000000001,0.02,0.04,4,3,1,2,7,7,1,2,5,0,15,7,L,0.03571428571428571,0.04,0.02,0.02
7,8,16,1,3,0.22000000000000006,2,6,33,59,35,87,0.4100000000000001,0.19000000000000003,0.060000000000000005,0.16,5,2,2,4,10,4,2,7,5,0,17,7,L,0.041,0.0475,0.03,0.022857142857142857
7,9,17,1,12,0.2700000000000001,2,12,38,69,41,84,0.45000000000000007,0.16,0.09,0.03,4,2,2,1,16,7,4,1,5,0,17,7,L,0.028125,0.022857142857142857,0.0225,0.03
7,9,18,1,15,0.09,2,3,15,17,16,30,0.40000000000000013,0.01,0.09,0.03,4,1,2,1,14,1,3,1,6,0.5,41,7,L,0.02857142857142857,0.01,0.03,0.03
7,10,19,1,3,0.22000000000000006,2,7,27,32,36,70,0.32000000000000006,0.11999999999999998,0.060000000000000005,0.12999999999999998,4,3,1,3,11,5,1,6,5,0.5,34,7,L,0.02909090909090909,0.024,0.060000000000000005,0.021666666666666667
7,10,20,1,8,0.25000000000000006,2,7,108,55,58,95,0.4,0.2900000000000001,0.04,0.02,4,2,2,1,11,11,3,1,2,0,13,7,L,0.03636363636363636,0.026363636363636363,0.013333333333333334,0.02
7,11,21,1,7,0.3000000000000001,3,17,6,2,87,8,0.44000000000000006,0.5200000000000002,0.01,0.01,5,5,1,1,23,14,1,1,6,0.5,39,7,L,0.019130434782608695,0.037142857142857144,0.01,0.01
7,11,22,1,12,0.3300000000000001,8,10,78,17,18,41,1.1200000000000006,0.36000000000000015,0.6900000000000004,0.01,13,9,13,1,31,12,24,1,5,0,20,7,L,0.03612903225806452,0.030000000000000002,0.02875,0.01
7,12,23,1,13,0.24000000000000007,2,7,109,114,79,82,0.39000000000000007,0.08,0.12999999999999998,0.02,5,1,2,1,13,1,3,1,2,0,10,7,L,0.030000000000000002,0.08,0.043333333333333335,0.02
7,12,24,1,12,0.24000000000000007,3,12,91,37,51,87,0.4400000000000001,0.01,0.09999999999999999,0.12999999999999998,5,1,2,2,15,1,3,4,5,0,15,7,L,0.029333333333333333,0.01,0.03333333333333333,0.0325
7,13,25,1,15,0.23000000000000007,2,6,20,110,28,21,0.33000000000000007,0.18000000000000002,0.2800000000000001,0.07,4,2,3,3,10,5,8,3,6,0,19,7,L,0.033,0.036,0.035,0.023333333333333334
7,13,26,1,1,0.18000000000000002,8,9,38,100,75,47,1.0700000000000005,0.02,0.01,0.01,15,2,1,1,31,2,1,1,3,0,15,7,L,0.034516129032258064,0.01,0.01,0.01
7,14,27,1,7,0.2800000000000001,2,8,8,7,9,12,0.44000000000000006,0.36000000000000015,0.01,0.01,4,5,1,1,12,10,1,1,6,1,72,7,L,0.03666666666666667,0.036,0.01,0.01
7,14,28,1,8,0.2700000000000001,2,7,100,38,98,87,0.4,0.11999999999999998,0.12999999999999998,0.060000000000000005,4,2,2,2,13,4,7,2,2,0,12,7,L,0.030769230769230767,0.030000000000000002,0.018571428571428572,0.03
7,15,29,1,3,0.18000000000000002,2,8,26,101,67,61,0.5000000000000001,0.07,0.01,0.12999999999999998,4,2,1,2,18,2,1,3,5,0,15,7,L,0.027777777777777776,0.035,0.01,0.04333333333333333
7,15,30,1,13,0.16,2,5,117,110,92,54,0.23,0.20000000000000004,0.10999999999999999,0.12999999999999998,4,2,2,2,7,7,4,3,2,0,11,7,L,0.03285714285714286,0.028571428571428574,0.0275,0.043333333333333335
7,16,31,1,13,0.4100000000000002,18,22,6,4,120,69,0.7100000000000003,0.35000000000000014,0.3000000000000001,0.3100000000000001,20,6,4,9,29,17,5,12,2,0,18,7,L,0.024482758620689656,0.020588235294117647,0.06,0.025833333333333333
7,16,32,1,3,0.36000000000000015,19,21,82,54,59,78,1.1000000000000005,0.08,0.01,0.02,20,3,1,2,39,3,1,2,5,0,14,7,L,0.028205128205128206,0.026666666666666665,0.01,0.01
7,17,33,1,12,0.34000000000000014,7,12,48,1,58,74,0.40000000000000013,0.5700000000000003,0.01,0.04,8,6,1,4,13,21,1,4,5,0,18,7,L,0.03076923076923077,0.027142857142857142,0.01,0.01
7,17,34,1,8,0.2900000000000001,2,10,98,87,99,23,0.3700000000000001,0.3000000000000001,0.09999999999999999,0.08,4,5,2,1,12,8,3,1,2,0,13,7,L,0.030833333333333334,0.0375,0.03333333333333333,0.08
7,18,35,1,1,0.25000000000000006,2,9,82,111,51,60,0.3400000000000001,0.17,0.09999999999999999,0.04,4,2,1,2,13,2,1,2,3,0,13,7,L,0.026153846153846153,0.085,0.09999999999999999,0.02
7,18,36,1,11,0.2900000000000001,2,11,68,70,67,93,0.3500000000000001,0.19000000000000003,0.04,0.13999999999999999,4,3,1,2,13,10,1,4,4,0.5,27,7,L,0.026923076923076925,0.019,0.04,0.035
7,19,37,1,11,0.4300000000000002,15,17,63,69,67,100,0.6400000000000002,0.01,0.11999999999999998,0.13999999999999999,17,1,3,2,22,1,5,3,4,0.5,26,7,L,0.02909090909090909,0.01,0.024,0.04666666666666667
7,19,38,1,2,0.17,5,5,13,78,59,23,1.640000000000001,0.02,0.01,0.12999999999999998,20,2,1,5,46,2,1,5,4,0,19,7,L,0.035652173913043476,0.01,0.01,0.026000000000000002
7,20,39,1,1,0.2800000000000001,2,7,74,107,63,13,0.42000000000000004,0.2700000000000001,0.03,0.23000000000000007,5,2,1,3,13,5,1,4,3,0,15,7,L,0.03230769230769231,0.054,0.03,0.05750000000000001
7,20,40,1,3,0.16,2,6,27,111,94,118,0.27999999999999997,0.25000000000000006,0.05,0.02,4,2,1,1,8,5,1,1,5,0,12,7,L,0.034999999999999996,0.049999999999999996,0.05,0.02
7,21,41,1,13,0.11999999999999998,5,5,15,21,20,22,1.8500000000000012,0.01,0.02,0.01,20,1,1,1,48,1,1,1,2,1,72,7,L,0.03854166666666667,0.01,0.02,0.01
7,21,42,1,7,0.36000000000000015,17,18,9,1,2,101,0.6400000000000002,0.15,0.01,0.5300000000000002,19,3,1,7,27,6,1,16,6,0.5,38,7,L,0.023703703703703706,0.025,0.01,0.033125
7,22,43,1,12,0.2800000000000001,3,8,109,38,114,74,0.5400000000000001,0.01,0.03,0.04,5,1,2,1,15,1,2,1,5,0,12,7,L,0.036,0.01,0.015,0.04
7,22,44,1,8,0.3200000000000001,15,18,105,102,108,88,0.5500000000000002,0.01,0.22000000000000006,0.16,17,1,3,2,24,1,5,2,2,0.5,15,7,L,0.02291666666666667,0.01,0.044000000000000004,0.08
8,1,1,0,10,0.3000000000000001,2,4,87,120,94,115,0.8200000000000003,0.46000000000000024,0.10999999999999999,0.05,4,2,2,1,12,7,2,1,3,0,10,7,L,0.06833333333333333,0.06571428571428571,0.055,0.05
8,1,2,0,9,0.4100000000000002,13,15,62,68,73,1,1.0100000000000005,0.16,0.48000000000000026,0.3000000000000001,15,2,3,3,20,3,4,3,4,0,17,7,L,0.0505,0.05333333333333334,0.12,0.10000000000000002
8,2,3,0,9,0.2900000000000001,2,4,26,73,64,36,1.0600000000000005,0.15,0.04,0.09999999999999999,6,1,1,1,11,1,1,1,4,0,17,7,L,0.09636363636363637,0.15,0.04,0.09999999999999999
8,2,4,0,2,0.36000000000000015,2,5,60,53,39,12,1.3200000000000007,0.10999999999999999,0.05,0.05,5,2,1,1,12,2,1,1,4,0,19,7,L,0.11000000000000001,0.05500000000000001,0.05,0.05
8,3,5,0,8,0.2800000000000001,2,7,120,38,43,51,1.1300000000000006,0.13999999999999999,0.09999999999999999,0.10999999999999999,4,1,1,2,15,1,1,3,2,0,16,7,L,0.07533333333333334,0.13999999999999999,0.09999999999999999,0.03666666666666667
8,3,6,0,9,0.22000000000000006,2,5,62,34,89,61,0.9300000000000005,0.24000000000000007,0.11999999999999998,0.060000000000000005,6,2,2,2,11,3,2,2,4,0,16,7,L,0.08454545454545456,0.08,0.060000000000000005,0.03
8,4,7,0,7,0.6500000000000004,17,20,15,18,19,24,1.560000000000001,1.1500000000000008,3.1999999999999758,0.01,20,4,17,1,30,6,32,1,6,1,72,7,L,0.052000000000000005,0.19166666666666676,0.1,0.01
8,4,8,0,8,0.38000000000000017,2,5,33,71,4,9,1.3300000000000007,0.23000000000000007,0.02,0.18000000000000002,6,2,1,3,13,3,1,6,2,0,21,7,L,0.10230769230769231,0.07666666666666666,0.02,0.030000000000000002
8,5,9,0,1,0.26000000000000006,2,3,41,73,76,44,1.0000000000000004,0.15,0.11999999999999998,0.13999999999999999,5,1,1,2,10,1,1,2,3,0,16,7,L,0.1,0.15,0.11999999999999998,0.07
8,5,10,0,4,0.5100000000000002,12,16,30,9,53,8,1.4200000000000008,0.2900000000000001,0.24000000000000007,0.02,16,2,2,2,24,2,2,2,2,0,21,7,L,0.05916666666666667,0.14500000000000002,0.12000000000000001,0.01
8,6,11,0,10,0.20000000000000004,2,6,15,72,110,95,5.849999999999924,0.02,0.02,0.01,20,2,1,1,54,2,1,1,3,0,15,7,L,0.10833333333333335,0.01,0.02,0.01
8,6,12,0,2,0.34000000000000014,2,9,52,11,45,1,0.9800000000000004,0.47000000000000025,0.08,0.05,4,2,2,2,17,2,2,2,4,0,21,7,L,0.05764705882352941,0.2350000000000001,0.04,0.025
8,7,13,1,8,0.45000000000000023,2,9,107,53,95,89,0.9900000000000004,0.3300000000000001,0.13999999999999999,0.13999999999999999,4,2,1,2,11,4,1,2,2,0,12,7,L,0.09000000000000001,0.08249999999999999,0.13999999999999999,0.07
8,7,14,1,7,0.3300000000000001,2,4,117,4,30,27,1.2100000000000006,0.09,0.09999999999999999,0.3100000000000001,7,1,1,2,13,1,1,3,6,0,18,7,L,0.0930769230769231,0.09,0.09999999999999999,0.10333333333333335
8,8,15,1,2,0.2900000000000001,2,5,56,10,112,81,0.8200000000000003,0.22000000000000006,0.12999999999999998,0.12999999999999998,4,2,1,1,11,2,1,1,4,0,15,7,L,0.07454545454545455,0.11000000000000001,0.12999999999999998,0.12999999999999998
8,8,16,1,14,0.24000000000000007,2,3,65,86,64,102,0.9200000000000005,0.25000000000000006,0.09,0.15,4,2,2,2,8,2,2,4,3,0,13,7,L,0.11500000000000002,0.12499999999999997,0.045,0.037500000000000006
8,9,17,1,12,0.23000000000000007,2,6,38,5,4,47,0.9200000000000005,1.0800000000000007,0.01,0.01,4,5,1,1,17,10,1,1,5,0,22,7,L,0.05411764705882353,0.10800000000000003,0.01,0.01
8,9,18,1,1,0.23000000000000007,2,4,73,31,105,97,0.7600000000000003,0.48000000000000026,0.07,0.25000000000000006,6,3,1,1,11,4,1,1,3,0,12,7,L,0.06909090909090909,0.12000000000000001,0.07,0.25000000000000006
8,10,19,1,11,0.25000000000000006,2,3,70,41,118,48,1.1100000000000005,0.3900000000000002,0.45000000000000023,0.02,6,3,3,1,12,4,3,1,4,0,16,7,L,0.09250000000000001,0.0975,0.15000000000000005,0.02
8,10,20,1,8,0.21000000000000005,2,3,105,106,12,7,0.8300000000000004,0.19000000000000003,0.09,0.08,4,2,2,1,8,3,2,1,2,0,16,7,L,0.10375,0.06333333333333334,0.045,0.08
8,11,21,1,8,0.24000000000000007,2,3,106,10,68,4,0.7200000000000003,0.45000000000000023,0.05,0.07,5,2,1,1,7,2,1,1,2,0,18,7,L,0.10285714285714287,0.2250000000000001,0.05,0.07
8,11,22,1,2,0.37000000000000016,9,10,75,40,37,42,1.2500000000000007,0.7900000000000005,1.9100000000000015,0.2700000000000001,14,4,11,2,23,6,17,2,4,0.5,33,7,L,0.054347826086956534,0.13166666666666668,0.1123529411764706,0.13500000000000004
8,12,23,1,14,0.3000000000000001,2,4,87,10,94,101,0.6900000000000003,0.4200000000000002,0.11999999999999998,0.19000000000000003,4,2,2,3,7,5,2,5,3,0,14,7,L,0.09857142857142859,0.084,0.06,0.038
8,12,24,1,15,0.5000000000000002,13,17,22,18,34,15,1.1000000000000005,0.23000000000000007,0.3000000000000001,0.04,15,2,2,2,25,3,3,2,6,0.5,41,7,L,0.044000000000000004,0.07666666666666666,0.10000000000000002,0.02
8,13,25,1,3,0.21000000000000005,3,5,31,29,18,51,0.7800000000000004,0.20000000000000004,0.6400000000000003,0.04,5,2,2,1,11,2,3,1,5,0,20,7,L,0.07090909090909091,0.09999999999999999,0.2133333333333334,0.04
8,13,26,1,13,0.4400000000000002,2,9,88,72,6,96,1.3000000000000007,0.09999999999999999,0.08,1.0200000000000007,4,1,2,6,17,1,3,8,2,0,16,7,L,0.07647058823529412,0.09999999999999999,0.02666666666666667,0.12750000000000003
8,14,27,1,15,0.19000000000000003,2,4,18,14,50,21,0.7800000000000004,3.6399999999999664,0.01,0.01,4,14,1,1,8,25,1,1,6,0.5,40,7,L,0.09750000000000002,0.14560000000000003,0.01,0.01
8,14,28,1,11,0.3900000000000002,3,7,77,100,78,8,1.3600000000000008,0.18000000000000002,0.07,0.03,6,3,1,1,15,4,1,1,4,0,14,7,L,0.09066666666666667,0.045,0.07,0.03
8,15,29,1,15,0.24000000000000007,2,4,100,47,44,37,1.0200000000000005,0.21000000000000005,0.5000000000000002,0.01,4,2,5,1,11,2,6,1,6,0.5,32,7,L,0.09272727272727274,0.105,0.08333333333333333,0.01
8,15,30,1,11,0.7000000000000004,18,21,83,6,10,3,1.3700000000000008,0.6600000000000004,0.16,0.4300000000000002,20,4,3,2,28,6,3,2,4,0.5,39,7,L,0.04892857142857143,0.11000000000000003,0.05333333333333333,0.21500000000000008
8,16,31,1,8,0.2700000000000001,2,4,82,101,15,27,1.1200000000000006,0.060000000000000005,0.26000000000000006,0.04,6,1,2,2,11,2,4,2,2,0,16,7,L,0.10181818181818184,0.03,0.06499999999999999,0.02
8,16,32,1,13,0.35000000000000014,9,10,4,89,49,55,2.0000000000000013,0.04,0.01,0.01,12,2,1,1,23,2,1,1,2,0,17,7,L,0.08695652173913046,0.02,0.01,0.01
8,17,33,1,15,0.18000000000000002,2,3,101,73,54,84,0.9900000000000005,0.23000000000000007,0.05,0.12999999999999998,4,2,1,2,7,3,1,2,6,0,12,7,L,0.14142857142857146,0.07666666666666666,0.05,0.065
8,17,34,1,12,0.5300000000000002,8,9,120,9,92,44,1.4500000000000008,0.6800000000000004,0.01,0.11999999999999998,13,3,1,2,22,7,1,2,5,0,16,7,L,0.06590909090909092,0.09714285714285716,0.01,0.05999999999999999
8,18,35,1,1,0.35000000000000014,9,12,11,101,36,73,1.7900000000000011,0.12999999999999998,0.060000000000000005,0.01,13,2,2,1,26,2,2,1,3,0,16,7,L,0.06884615384615385,0.065,0.03,0.01
8,18,36,1,13,0.21000000000000005,2,3,43,87,95,55,1.1500000000000006,0.24000000000000007,0.07,0.24000000000000007,6,3,2,2,9,4,2,2,2,0,15,7,L,0.1277777777777778,0.06,0.035,0.12000000000000004
8,19,37,1,3,0.26000000000000006,2,5,119,6,7,33,1.1900000000000006,0.18000000000000002,0.04,0.01,6,2,1,1,15,2,1,1,5,0,19,7,L,0.07933333333333334,0.09,0.04,0.01
8,19,38,1,1,0.24000000000000007,3,4,75,20,55,17,1.0500000000000005,0.3100000000000001,0.04,0.09999999999999999,5,2,1,1,10,2,1,1,3,0,19,7,L,0.10500000000000001,0.15500000000000003,0.04,0.09999999999999999
8,20,39,1,15,0.2800000000000001,2,5,22,28,56,34,0.8100000000000003,0.25000000000000006,0.15,0.37000000000000016,4,1,2,2,9,1,2,2,6,0,20,7,L,0.09000000000000001,0.25000000000000006,0.075,0.18500000000000005
8,20,40,1,11,0.2700000000000001,2,3,63,4,61,46,0.6600000000000003,0.37000000000000016,0.22000000000000006,0.04,4,2,2,1,7,2,4,1,4,0,19,7,L,0.09428571428571429,0.18500000000000008,0.055,0.04
8,21,41,1,2,0.3900000000000002,8,11,89,96,15,56,1.550000000000001,0.15,0.6600000000000004,0.01,13,2,6,1,18,2,7,1,4,0,16,7,L,0.08611111111111112,0.075,0.09428571428571429,0.01
8,21,42,1,12,0.6400000000000003,13,16,67,70,3,4,1.4500000000000008,0.07,0.6300000000000003,0.01,15,1,4,1,25,1,7,1,5,0,20,7,L,0.058,0.07,0.09000000000000002,0.01
8,22,43,1,7,0.20000000000000004,2,3,44,89,57,37,1.1000000000000005,0.17,0.07,0.12999999999999998,4,2,1,2,10,2,1,3,6,0,17,7,L,0.11,0.08499999999999999,0.07,0.043333333333333335
8,22,44,1,3,0.2700000000000001,2,5,35,15,31,24,0.7900000000000003,0.3200000000000001,0.12999999999999998,0.2900000000000001,6,2,1,4,11,3,1,5,5,0,22,7,L,0.07181818181818182,0.10666666666666669,0.12999999999999998,0.057999999999999996
9,1,1,0,2,0.26000000000000006,2,3,3,12,85,109,8.489999999999869,0.02,0.07,0.09,10,1,1,1,23,1,1,1,4,0,17,7,L,0.36913043478260893,0.02,0.07,0.09
9,1,2,0,3,0.9400000000000006,2,7,30,66,18,25,5.059999999999957,1.1200000000000008,0.8600000000000005,0.3000000000000001,8,2,3,2,16,3,3,2,5,0,20,7,L,0.31625000000000014,0.3733333333333335,0.28666666666666674,0.15000000000000002
9,2,3,0,1,0.7200000000000004,3,6,28,67,63,77,7.8299999999998935,1.0600000000000007,0.02,0.02,11,2,1,1,23,2,1,1,3,0,16,7,L,0.3404347826086958,0.5300000000000004,0.02,0.02
9,2,4,0,6,0.8400000000000005,2,8,4,43,89,48,14.409999999999755,0.02,0.01,0.05,15,2,1,1,48,2,1,1,6,0,19,7,L,0.30020833333333347,0.01,0.01,0.05
9,3,5,0,5,0.8300000000000005,2,5,45,85,95,109,4.559999999999965,0.5000000000000002,0.4400000000000002,0.37000000000000016,7,1,1,2,14,1,1,2,5,0,13,7,L,0.32571428571428584,0.5000000000000002,0.4400000000000002,0.18500000000000003
9,3,6,0,4,0.48000000000000026,2,3,108,101,1,73,3.49999999999998,0.9900000000000007,0.7400000000000004,0.8100000000000005,5,2,2,1,10,4,5,1,2,0,13,7,L,0.35000000000000014,0.24750000000000008,0.14800000000000002,0.8100000000000005
9,4,7,0,9,0.5600000000000003,2,4,65,115,72,118,1.8900000000000012,3.2599999999999745,0.9500000000000006,0.46000000000000024,4,7,4,2,6,10,6,3,4,0,12,7,L,0.31500000000000017,0.3260000000000001,0.15833333333333338,0.15333333333333335
9,4,8,0,10,1.260000000000001,4,5,31,101,97,36,3.599999999999995,1.1200000000000008,0.7100000000000004,0.38000000000000017,7,2,2,1,10,3,2,1,3,0,14,7,L,0.36000000000000015,0.3733333333333335,0.35500000000000015,0.38000000000000017
9,5,9,0,9,1.2400000000000009,2,4,101,43,44,47,5.429999999999956,1.1300000000000008,0.6700000000000004,0.20000000000000004,5,2,2,1,9,2,3,1,4,0.5,32,7,L,0.6033333333333332,0.5650000000000003,0.22333333333333338,0.20000000000000004
9,5,10,0,3,0.5100000000000002,2,3,28,36,10,86,1.9900000000000013,0.6400000000000003,1.5900000000000012,0.4200000000000002,5,1,3,2,7,1,3,2,5,0,19,7,L,0.2842857142857144,0.6400000000000003,0.5300000000000002,0.21000000000000002
9,6,11,0,3,0.4300000000000002,2,3,28,33,25,100,1.3900000000000008,1.9100000000000015,2.3699999999999934,1.2000000000000008,5,4,5,1,7,6,5,1,5,0.5,32,7,L,0.19857142857142865,0.31833333333333347,0.47400000000000025,1.2000000000000008
9,6,12,0,2,1.5200000000000011,6,11,118,57,114,48,3.4700000000000024,1.6300000000000012,0.4400000000000002,0.5600000000000003,9,3,2,1,14,3,2,1,4,0,13,7,L,0.24785714285714297,0.5433333333333337,0.22000000000000003,0.5600000000000003
9,7,13,1,12,0.5500000000000003,2,3,45,46,70,66,3.4399999999999826,0.9900000000000007,2.159999999999998,0.18000000000000002,6,2,5,1,7,5,6,1,5,0,18,7,L,0.4914285714285717,0.19800000000000004,0.3600000000000002,0.18000000000000002
9,7,14,1,14,0.5400000000000003,3,4,29,50,34,60,4.919999999999951,0.19000000000000003,3.039999999999979,0.47000000000000025,8,1,6,2,17,1,9,2,3,0,18,7,L,0.2894117647058825,0.19000000000000003,0.33777777777777795,0.2350000000000001
9,8,15,1,1,0.6800000000000004,5,6,76,53,80,51,3.6199999999999815,0.9500000000000006,0.26000000000000006,1.370000000000001,7,2,2,2,10,2,2,2,3,0,14,7,L,0.36199999999999966,0.47500000000000026,0.13,0.6850000000000004
9,8,16,1,7,0.5100000000000002,2,3,2,103,71,63,17.96999999999993,0.01,0.01,0.01,18,1,1,1,36,1,1,1,6,0,16,7,L,0.4991666666666669,0.01,0.01,0.01
9,9,17,1,8,0.6000000000000003,10,11,98,100,91,101,4.279999999999966,0.11999999999999998,0.8900000000000006,1.7500000000000013,15,1,1,4,20,1,1,5,2,0.5,15,7,L,0.2140000000000001,0.11999999999999998,0.8900000000000006,0.35000000000000014
9,9,18,1,13,3.889999999999961,6,10,9,62,61,67,5.869999999999963,0.6000000000000003,0.8900000000000006,1.8500000000000014,11,1,3,4,16,1,4,7,2,0.5,30,7,L,0.3668750000000002,0.6000000000000003,0.22250000000000006,0.2642857142857144
9,10,19,1,15,1.8700000000000014,5,6,30,20,25,23,4.749999999999984,0.4200000000000002,1.2400000000000009,0.26000000000000006,12,2,4,2,17,3,4,2,6,0,22,7,L,0.27941176470588247,0.14000000000000004,0.31000000000000016,0.12999999999999998
9,10,20,1,11,1.1900000000000008,14,18,63,38,41,5,3.8799999999999875,3.3099999999999734,2.1799999999999975,0.13999999999999999,20,4,4,2,27,6,6,2,4,0,20,7,L,0.14370370370370375,0.551666666666667,0.3633333333333335,0.06999999999999999
9,11,21,1,12,0.3900000000000002,4,4,23,44,114,84,22.950000000000728,0.01,0.01,0.01,20,1,1,1,56,1,1,1,5,0,16,7,L,0.40982142857142856,0.01,0.01,0.01
9,11,22,1,8,1.9700000000000015,17,20,107,12,11,102,2.830000000000002,3.179999999999976,0.7100000000000004,0.8400000000000005,19,5,2,2,22,6,2,2,2,0,16,7,L,0.1286363636363637,0.5300000000000002,0.35500000000000015,0.42000000000000026
9,12,23,1,11,0.9900000000000007,2,4,32,26,14,77,3.589999999999989,0.7300000000000004,0.8200000000000005,0.19000000000000003,6,2,2,1,12,3,4,1,4,0,19,7,L,0.2991666666666668,0.2433333333333334,0.20500000000000004,0.19000000000000003
9,12,24,1,7,0.6500000000000004,12,12,111,45,116,112,8.499999999999877,0.22000000000000006,0.09,1.5300000000000011,20,1,1,2,26,1,1,2,6,0.5,17,7,L,0.3269230769230771,0.22000000000000006,0.09,0.7650000000000006
9,13,25,1,7,0.7100000000000004,2,6,45,41,39,8,3.439999999999986,4.319999999999952,0.09,2.719999999999986,6,6,1,6,11,7,1,6,6,0.5,36,7,L,0.31272727272727285,0.6171428571428572,0.09,0.4533333333333336
9,13,26,1,1,0.9700000000000006,11,14,27,81,64,16,5.379999999999951,0.15,1.450000000000001,0.17,15,1,3,1,22,1,5,2,3,0,18,7,L,0.24454545454545468,0.15,0.2900000000000001,0.085
9,14,27,1,13,0.35000000000000014,1,2,6,36,35,30,4.1299999999999635,0.16,0.4100000000000002,1.300000000000001,6,1,2,3,13,1,2,3,2,0.5,36,7,L,0.31769230769230783,0.16,0.20500000000000002,0.43333333333333357
9,14,28,1,8,0.8100000000000005,2,4,98,15,45,107,2.760000000000002,2.4999999999999907,0.5400000000000003,0.45000000000000023,4,6,1,2,11,6,1,2,2,0,15,7,L,0.250909090909091,0.41666666666666685,0.5400000000000003,0.22500000000000003
9,15,29,1,13,0.48000000000000026,2,5,113,39,117,40,4.449999999999959,2.769999999999985,0.04,1.1500000000000008,9,6,1,3,15,7,1,3,2,0,14,7,L,0.2966666666666668,0.3957142857142859,0.04,0.3833333333333335
9,15,30,1,1,0.8700000000000006,8,9,84,14,75,108,2.7100000000000017,1.9400000000000015,1.490000000000001,0.11999999999999998,11,4,3,1,13,6,3,1,3,0,14,7,L,0.20846153846153853,0.3233333333333335,0.4966666666666669,0.11999999999999998
9,16,31,1,8,1.0000000000000007,11,13,105,104,20,65,2.3800000000000017,0.6900000000000004,2.4499999999999917,3.189999999999976,13,1,4,6,17,1,4,13,2,0,14,7,L,0.14000000000000004,0.6900000000000004,0.6125000000000004,0.24538461538461548
9,16,32,1,2,0.48000000000000026,8,8,114,36,110,34,9.299999999999857,0.48000000000000026,0.03,0.10999999999999999,20,2,1,1,32,2,1,1,4,0,14,7,L,0.290625,0.2400000000000001,0.03,0.10999999999999999
9,17,33,1,1,0.38000000000000017,2,3,76,77,109,110,2.8199999999999923,2.299999999999995,0.4100000000000002,1.5500000000000012,6,8,1,2,7,9,1,3,3,0,10,7,L,0.4028571428571431,0.25555555555555565,0.4100000000000002,0.5166666666666669
9,17,34,1,8,1.440000000000001,15,18,99,105,25,33,2.3100000000000014,2.1699999999999977,0.5500000000000003,0.26000000000000006,17,4,1,1,21,5,1,1,2,0,14,7,L,0.11000000000000001,0.4340000000000002,0.5500000000000003,0.26000000000000006
9,18,35,1,2,0.16,2,2,4,85,35,10,24.940000000001074,0.05,0.01,0.3300000000000001,20,2,1,2,53,2,1,2,4,0,20,7,L,0.4705660377358493,0.025,0.01,0.16500000000000006
9,18,36,1,11,0.21000000000000005,4,4,45,66,74,77,17.78999999999995,1.1300000000000008,0.01,0.01,19,2,1,1,47,2,1,1,4,0,15,7,L,0.37851063829787257,0.5650000000000004,0.01,0.01
9,19,37,1,15,0.5700000000000003,2,4,96,13,22,26,5.299999999999944,0.12999999999999998,4.509999999999948,0.01,8,1,5,1,14,1,5,1,6,0,20,7,L,0.37857142857142856,0.12999999999999998,0.901999999999999,0.01
9,19,38,1,1,0.4300000000000002,2,3,77,7,39,6,2.3200000000000016,2.339999999999994,1.6800000000000013,0.5800000000000003,4,6,2,2,7,7,2,2,3,0,20,7,L,0.33142857142857157,0.33428571428571446,0.8400000000000005,0.29000000000000015
9,20,39,1,13,0.8300000000000005,13,14,117,5,111,2,1.9200000000000013,3.789999999999963,0.4300000000000002,0.6200000000000003,15,5,3,2,18,5,3,2,2,0,16,7,L,0.10666666666666669,0.7580000000000005,0.14333333333333334,0.31000000000000016
9,20,40,1,15,0.8300000000000005,2,4,14,13,17,94,1.700000000000001,8.819999999999856,0.01,0.02,4,10,1,1,8,15,1,1,6,0.5,39,7,L,0.21250000000000005,0.5880000000000003,0.01,0.02
10,1,1,0,5,0.17,2,4,60,46,16,51,0.35000000000000003,0.07,0.11999999999999998,0.03,3,1,2,1,5,1,2,1,5,0,19,7,L,0.07,0.07,0.060000000000000005,0.03
10,1,2,0,9,0.10999999999999999,2,4,63,31,12,101,0.22999999999999998,0.12999999999999998,0.11999999999999998,0.21000000000000005,4,1,1,2,6,1,1,3,4,0,17,7,L,0.03833333333333334,0.12999999999999998,0.11999999999999998,0.07
10,2,3,0,10,0.18000000000000002,2,4,87,18,119,63,0.43000000000000005,0.01,0.18000000000000002,0.15,4,1,2,2,6,1,4,2,3,0,15,7,L,0.07166666666666667,0.01,0.045,0.07500000000000001
10,2,4,0,6,0.22000000000000006,2,3,6,105,81,44,0.4500000000000001,2.399999999999993,0.2900000000000001,0.24000000000000007,4,9,3,2,7,19,3,2,6,0,16,7,L,0.06428571428571428,0.12631578947368424,0.09666666666666666,0.11999999999999998
10,3,5,0,6,0.24000000000000007,2,4,5,32,12,94,0.39000000000000007,0.16,1.0700000000000007,0.09999999999999999,4,2,5,1,7,3,17,1,6,0,20,7,L,0.05571428571428571,0.05333333333333334,0.06294117647058824,0.09999999999999999
10,3,6,0,5,0.17,2,3,76,46,23,112,0.5100000000000001,0.02,0.11999999999999998,0.03,4,1,2,1,6,1,2,1,5,0,16,7,L,0.085,0.02,0.060000000000000005,0.03
10,4,7,0,10,0.15,2,3,87,64,97,91,0.24,0.25000000000000006,0.13999999999999999,0.04,4,1,1,1,5,1,1,1,3,0,12,7,L,0.048,0.25000000000000006,0.13999999999999999,0.04
10,4,8,0,7,0.18000000000000002,4,4,22,110,24,20,0.36000000000000004,0.15,0.03,1.1200000000000008,5,2,1,5,5,2,1,6,6,0.5,38,7,L,0.07200000000000001,0.07499999999999998,0.03,0.18666666666666673
10,5,9,0,3,0.13999999999999999,2,6,27,100,98,64,0.31,0.18000000000000002,0.05,0.11999999999999998,4,2,1,2,10,2,1,2,5,0,13,7,L,0.031,0.09,0.05,0.06
10,5,10,0,5,0.2700000000000001,2,6,43,38,18,112,0.4,0.09,0.13999999999999999,0.060000000000000005,4,1,2,2,10,1,4,3,5,0,18,7,L,0.04,0.09,0.035,0.02
10,6,11,0,3,0.3000000000000001,3,4,32,34,110,20,0.5200000000000001,0.11999999999999998,0.11999999999999998,0.05,5,1,1,1,7,1,1,1,5,0,18,7,L,0.07428571428571429,0.11999999999999998,0.11999999999999998,0.05
10,6,12,0,10,0.12999999999999998,2,3,85,94,2,8,0.29,0.11999999999999998,0.02,0.09999999999999999,4,2,1,2,7,3,1,2,3,0,18,7,L,0.04142857142857143,0.04,0.02,0.05
10,7,13,1,14,0.21000000000000005,2,4,72,94,70,104,0.36000000000000004,0.060000000000000005,0.13999999999999999,0.24000000000000007,3,1,2,2,5,1,2,4,3,0,13,7,L,0.072,0.060000000000000005,0.07,0.06
10,7,14,1,2,0.18000000000000002,2,4,59,51,112,6,0.34,0.05,0.13999999999999999,0.09,4,1,1,2,10,1,1,3,4,0,16,7,L,0.034,0.05,0.13999999999999999,0.03
10,8,15,1,7,0.18000000000000002,1,2,2,1,111,34,0.38000000000000006,1.6400000000000012,0.01,0.01,3,5,1,1,6,11,1,1,6,0,19,7,L,0.06333333333333332,0.14909090909090914,0.01,0.01
10,8,16,1,12,0.09,2,2,42,45,18,64,0.19999999999999998,0.07,0.7800000000000005,0.01,4,1,3,1,5,1,9,1,5,0,20,7,L,0.04,0.07,0.08666666666666667,0.01
10,9,17,1,1,0.17,2,3,77,67,33,69,0.3,0.36000000000000015,0.07,0.04,4,2,1,1,5,5,1,2,3,0,16,7,L,0.06,0.072,0.07,0.02
10,9,18,1,14,0.09,2,2,86,96,57,90,0.28,0.01,0.15,0.03,4,1,2,1,4,1,2,1,3,0.5,22,7,L,0.06999999999999999,0.01,0.07499999999999998,0.03
10,10,19,1,13,0.26000000000000006,3,5,115,93,95,57,0.4900000000000001,0.09,0.16,0.05,5,1,2,1,7,1,5,1,2,0,12,7,L,0.07,0.09,0.032,0.05
10,10,20,1,8,0.37000000000000016,6,8,12,100,61,39,0.5200000000000001,0.10999999999999999,0.060000000000000005,0.17,7,2,1,2,9,3,1,2,2,0,17,7,L,0.057777777777777775,0.03666666666666667,0.060000000000000005,0.085
10,11,21,1,13,0.15,2,3,109,67,23,33,0.26999999999999996,0.16,0.10999999999999999,0.01,4,2,2,1,5,2,2,1,2,0,17,7,L,0.054,0.08,0.055,0.01
10,11,22,1,1,0.16,2,4,84,98,6,80,0.27,0.12999999999999998,0.11999999999999998,0.060000000000000005,4,1,2,2,6,1,2,2,3,0,14,7,L,0.045000000000000005,0.12999999999999998,0.060000000000000005,0.030000000000000002
10,12,23,1,3,0.15,2,3,32,66,109,25,0.29,0.08,0.10999999999999999,0.05,4,1,1,1,7,1,1,1,5,0,16,7,L,0.041428571428571426,0.08,0.10999999999999999,0.05
10,12,24,1,14,0.25000000000000006,3,5,60,88,94,96,0.4800000000000001,0.07,0.08,0.07,4,1,1,1,6,1,1,1,3,0.5,22,7,L,0.08000000000000002,0.07,0.08,0.07
10,13,25,1,11,0.20000000000000004,2,4,71,14,21,66,0.5400000000000001,0.22000000000000006,0.03,0.03,4,2,1,1,8,5,1,1,4,0,20,7,L,0.0675,0.044,0.03,0.03
10,13,26,1,3,0.11999999999999998,2,3,34,3,7,30,0.26999999999999996,0.11999999999999998,0.12999999999999998,0.01,4,1,2,1,5,1,2,1,5,0,22,7,L,0.054,0.11999999999999998,0.065,0.01
10,14,27,1,14,0.3000000000000001,4,5,90,42,63,71,0.6200000000000002,0.01,0.25000000000000006,0.03,6,1,2,1,9,1,2,1,3,0,16,7,L,0.06888888888888889,0.01,0.12500000000000003,0.03
10,14,28,1,15,0.16,2,3,14,60,73,55,0.33,1.6600000000000013,0.09999999999999999,0.05,4,7,3,1,5,14,3,1,6,0,17,7,L,0.066,0.11857142857142859,0.03333333333333333,0.05
10,15,29,1,3,0.10999999999999999,2,2,32,29,98,58,0.27,0.04,0.11999999999999998,0.060000000000000005,4,1,2,1,5,1,2,1,5,0,16,7,L,0.054000000000000006,0.04,0.060000000000000005,0.060000000000000005
10,15,30,1,14,0.11999999999999998,2,3,45,96,94,2,0.38000000000000006,0.09,0.03,0.08,3,2,1,2,4,2,1,2,3,0,17,7,L,0.09500000000000001,0.045000000000000005,0.03,0.04
10,16,31,1,14,0.21000000000000005,2,3,96,5,71,63,0.32000000000000006,0.2700000000000001,0.060000000000000005,0.13999999999999999,4,2,1,2,6,4,2,2,3,0,17,7,L,0.05333333333333333,0.06749999999999999,0.03,0.07
10,16,32,1,3,0.21000000000000005,2,9,31,108,56,78,0.34,0.11999999999999998,0.09,0.10999999999999999,4,1,2,1,11,1,2,1,5,0,14,7,L,0.03090909090909091,0.11999999999999998,0.045,0.10999999999999999
10,17,33,1,12,0.25000000000000006,3,8,45,7,89,118,0.35000000000000003,0.2700000000000001,0.13999999999999999,0.09,5,2,2,1,10,2,2,1,5,0,16,7,L,0.035,0.135,0.07,0.09
10,17,34,1,1,0.25000000000000006,4,4,79,82,58,25,0.30000000000000004,0.13999999999999999,0.17,0.11999999999999998,5,1,2,3,5,1,2,3,3,0,15,7,L,0.06,0.13999999999999999,0.08499999999999999,0.04
10,18,35,1,2,0.11999999999999998,2,3,51,6,113,112,0.33,0.02,0.20000000000000004,0.01,4,1,2,1,7,1,2,1,4,0,14,7,L,0.047142857142857146,0.02,0.09999999999999999,0.01
10,18,36,1,15,0.09999999999999999,2,3,13,66,92,14,0.37000000000000005,0.03,0.18000000000000002,0.04,4,1,2,1,7,1,3,1,6,0,19,7,L,0.05285714285714285,0.03,0.06,0.04
10,19,37,1,8,0.12999999999999998,2,5,106,64,72,32,0.32,0.17,0.23000000000000007,0.060000000000000005,4,2,3,1,7,2,3,1,2,0,15,7,L,0.045714285714285714,0.08499999999999999,0.07666666666666667,0.060000000000000005
10,19,38,1,13,0.16,2,5,117,60,56,52,0.33,0.5100000000000002,0.01,0.10999999999999999,4,5,1,2,9,7,1,3,2,0.5,26,7,L,0.03666666666666667,0.07285714285714287,0.01,0.03666666666666667
10,20,39,1,7,0.13999999999999999,2,3,7,43,9,45,0.27999999999999997,0.6700000000000004,0.7100000000000004,0.07,4,4,5,1,7,5,8,1,6,0,22,7,L,0.04,0.13400000000000004,0.08875,0.07
10,20,40,1,1,0.19000000000000003,2,4,61,74,68,25,0.4200000000000001,0.11999999999999998,0.09,0.02,4,2,2,1,7,3,2,1,3,0,16,7,L,0.060000000000000005,0.039999999999999994,0.045,0.02
10,21,41,1,3,0.19000000000000003,2,4,26,33,22,105,0.5700000000000002,0.17,0.12999999999999998,0.02,6,2,2,1,10,2,3,1,5,0,18,7,L,0.057,0.08499999999999999,0.043333333333333335,0.02
10,21,42,1,13,0.11999999999999998,2,6,117,41,5,113,0.34,0.23000000000000007,0.21000000000000005,0.02,4,2,1,1,8,5,1,1,2,0,15,7,L,0.0425,0.046,0.21000000000000005,0.02
10,22,43,1,7,0.18000000000000002,2,3,5,3,52,93,0.3,1.0100000000000007,0.02,0.01,4,4,1,1,5,7,1,1,6,0,19,7,L,0.06,0.14428571428571432,0.02,0.01
10,22,44,1,3,0.2700000000000001,2,6,34,114,63,27,0.6800000000000003,0.12999999999999998,0.01,0.09999999999999999,4,2,1,2,8,2,1,2,5,0,16,7,L,0.085,0.065,0.01,0.05
11,1,1,0,10,0.4200000000000002,2,9,85,86,47,17,1.2400000000000007,0.5900000000000003,0.3900000000000002,0.13999999999999999,4,2,2,1,15,8,3,1,3,0,17,7,L,0.08266666666666668,0.07375,0.13,0.13999999999999999
11,1,2,0,6,0.16,2,3,6,9,84,99,1.2400000000000007,0.02,0.8600000000000005,0.6900000000000004,4,1,2,3,12,1,8,8,6,0,17,7,L,0.10333333333333335,0.02,0.10750000000000001,0.08625000000000001
11,2,3,0,5,0.4200000000000002,2,5,39,24,54,55,2.0600000000000014,0.3300000000000001,0.3200000000000001,0.13999999999999999,5,2,2,1,15,4,3,1,5,0,19,7,L,0.13733333333333336,0.08249999999999999,0.10666666666666666,0.13999999999999999
11,2,4,0,6,0.35000000000000014,2,5,12,97,66,64,1.4600000000000009,0.6100000000000003,0.8400000000000005,0.060000000000000005,4,2,2,1,17,6,10,1,6,0,16,7,L,0.08588235294117648,0.10166666666666667,0.084,0.060000000000000005
11,3,5,0,1,0.19000000000000003,2,3,79,78,6,56,0.8700000000000004,0.4400000000000002,0.6700000000000004,0.03,4,2,3,1,11,3,10,1,3,0,16,7,L,0.0790909090909091,0.14666666666666672,0.067,0.03
11,3,6,0,9,0.47000000000000025,2,7,68,89,102,98,1.550000000000001,0.05,0.5200000000000002,0.24000000000000007,4,1,2,1,21,1,4,1,4,0,11,7,L,0.07380952380952382,0.05,0.13,0.24000000000000007
11,4,7,0,7,0.2900000000000001,2,3,17,23,16,19,1.2700000000000007,0.21000000000000005,0.7100000000000004,2.9899999999999802,5,1,4,8,6,1,5,22,6,1,72,7,L,0.21166666666666675,0.21000000000000005,0.14200000000000004,0.13590909090909095
11,4,8,0,2,0.3000000000000001,2,5,49,54,96,53,1.2200000000000006,0.09999999999999999,0.8400000000000005,0.17,4,1,2,2,15,1,9,2,4,0.5,27,7,L,0.08133333333333334,0.09999999999999999,0.09333333333333334,0.08499999999999999
11,5,9,0,5,0.11999999999999998,2,2,15,47,79,107,6.239999999999914,0.01,0.01,0.01,10,1,1,1,42,1,1,1,5,0,16,7,L,0.1485714285714286,0.01,0.01,0.01
11,5,10,0,3,0.8500000000000005,7,11,36,3,66,69,1.8900000000000012,0.4000000000000002,0.08,0.18000000000000002,9,3,1,2,23,7,1,3,5,0,19,7,L,0.08217391304347826,0.05714285714285714,0.08,0.05999999999999999
11,6,11,0,4,0.47000000000000025,2,9,104,68,37,8,1.1500000000000006,0.6300000000000003,0.10999999999999999,0.11999999999999998,4,2,2,1,15,9,3,1,2,0,17,7,L,0.07666666666666667,0.07,0.03666666666666667,0.11999999999999998
11,6,12,0,7,0.5500000000000003,8,9,18,14,117,87,1.660000000000001,0.01,4.379999999999951,1.2000000000000008,10,1,5,10,19,1,26,11,6,0,17,7,L,0.08736842105263158,0.01,0.1684615384615385,0.1090909090909091
11,7,13,1,8,0.35000000000000014,2,5,102,90,85,104,1.2300000000000006,0.8100000000000005,0.22000000000000006,0.11999999999999998,7,2,2,2,13,12,3,2,2,0,10,7,L,0.09461538461538463,0.06749999999999999,0.07333333333333333,0.060000000000000005
11,7,14,1,13,0.2800000000000001,2,3,110,113,63,26,1.2800000000000007,0.03,0.6900000000000004,0.10999999999999999,4,1,2,1,17,1,4,1,2,0,13,7,L,0.07529411764705882,0.03,0.17250000000000004,0.10999999999999999
11,8,15,1,11,0.6300000000000003,2,10,65,72,115,120,1.8500000000000012,0.6500000000000004,0.21000000000000005,0.02,5,3,2,1,20,9,2,1,4,0,12,7,L,0.09250000000000001,0.07222222222222223,0.10500000000000001,0.02
11,8,16,1,3,0.4200000000000002,3,5,33,49,89,2,1.4300000000000008,0.20000000000000004,0.6000000000000003,0.18000000000000002,6,2,3,2,13,3,7,3,5,0,18,7,L,0.11,0.06666666666666667,0.08571428571428572,0.06
11,9,17,1,12,0.3000000000000001,2,4,45,110,58,113,1.1100000000000005,0.6700000000000004,0.26000000000000006,0.26000000000000006,5,3,2,3,10,7,3,3,5,0,13,7,L,0.11100000000000002,0.09571428571428571,0.08666666666666667,0.08666666666666668
11,9,18,1,1,0.4100000000000002,3,9,78,82,75,26,1.1600000000000006,0.7900000000000005,0.26000000000000006,0.16,5,3,3,2,15,6,3,2,3,0.5,23,7,L,0.07733333333333334,0.13166666666666668,0.08666666666666666,0.07999999999999999
11,10,19,1,8,0.24000000000000007,2,3,108,49,100,47,0.9800000000000005,0.23000000000000007,0.6400000000000003,0.12999999999999998,4,2,4,1,7,3,6,1,2,0,13,7,L,0.14,0.07666666666666666,0.10666666666666669,0.12999999999999998
11,10,20,1,11,0.26000000000000006,2,5,67,112,32,111,1.1900000000000006,0.16,0.22000000000000006,0.4200000000000002,5,2,2,2,11,3,3,3,4,0,13,7,L,0.1081818181818182,0.05333333333333333,0.07333333333333332,0.14
11,11,21,1,8,0.36000000000000015,2,7,97,101,50,55,1.2600000000000007,0.2900000000000001,0.36000000000000015,0.02,4,2,3,1,14,3,8,1,2,0,12,7,L,0.09000000000000001,0.09666666666666668,0.045,0.02
11,11,22,1,3,0.23000000000000007,2,4,31,35,85,93,0.9000000000000005,0.38000000000000017,0.8200000000000005,0.3000000000000001,4,2,2,2,14,5,5,2,5,0,16,7,L,0.06428571428571428,0.07600000000000001,0.164,0.15000000000000002
11,12,23,1,11,0.26000000000000006,2,4,72,111,43,44,0.9100000000000004,1.370000000000001,0.15,0.2700000000000001,6,3,1,2,16,12,1,3,4,0,16,7,L,0.056875,0.1141666666666667,0.15,0.09
11,12,24,1,15,0.5300000000000002,3,7,15,13,107,51,1.2800000000000007,7.649999999999881,0.01,0.01,5,19,1,1,9,67,1,1,6,0,18,7,L,0.14222222222222228,0.11417910447761195,0.01,0.01
11,13,25,1,8,0.3000000000000001,2,5,108,15,97,39,1.570000000000001,0.18000000000000002,0.3900000000000002,0.21000000000000005,6,2,4,4,17,3,4,7,2,0,15,7,L,0.09235294117647061,0.060000000000000005,0.09749999999999999,0.03
11,13,26,1,7,0.5300000000000002,2,7,8,114,11,57,1.590000000000001,0.23000000000000007,0.46000000000000024,0.08,4,1,3,1,19,1,4,1,6,0,18,7,L,0.08368421052631579,0.23000000000000007,0.115,0.08
11,14,27,1,3,0.4400000000000002,2,6,26,27,10,2,1.2800000000000007,0.47000000000000025,0.5900000000000003,0.34000000000000014,7,2,4,2,16,4,6,2,5,0,22,7,L,0.08,0.11750000000000005,0.09833333333333334,0.17000000000000004
11,14,28,1,13,0.19000000000000003,2,3,114,55,48,94,1.0800000000000005,0.5000000000000002,0.3000000000000001,0.18000000000000002,5,2,2,1,11,5,3,1,2,0,14,7,L,0.09818181818181819,0.09999999999999999,0.1,0.18000000000000002
11,15,29,1,1,0.20000000000000004,3,4,82,38,60,76,0.9300000000000005,0.8000000000000005,0.22000000000000006,0.060000000000000005,6,4,2,1,12,10,3,1,3,0,15,7,L,0.0775,0.08,0.07333333333333333,0.060000000000000005
11,15,30,1,3,0.34000000000000014,2,6,30,27,92,67,1.3000000000000007,0.03,0.7200000000000004,0.3000000000000001,4,1,2,2,16,1,7,3,5,0,17,7,L,0.08125000000000002,0.03,0.10285714285714287,0.10000000000000002
11,16,31,1,14,0.25000000000000006,3,3,14,90,95,57,9.789999999999841,0.01,0.01,0.01,20,1,1,1,71,1,1,1,3,0,16,7,L,0.13788732394366202,0.01,0.01,0.01
11,16,32,1,8,0.36000000000000015,2,6,106,105,107,11,1.2600000000000007,0.6000000000000003,0.25000000000000006,0.9400000000000006,7,2,2,3,18,8,4,9,2,0.5,18,7,L,0.07,0.075,0.0625,0.10444444444444446
11,17,33,1,15,0.4300000000000002,3,7,22,51,35,25,1.1100000000000005,0.35000000000000014,0.12999999999999998,0.6400000000000003,5,2,1,3,16,5,1,6,6,0,20,7,L,0.069375,0.07,0.12999999999999998,0.10666666666666669
11,17,34,1,12,0.5300000000000002,11,15,43,48,38,97,1.0900000000000005,0.37000000000000016,0.17,0.7100000000000004,13,2,2,2,20,4,5,6,5,0.5,32,7,L,0.0545,0.0925,0.034,0.11833333333333336
11,18,35,1,12,0.3900000000000002,2,6,38,54,11,2,1.0800000000000005,0.4200000000000002,0.5700000000000003,0.09999999999999999,4,2,2,1,10,3,6,1,5,0,21,7,L,0.10800000000000003,0.14,0.09500000000000001,0.09999999999999999
11,18,36,1,11,18.5500000000001,15,194,79,115,22,23,19.0800000000001,0.35000000000000014,0.8000000000000005,0.12999999999999998,18,2,3,3,202,5,7,3,4,0,17,7,L,0.09445544554455447,0.06999999999999999,0.1142857142857143,0.04333333333333333
11,19,37,1,11,0.5300000000000002,7,9,64,7,106,6,1.730000000000001,2.3599999999999937,0.49000000000000027,0.4200000000000002,9,4,3,4,22,23,6,6,4,0,18,7,L,0.07863636363636364,0.10260869565217393,0.08166666666666667,0.07
11,19,38,1,15,0.25000000000000006,2,7,14,111,22,110,1.2200000000000006,0.4200000000000002,0.08,0.25000000000000006,4,3,1,2,17,4,1,3,6,0,16,7,L,0.07176470588235295,0.10500000000000001,0.08,0.08333333333333333
11,20,39,1,1,0.25000000000000006,3,4,84,113,78,72,0.9500000000000004,0.5100000000000002,0.8000000000000005,0.08,5,2,3,2,10,5,5,3,3,0,12,7,L,0.095,0.10200000000000002,0.16000000000000006,0.026666666666666665
11,20,40,1,3,0.21000000000000005,2,5,26,2,33,60,0.6700000000000003,3.749999999999964,0.01,0.02,4,11,1,1,13,38,1,1,5,0,20,7,L,0.05153846153846154,0.0986842105263158,0.01,0.02
11,21,41,1,1,0.36000000000000015,2,8,83,11,77,10,0.9900000000000004,0.47000000000000025,0.24000000000000007,0.3100000000000001,4,2,2,3,12,7,3,7,3,0,18,7,L,0.0825,0.06714285714285714,0.08,0.04428571428571428
11,21,42,1,2,0.22000000000000006,2,3,19,51,88,95,8.39999999999987,0.01,0.24000000000000007,0.04,19,1,2,1,51,1,2,1,4,0,16,7,L,0.1647058823529412,0.01,0.12000000000000004,0.04
11,22,43,1,7,0.5100000000000002,2,3,38,7,42,108,1.3200000000000007,0.10999999999999999,2.819999999999984,0.47000000000000025,4,1,6,2,12,1,21,2,6,0,18,7,L,0.11000000000000003,0.10999999999999999,0.1342857142857143,0.23500000000000004
11,22,44,1,2,0.25000000000000006,2,5,54,33,14,31,1.4400000000000008,0.6100000000000003,0.08,0.11999999999999998,4,2,1,2,11,6,1,2,4,0,20,7,L,0.13090909090909095,0.10166666666666667,0.08,0.060000000000000005
12,1,1,0,3,0.12999999999999998,2,3,21,29,36,16,0.4600000000000001,0.07,0.07,0.05,3,1,1,1,4,1,1,1,5,0,22,7,L,0.11500000000000003,0.07,0.07,0.05
12,1,2,0,4,0.12999999999999998,2,3,39,102,40,38,0.4800000000000001,0.05,0.10999999999999999,0.05,3,1,1,1,4,1,1,1,2,0.5,32,7,L,0.12000000000000004,0.05,0.10999999999999999,0.05
12,2,3,0,9,0.07,2,2,68,67,24,66,0.32000000000000006,0.11999999999999998,0.08,0.04,3,1,1,1,3,1,1,1,4,0.5,30,7,L,0.10666666666666669,0.11999999999999998,0.08,0.04
12,2,4,0,3,0.15,2,3,75,57,8,73,0.5300000000000001,0.11999999999999998,0.08,0.05,3,1,1,1,4,1,1,1,5,0,16,7,L,0.13250000000000003,0.11999999999999998,0.08,0.05
12,3,5,0,4,0.09,2,2,107,108,72,8,0.4600000000000002,0.01,0.18000000000000002,0.060000000000000005,4,1,1,1,4,1,1,1,2,0,14,7,L,0.11500000000000002,0.01,0.18000000000000002,0.060000000000000005
12,3,6,0,2,0.10999999999999999,2,2,47,89,60,13,9.16999999999985,0.48000000000000026,0.060000000000000005,0.01,10,2,2,1,14,2,2,1,4,0,18,7,L,0.6549999999999996,0.2400000000000001,0.030000000000000002,0.01
12,4,7,0,4,0.13999999999999999,2,3,103,25,106,13,0.44000000000000006,0.20000000000000004,0.07,0.03,4,1,2,1,5,1,2,1,2,0,15,7,L,0.088,0.20000000000000004,0.035,0.03
12,4,8,0,10,0.16,4,4,88,10,52,4,0.45000000000000007,0.25000000000000006,0.02,0.4400000000000002,5,2,1,2,5,2,1,2,3,0,19,7,L,0.09000000000000002,0.12500000000000003,0.02,0.22000000000000006
12,5,9,0,7,0.15,2,3,97,21,87,105,0.5600000000000002,0.01,0.11999999999999998,0.07,4,1,1,1,6,1,1,1,6,0,13,7,L,0.09333333333333334,0.01,0.11999999999999998,0.07
12,5,10,0,1,0.11999999999999998,3,3,74,78,44,83,0.37000000000000005,0.11999999999999998,0.17,0.21000000000000005,4,1,1,2,4,1,1,2,3,0.5,23,7,L,0.09250000000000001,0.11999999999999998,0.17,0.10500000000000002
12,6,11,0,1,0.10999999999999999,3,3,81,78,98,97,0.48000000000000015,0.04,0.09,0.11999999999999998,5,1,1,1,7,1,1,1,3,0,10,7,L,0.06857142857142857,0.04,0.09,0.11999999999999998
12,6,12,0,9,0.12999999999999998,2,3,66,95,64,92,0.43000000000000005,0.6000000000000003,1.0500000000000007,0.01,4,2,1,1,7,2,1,1,4,0,14,7,L,0.06142857142857143,0.30000000000000016,1.0500000000000007,0.01
12,7,13,1,11,0.12999999999999998,2,3,89,65,119,68,0.5300000000000001,0.05,0.10999999999999999,1.1000000000000008,3,1,2,2,4,1,2,2,4,0,13,7,L,0.13250000000000006,0.05,0.05500000000000001,0.5500000000000004
12,7,14,1,12,0.21000000000000005,7,7,44,48,40,39,0.38000000000000006,0.23000000000000007,0.01,1.1800000000000008,8,2,1,3,8,2,1,5,5,1,60,7,L,0.0475,0.11499999999999999,0.01,0.2360000000000001
12,8,15,1,13,0.16,3,3,119,117,115,61,0.5600000000000002,0.060000000000000005,0.09,0.03,5,1,1,1,5,1,1,1,2,0.5,16,7,L,0.11200000000000002,0.060000000000000005,0.09,0.03
12,8,16,1,8,0.08,2,3,104,102,54,50,0.3500000000000001,0.08,0.09,0.07,3,1,2,1,4,1,2,1,2,0,12,7,L,0.08750000000000002,0.08,0.045000000000000005,0.07
12,9,17,1,7,0.10999999999999999,2,3,9,104,50,108,0.38000000000000006,0.18000000000000002,0.060000000000000005,1.390000000000001,4,1,1,2,5,1,1,2,6,0,14,7,L,0.076,0.18000000000000002,0.060000000000000005,0.6950000000000004
12,9,18,1,15,0.13999999999999999,4,4,18,14,119,92,0.39,0.10999999999999999,6.039999999999916,0.3000000000000001,5,1,6,2,5,1,8,2,6,0,17,7,L,0.07800000000000001,0.10999999999999999,0.754999999999999,0.15000000000000002
12,10,19,1,12,0.15,2,3,54,41,43,53,0.4800000000000001,0.03,0.07,0.060000000000000005,4,1,1,1,6,1,1,1,5,0,18,7,L,0.08,0.03,0.07,0.060000000000000005
12,10,20,1,11,0.10999999999999999,2,3,119,118,114,68,8.459999999999866,7.309999999999889,2.07,1.0900000000000007,7,9,3,2,10,13,3,2,4,0.5,16,7,L,0.8459999999999995,0.5623076923076921,0.6900000000000004,0.5450000000000003
12,11,21,1,7,0.11999999999999998,2,3,89,12,4,35,0.5200000000000001,0.060000000000000005,0.05,0.9000000000000006,3,1,1,3,4,1,1,3,6,0,20,7,L,0.13000000000000006,0.060000000000000005,0.05,0.30000000000000016
12,11,22,1,12,0.12999999999999998,3,3,38,37,51,79,0.4700000000000001,0.05,0.09999999999999999,0.10999999999999999,5,1,1,1,5,1,1,1,5,0,17,7,L,0.094,0.05,0.09999999999999999,0.10999999999999999
12,12,23,1,8,0.07,2,2,105,104,84,106,0.29000000000000004,0.2900000000000001,0.07,1.7800000000000014,3,2,1,2,3,3,1,2,2,0.5,15,7,L,0.09666666666666668,0.09666666666666668,0.07,0.8900000000000007
12,12,24,1,2,0.12999999999999998,2,2,49,59,86,42,0.44000000000000006,0.15,0.08,0.05,3,1,1,1,3,2,1,1,4,0,16,7,L,0.1466666666666667,0.07500000000000001,0.08,0.05
12,13,25,1,12,0.16,2,3,99,86,5,6,1.0000000000000004,0.01,0.01,0.6000000000000003,4,1,1,3,5,1,1,3,5,0,17,7,L,0.2000000000000001,0.01,0.01,0.20000000000000007
12,13,26,1,3,0.15,2,2,35,36,24,21,0.43000000000000005,0.21000000000000005,0.09,0.060000000000000005,3,1,1,1,3,1,1,1,5,0,22,7,L,0.14333333333333337,0.21000000000000005,0.09,0.060000000000000005
12,14,27,1,15,0.09,2,2,15,13,28,19,0.3400000000000001,0.12999999999999998,0.10999999999999999,0.03,3,1,1,1,3,1,1,1,6,0.5,41,7,L,0.11333333333333336,0.12999999999999998,0.10999999999999999,0.03
12,14,28,1,12,0.10999999999999999,2,3,41,118,38,112,0.7700000000000004,0.02,0.05,0.02,4,1,1,1,5,1,1,1,5,0,14,7,L,0.15400000000000008,0.02,0.05,0.02
12,15,29,1,2,0.11999999999999998,2,3,53,79,32,73,0.34,0.21000000000000005,1.1100000000000008,0.01,4,1,2,1,5,1,2,1,4,0,15,7,L,0.068,0.21000000000000005,0.5550000000000004,0.01
12,15,30,1,14,0.10999999999999999,2,3,116,119,48,11,0.47000000000000014,0.09999999999999999,0.15,1.340000000000001,3,1,1,4,4,1,1,4,3,0,15,7,L,0.11750000000000003,0.09999999999999999,0.15,0.3350000000000002
12,16,31,1,7,0.09,2,3,113,6,5,94,0.4500000000000002,0.07,3.9199999999999604,0.01,3,1,7,1,4,1,9,1,6,0,17,7,L,0.11250000000000004,0.07,0.4355555555555558,0.01
12,16,32,1,1,0.10999999999999999,2,3,38,97,17,79,3.9199999999999626,1.290000000000001,0.01,0.02,4,2,1,1,5,2,1,1,3,0,16,7,L,0.7839999999999929,0.6450000000000004,0.01,0.02
12,17,33,1,12,0.12999999999999998,2,3,39,40,24,13,0.45000000000000007,0.05,0.11999999999999998,0.08,3,1,1,1,4,1,1,1,5,0,22,7,L,0.11250000000000003,0.05,0.11999999999999998,0.08
12,17,34,1,2,0.12999999999999998,2,3,51,85,12,107,0.6600000000000003,0.060000000000000005,0.03,0.07,4,1,1,1,5,1,1,1,4,0,15,7,L,0.13200000000000006,0.060000000000000005,0.03,0.07
12,18,35,1,13,0.16,4,4,120,118,12,94,0.6300000000000002,0.15,0.2800000000000001,0.03,6,1,2,1,6,1,2,1,2,0,13,7,L,0.10500000000000002,0.15,0.14000000000000004,0.03
12,18,36,1,12,0.23000000000000007,4,4,43,101,53,106,0.6200000000000002,0.8900000000000006,0.01,0.01,6,2,1,1,6,2,1,1,5,0,13,7,L,0.10333333333333336,0.4450000000000003,0.01,0.01
12,19,37,1,15,0.20000000000000004,2,4,44,20,119,70,0.5000000000000001,0.04,0.09999999999999999,0.49000000000000027,3,1,2,2,5,1,2,2,6,0,17,7,L,0.10000000000000002,0.04,0.049999999999999996,0.2450000000000001
12,19,38,1,3,0.12999999999999998,2,3,35,88,101,11,0.5700000000000002,0.09999999999999999,0.04,0.03,5,1,1,1,7,1,1,1,5,0,16,7,L,0.08142857142857145,0.09999999999999999,0.04,0.03
12,20,39,1,8,0.11999999999999998,2,3,100,66,69,14,0.4200000000000001,0.25000000000000006,0.7200000000000004,0.01,4,1,2,1,5,1,2,1,2,0,16,7,L,0.084,0.25000000000000006,0.36000000000000015,0.01
12,20,40,1,12,0.17,2,3,54,110,8,44,1.0000000000000004,0.8300000000000005,0.01,1.0500000000000007,4,4,1,2,5,4,1,2,5,0,17,7,L,0.2000000000000001,0.2075000000000001,0.01,0.5250000000000004
12,21,41,1,1,0.10999999999999999,2,3,61,40,44,80,0.47000000000000014,0.16,0.20000000000000004,0.01,3,1,1,1,4,1,1,1,3,0,17,7,L,0.11750000000000003,0.16,0.20000000000000004,0.01
12,21,42,1,14,0.20000000000000004,2,3,3,94,98,4,0.5400000000000001,0.03,0.12999999999999998,0.24000000000000007,3,1,1,2,4,1,1,2,3,0,17,7,L,0.13500000000000004,0.03,0.12999999999999998,0.12000000000000004
12,22,43,1,13,0.08,2,2,109,110,71,117,0.3600000000000001,0.07,0.09999999999999999,0.02,4,1,1,1,5,1,1,1,2,0.5,16,7,L,0.072,0.07,0.09999999999999999,0.02
12,22,44,1,2,0.08,2,3,102,38,58,105,0.5100000000000002,0.05,0.03,0.04,3,1,1,1,4,1,1,1,4,0,13,7,L,0.12750000000000006,0.05,0.03,0.04
13,1,1,0,5,0.36000000000000015,2,3,44,57,6,115,0.6800000000000003,0.3300000000000001,2.7299999999999858,0.18000000000000002,3,1,2,1,4,1,2,1,5,0,17,7,L,0.17000000000000004,0.3300000000000001,1.3649999999999929,0.18000000000000002
13,1,2,0,4,0.2900000000000001,2,3,35,65,103,82,0.9400000000000004,0.48000000000000026,0.03,0.07,3,1,1,1,4,1,1,1,2,0,14,7,L,0.2350000000000001,0.48000000000000026,0.03,0.07
13,2,3,0,1,0.3200000000000001,2,3,24,99,67,33,1.1200000000000006,0.17,0.12999999999999998,0.09,4,1,1,2,5,1,1,2,3,0,17,7,L,0.22400000000000006,0.17,0.12999999999999998,0.045
13,2,4,0,5,0.2800000000000001,2,3,8,40,96,110,0.9800000000000004,0.09,0.21000000000000005,0.10999999999999999,4,1,1,1,5,1,1,1,5,0,16,7,L,0.19600000000000006,0.09,0.21000000000000005,0.10999999999999999
13,3,5,0,8,0.3300000000000001,2,3,110,18,113,91,1.0400000000000005,0.25000000000000006,0.03,0.11999999999999998,4,2,1,1,6,2,1,1,2,0,13,7,L,0.17333333333333337,0.125,0.03,0.11999999999999998
13,3,6,0,5,0.3100000000000001,2,3,44,105,60,11,0.7400000000000003,0.3900000000000002,0.09999999999999999,0.09999999999999999,4,2,1,1,5,4,1,1,5,0,17,7,L,0.14800000000000002,0.09750000000000003,0.09999999999999999,0.09999999999999999
13,4,7,0,4,0.25000000000000006,2,3,42,94,9,41,0.9000000000000004,0.37000000000000016,0.07,0.04,3,2,1,1,4,2,1,1,2,0,19,7,L,0.2250000000000001,0.18500000000000005,0.07,0.04
13,4,8,0,3,0.36000000000000015,2,3,116,79,32,84,0.9600000000000004,0.4100000000000002,0.09999999999999999,0.25000000000000006,3,1,2,1,4,1,2,1,5,0,13,7,L,0.24000000000000007,0.4100000000000002,0.05,0.25000000000000006
13,5,9,0,2,0.34000000000000014,2,3,58,60,30,36,0.8100000000000004,0.17,0.2900000000000001,0.07,3,1,2,1,4,1,2,1,4,0,18,7,L,0.20250000000000007,0.17,0.145,0.07
13,5,10,0,6,0.5500000000000003,9,11,3,2,91,72,0.9300000000000004,0.22000000000000006,0.12999999999999998,0.3300000000000001,10,1,1,2,12,1,1,3,6,0,19,7,L,0.07750000000000001,0.22000000000000006,0.12999999999999998,0.11000000000000001
