Subject,Round,Phase,afterbreak,Schema,Schema_RT,Schema_OB,Schema_AS,Cho_1,Cho_2,Cho_3,Cho_4,RT_1,RT_2,RT_3,RT_4,OB_1,OB_2,OB_3,OB_4,AS_1,AS_2,AS_3,AS_4,schema_payoff,AC,performance,breakR,type,dwellmean_1,dwellmean_2,dwellmean_3,dwellmean_4
1,1,1,0,2,0.15,2,2,13,104,75,83,27.870000000001532,0.02,0.01,0.01,20,1,1,1,55,1,1,1,3,0,14,7,HL,0.5067272727272725,0.02,0.01,0.01
1,1,2,0,9,0.37000000000000016,2,3,72,85,34,91,3.3099999999999814,0.5600000000000003,0.3300000000000001,0.24000000000000007,9,1,1,1,12,1,1,1,4,0,15,7,HL,0.27583333333333343,0.5600000000000003,0.3300000000000001,0.24000000000000007
1,2,3,0,4,0.5200000000000002,4,6,97,103,66,99,4.099999999999968,0.12999999999999998,0.36000000000000015,1.260000000000001,11,2,1,3,17,2,1,5,2,0.5,10,7,HL,0.24117647058823538,0.065,0.36000000000000015,0.2520000000000001
1,2,4,0,1,0.6800000000000004,2,3,21,36,115,57,3.0499999999999936,0.34000000000000014,0.5700000000000003,1.8100000000000014,4,1,1,3,10,1,1,4,5,0,17,7,HL,0.30500000000000016,0.34000000000000014,0.5700000000000003,0.45250000000000024
1,3,5,0,3,0.3300000000000001,2,3,24,39,84,45,3.009999999999987,1.2000000000000008,0.4000000000000002,0.04,7,4,1,1,13,5,1,1,5,0,19,7,HL,0.2315384615384616,0.24000000000000007,0.4000000000000002,0.04
1,3,6,0,1,0.5400000000000003,2,5,97,31,2,58,2.7899999999999965,1.1600000000000008,0.48000000000000026,0.4300000000000002,3,2,2,2,6,5,2,2,5,0,17,7,HL,0.46499999999999936,0.23200000000000007,0.24000000000000007,0.21500000000000002
1,4,7,0,3,1.1100000000000008,13,16,42,110,113,51,5.219999999999958,2.239999999999996,0.02,0.2800000000000001,20,4,2,2,26,6,2,2,5,0,13,7,HL,0.20076923076923084,0.3733333333333335,0.01,0.14
1,4,8,0,1,0.34000000000000014,2,4,29,30,27,10,3.539999999999976,1.1300000000000008,2.06,0.8000000000000005,5,2,6,3,8,3,6,3,5,0.5,21,7,HL,0.4425000000000003,0.37666666666666687,0.3433333333333335,0.2666666666666668
1,5,9,0,7,0.7800000000000005,9,9,69,63,93,4,3.769999999999981,5.229999999999933,0.08,0.03,11,10,1,1,14,16,1,1,3,0,17,7,HL,0.2692857142857144,0.32687500000000014,0.08,0.03
1,5,10,0,3,0.7300000000000004,2,6,52,84,54,77,2.6700000000000017,0.6700000000000004,0.2800000000000001,0.5000000000000002,5,1,1,3,12,1,1,3,5,0,14,7,HL,0.2225000000000001,0.6700000000000004,0.2800000000000001,0.1666666666666667
1,6,11,0,10,1.6600000000000013,16,19,63,24,17,109,3.4700000000000024,0.45000000000000023,0.23000000000000007,0.3100000000000001,18,1,2,2,23,1,2,2,6,0,18,7,HL,0.15086956521739137,0.45000000000000023,0.11499999999999999,0.15500000000000003
1,6,12,0,5,0.9600000000000006,16,18,2,3,83,12,1.9800000000000013,8.569999999999862,0.01,0.01,17,15,1,1,19,25,1,1,6,0.5,21,7,HL,0.10421052631578952,0.34280000000000016,0.01,0.01
1,7,13,1,8,0.3100000000000001,2,3,74,17,23,117,3.0899999999999848,0.15,0.13999999999999999,0.13999999999999999,6,1,1,1,12,1,1,1,2,0,17,7,HL,0.2575000000000001,0.15,0.13999999999999999,0.13999999999999999
1,7,14,1,4,0.26000000000000006,2,4,100,99,60,8,3.4799999999999756,3.0799999999999783,2.7799999999999847,0.02,9,4,4,1,13,5,6,1,2,0,14,7,HL,0.2676923076923078,0.6160000000000004,0.4633333333333336,0.02
1,8,15,1,10,0.21000000000000005,2,3,18,16,108,78,1.4800000000000009,4.799999999999942,0.02,0.02,5,6,1,1,7,10,1,1,6,0,17,7,HL,0.2114285714285715,0.48000000000000026,0.02,0.02
1,8,16,1,7,0.4400000000000002,2,4,95,49,87,54,1.8800000000000012,0.8800000000000006,1.440000000000001,0.12999999999999998,4,1,4,1,6,1,6,1,3,0,14,7,HL,0.31333333333333346,0.8800000000000006,0.2400000000000001,0.12999999999999998
1,9,17,1,1,0.5400000000000003,5,5,78,25,76,65,7.879999999999888,1.330000000000001,0.01,0.01,14,2,1,1,22,2,1,1,5,0,15,7,HL,0.3581818181818184,0.6650000000000005,0.01,0.01
1,9,18,1,6,0.6400000000000003,4,5,22,118,19,15,3.5699999999999816,0.25000000000000006,0.19000000000000003,0.10999999999999999,8,1,2,1,14,1,2,1,4,0.5,38,7,HL,0.2550000000000001,0.25000000000000006,0.095,0.10999999999999999
1,10,19,1,2,0.35000000000000014,2,3,81,22,50,73,5.589999999999933,0.16,0.5600000000000003,0.01,10,2,1,1,16,2,1,1,3,0,16,7,HL,0.34937500000000016,0.07999999999999999,0.5600000000000003,0.01
1,10,20,1,4,0.22000000000000006,2,3,98,25,72,96,2.0800000000000014,1.6000000000000012,0.25000000000000006,0.21000000000000005,5,3,1,1,8,4,1,1,2,0,14,7,HL,0.2600000000000001,0.4000000000000002,0.25000000000000006,0.21000000000000005
1,11,21,1,8,1.1800000000000008,5,8,86,28,25,119,5.269999999999958,0.5000000000000002,1.2100000000000009,1.0900000000000007,11,2,6,4,22,2,6,6,2,0,15,7,HL,0.23954545454545464,0.2500000000000001,0.20166666666666674,0.18166666666666673
1,11,22,1,2,0.5500000000000003,3,5,80,81,82,106,5.609999999999937,4.009999999999959,0.7900000000000005,5.569999999999926,9,8,4,11,14,9,4,14,3,0.5,20,7,HL,0.400714285714285,0.44555555555555554,0.19750000000000006,0.3978571428571431
1,12,23,1,7,0.2700000000000001,2,4,22,112,116,23,1.720000000000001,0.8500000000000005,1.1000000000000008,0.19000000000000003,4,2,2,1,6,2,5,1,3,0,16,7,HL,0.2866666666666668,0.42500000000000016,0.22000000000000006,0.19000000000000003
1,12,24,1,1,0.8400000000000005,2,4,31,3,12,25,3.9299999999999784,0.16,0.37000000000000016,1.2100000000000009,10,1,2,6,13,1,2,6,5,0,22,7,HL,0.30230769230769244,0.16,0.18500000000000003,0.20166666666666672
1,13,25,1,5,0.4100000000000002,2,3,12,30,8,3,3.559999999999977,1.9800000000000015,1.300000000000001,0.6500000000000004,9,3,4,3,12,3,4,4,6,0.5,41,7,HL,0.2966666666666668,0.6600000000000005,0.3250000000000002,0.16250000000000006
1,13,26,1,10,0.9100000000000006,2,4,112,117,80,46,3.2599999999999945,4.4499999999999496,0.01,0.7200000000000004,5,6,1,3,7,9,1,3,6,0,12,7,HL,0.46571428571428597,0.49444444444444474,0.01,0.24000000000000013
1,14,27,1,2,0.25000000000000006,2,4,78,73,33,82,1.3000000000000007,0.7700000000000005,0.9500000000000006,0.19000000000000003,4,2,2,2,6,3,2,2,3,0.5,23,7,HL,0.21666666666666676,0.2566666666666667,0.4750000000000002,0.095
1,14,28,1,6,0.4200000000000002,3,4,97,104,95,12,2.95999999999999,0.26000000000000006,0.9700000000000006,0.11999999999999998,8,1,1,1,12,1,1,1,4,0,13,7,HL,0.24666666666666676,0.26000000000000006,0.9700000000000006,0.11999999999999998
1,15,29,1,6,0.21000000000000005,2,3,91,33,36,100,2.829999999999988,0.7600000000000005,0.34000000000000014,0.05,8,1,2,1,10,1,3,1,4,0,15,7,HL,0.28300000000000014,0.7600000000000005,0.11333333333333336,0.05
1,15,30,1,8,0.3100000000000001,2,3,37,45,120,76,4.76999999999995,0.16,0.15,0.02,9,1,2,1,16,1,2,1,2,0,15,7,HL,0.29812500000000014,0.16,0.075,0.02
1,16,31,1,8,0.4100000000000002,2,3,112,13,118,18,3.469999999999979,0.48000000000000026,0.21000000000000005,0.6000000000000003,7,2,1,3,12,2,1,3,2,0,16,7,HL,0.2891666666666668,0.24000000000000007,0.21000000000000005,0.20000000000000007
1,16,32,1,4,0.37000000000000016,2,4,101,91,96,47,4.949999999999947,0.10999999999999999,0.2700000000000001,0.45000000000000023,12,1,2,2,20,1,2,2,2,0,13,7,HL,0.24750000000000008,0.10999999999999999,0.13500000000000004,0.2250000000000001
1,17,33,1,8,1.470000000000001,3,4,13,110,15,26,3.6099999999999994,1.8000000000000014,0.8900000000000006,0.3100000000000001,7,3,2,2,9,3,3,2,2,0,19,7,HL,0.40111111111111136,0.6000000000000004,0.2966666666666668,0.15500000000000003
1,17,34,1,4,0.36000000000000015,2,4,108,104,95,87,1.4400000000000008,2.0300000000000007,0.3900000000000002,1.0000000000000007,3,6,1,2,5,12,1,2,2,0,10,7,HL,0.28800000000000014,0.1691666666666667,0.3900000000000002,0.5000000000000003
1,18,35,1,10,1.6700000000000013,5,6,15,58,115,114,3.9099999999999975,1.480000000000001,0.08,0.18000000000000002,9,3,1,2,10,7,1,4,6,0,14,7,HL,0.39100000000000024,0.2114285714285715,0.08,0.045
1,18,36,1,7,0.34000000000000014,2,3,95,85,92,104,1.1200000000000006,0.9600000000000006,0.3100000000000001,0.4400000000000002,4,3,1,1,5,3,1,1,3,0.5,20,7,HL,0.2240000000000001,0.3200000000000002,0.3100000000000001,0.4400000000000002
1,19,37,1,4,0.48000000000000026,2,3,107,90,95,103,2.2800000000000016,0.9600000000000006,1.9200000000000015,1.330000000000001,5,2,3,3,8,3,3,3,2,0,10,7,HL,0.28500000000000014,0.3200000000000002,0.6400000000000005,0.44333333333333363
1,19,38,1,9,0.37000000000000016,2,3,17,22,61,30,2.869999999999991,2.289999999999995,0.08,0.07,5,4,2,2,7,4,2,3,4,0,21,7,HL,0.4100000000000002,0.5725000000000005,0.04,0.023333333333333334
1,20,39,1,8,0.5300000000000002,2,3,111,55,57,92,1.8300000000000012,0.9700000000000006,0.7700000000000005,0.09,4,1,2,2,5,1,2,2,2,0,13,7,HL,0.36600000000000016,0.9700000000000006,0.3850000000000002,0.045
1,20,40,1,10,0.6300000000000003,2,4,13,19,99,102,1.660000000000001,1.0100000000000007,0.46000000000000024,0.3200000000000001,4,2,1,1,6,3,1,1,6,0,16,7,HL,0.2766666666666668,0.3366666666666668,0.46000000000000024,0.3200000000000001
1,21,41,1,4,0.6700000000000004,5,7,97,90,65,88,1.8100000000000012,1.0800000000000007,0.9300000000000006,1.1900000000000008,6,2,3,3,9,4,6,3,2,0,12,7,HL,0.20111111111111118,0.2700000000000001,0.15500000000000005,0.3966666666666669
1,21,42,1,1,1.0600000000000007,3,5,81,57,116,30,2.2300000000000013,0.7500000000000004,0.4200000000000002,0.2800000000000001,5,1,2,1,7,1,2,1,5,0,14,7,HL,0.3185714285714287,0.7500000000000004,0.21000000000000005,0.2800000000000001
2,1,1,0,1,0.5100000000000002,2,3,6,29,61,83,4.849999999999952,0.25000000000000006,1.2300000000000009,0.3000000000000001,7,1,2,1,13,1,4,1,5,0,18,7,HL,0.37307692307692325,0.25000000000000006,0.3075000000000001,0.3000000000000001
2,1,2,0,6,0.7200000000000004,2,6,23,39,87,53,4.979999999999954,0.5900000000000003,0.5000000000000002,0.5800000000000003,7,1,1,3,16,1,1,3,4,0,18,7,HL,0.31125000000000014,0.5900000000000003,0.5000000000000002,0.1933333333333334
2,2,3,0,3,0.45000000000000023,2,4,95,85,37,71,4.86999999999995,0.34000000000000014,0.12999999999999998,1.2300000000000009,8,2,1,4,15,2,1,5,5,0,15,7,HL,0.3246666666666668,0.17000000000000007,0.12999999999999998,0.24600000000000008
2,2,4,0,8,0.49000000000000027,2,4,120,109,119,75,2.0100000000000016,0.8300000000000005,2.7799999999999847,0.3200000000000001,4,2,5,2,8,2,7,5,2,0.5,9,7,HL,0.2512500000000001,0.4150000000000002,0.39714285714285735,0.064
2,3,5,0,10,0.46000000000000024,2,5,62,22,19,14,6.559999999999914,0.05,3.369999999999972,0.01,8,1,5,1,14,1,5,1,6,0.5,22,7,HL,0.46857142857142825,0.05,0.6740000000000004,0.01
2,3,6,0,2,0.5000000000000002,2,5,118,53,83,54,4.489999999999959,2.669999999999987,0.03,0.12999999999999998,8,5,1,1,13,9,1,1,3,0,13,7,HL,0.34538461538461557,0.2966666666666668,0.03,0.12999999999999998
2,4,7,0,3,0.4100000000000002,2,3,43,70,40,77,1.670000000000001,1.490000000000001,0.3300000000000001,0.8600000000000005,4,3,1,4,5,3,1,4,5,0,17,7,HL,0.33400000000000013,0.496666666666667,0.3300000000000001,0.2150000000000001
2,4,8,0,4,0.4200000000000002,2,4,102,86,89,106,2.8599999999999923,2.429999999999992,1.0600000000000007,1.8900000000000015,5,4,2,5,9,7,2,6,2,0,10,7,HL,0.31777777777777794,0.3471428571428573,0.5300000000000002,0.31500000000000017
2,5,9,0,1,0.3300000000000001,2,3,32,107,108,35,2.0700000000000016,2.199999999999997,0.34000000000000014,0.24000000000000007,5,4,1,2,9,7,1,2,5,0,14,7,HL,0.2300000000000001,0.31428571428571445,0.34000000000000014,0.12
2,5,10,0,9,0.6300000000000003,3,4,92,62,89,67,5.339999999999945,0.3900000000000002,0.16,0.11999999999999998,11,3,1,1,18,3,1,1,4,0,14,7,HL,0.2966666666666668,0.13,0.16,0.11999999999999998
2,6,11,0,9,0.7700000000000005,2,5,64,70,5,11,6.729999999999918,0.09999999999999999,1.1000000000000008,1.5300000000000011,12,1,1,3,19,1,1,4,4,0,20,7,HL,0.3542105263157895,0.09999999999999999,1.1000000000000008,0.3825000000000002
2,6,12,0,10,0.3100000000000001,2,3,108,84,22,101,5.029999999999944,1.490000000000001,0.25000000000000006,0.08,8,2,2,1,17,2,2,1,6,0,13,7,HL,0.29588235294117665,0.7450000000000004,0.12500000000000003,0.08
2,7,13,1,3,0.5600000000000003,2,4,39,38,8,69,1.4100000000000008,3.0599999999999787,0.9700000000000006,0.23000000000000007,3,5,2,1,5,7,3,1,5,0,20,7,HL,0.28200000000000014,0.4371428571428574,0.3233333333333335,0.23000000000000007
2,7,14,1,7,0.5000000000000002,3,5,93,99,19,31,2.7099999999999973,3.0599999999999787,3.47999999999997,2.869999999999983,6,7,7,4,11,7,9,6,3,0,16,7,HL,0.24636363636363645,0.4371428571428574,0.3866666666666669,0.4783333333333336
2,8,15,1,9,0.5600000000000003,2,3,67,66,64,115,3.979999999999971,10.05999999999983,0.01,0.2900000000000001,6,12,1,2,10,22,1,2,4,0.5,26,7,HL,0.3980000000000002,0.45727272727272694,0.01,0.14500000000000005
2,8,16,1,4,0.6100000000000003,2,4,98,100,55,35,3.62999999999998,1.9100000000000015,1.2500000000000009,1.0000000000000007,10,5,2,3,14,5,3,4,2,0,13,7,HL,0.2592857142857144,0.38200000000000023,0.41666666666666685,0.2500000000000001
2,9,17,1,10,0.8500000000000005,13,13,103,25,27,67,5.349999999999949,3.229999999999975,0.8900000000000006,0.05,20,7,3,1,26,11,3,1,6,0,16,7,HL,0.20576923076923087,0.29363636363636375,0.29666666666666675,0.05
2,9,18,1,8,0.47000000000000025,3,4,115,9,40,42,2.270000000000002,2.099999999999999,1.8300000000000014,0.05,6,2,3,1,8,2,3,1,2,0,18,7,HL,0.28375000000000017,1.0500000000000007,0.6100000000000004,0.05
2,10,19,1,6,0.4400000000000002,2,3,107,59,89,100,6.679999999999912,0.7500000000000004,1.6000000000000012,0.35000000000000014,13,2,3,2,26,2,3,2,4,0,11,7,HL,0.25692307692307703,0.3750000000000002,0.5333333333333337,0.17500000000000007
2,10,20,1,8,0.36000000000000015,1,2,120,26,63,72,4.029999999999966,1.350000000000001,0.5900000000000003,1.2400000000000009,6,4,2,4,11,4,3,7,2,0,15,7,HL,0.36636363636363656,0.33750000000000013,0.1966666666666667,0.17714285714285719
2,11,21,1,3,0.2800000000000001,2,3,38,42,44,100,3.249999999999981,0.34000000000000014,0.13999999999999999,4.599999999999946,6,2,1,6,7,2,1,7,5,0.5,32,7,HL,0.4642857142857146,0.17,0.13999999999999999,0.6571428571428576
2,11,22,1,7,0.6500000000000004,2,4,120,96,69,65,5.289999999999946,0.49000000000000027,0.9300000000000006,0.3300000000000001,7,4,2,2,10,5,2,2,3,0,13,7,HL,0.5290000000000004,0.09800000000000003,0.4650000000000003,0.165
2,12,23,1,10,0.2800000000000001,3,5,18,17,107,89,1.660000000000001,9.249999999999847,0.02,0.01,6,14,1,1,9,32,1,1,6,0,17,7,HL,0.18444444444444452,0.2890625000000001,0.02,0.01
2,12,24,1,2,0.4000000000000002,2,3,71,26,77,66,4.059999999999966,0.25000000000000006,0.25000000000000006,0.38000000000000017,9,1,1,2,14,1,1,2,3,0,16,7,HL,0.2900000000000001,0.25000000000000006,0.25000000000000006,0.19000000000000003
2,13,25,1,10,0.7900000000000005,4,6,15,14,87,46,1.600000000000001,14.899999999999727,0.01,0.02,6,17,1,1,8,44,1,1,6,0,20,7,HL,0.20000000000000007,0.3386363636363638,0.01,0.02
2,13,26,1,6,0.4200000000000002,2,4,35,27,58,50,3.399999999999981,0.46000000000000024,0.26000000000000006,0.20000000000000004,8,2,2,1,18,3,2,1,4,0,18,7,HL,0.18888888888888894,0.15333333333333335,0.13000000000000003,0.20000000000000004
2,14,27,1,5,2.0300000000000007,4,11,3,2,111,118,3.6300000000000017,0.8200000000000005,12.41999999999978,0.01,7,2,13,1,16,2,24,1,6,0,16,7,HL,0.2268750000000001,0.4100000000000002,0.5175,0.01
2,14,28,1,4,0.2900000000000001,2,3,54,48,37,44,2.5199999999999965,5.649999999999924,1.5900000000000012,0.8200000000000005,5,6,2,3,7,10,2,3,2,0.5,34,7,HL,0.3600000000000002,0.5650000000000004,0.7950000000000006,0.27333333333333343
2,15,29,1,2,0.34000000000000014,3,4,102,84,108,82,2.7799999999999923,1.8200000000000014,0.12999999999999998,3.2099999999999755,6,5,1,5,10,6,1,6,3,0,10,7,HL,0.27800000000000014,0.30333333333333345,0.12999999999999998,0.5350000000000003
2,15,30,1,10,0.8700000000000006,4,5,21,33,19,64,2.8800000000000017,0.6700000000000004,6.149999999999913,0.26000000000000006,6,1,6,1,15,1,12,1,6,0,21,7,HL,0.1920000000000001,0.6700000000000004,0.5125000000000003,0.26000000000000006
2,16,31,1,7,3.2699999999999743,8,15,70,67,63,62,5.1099999999999755,0.5300000000000002,0.3300000000000001,0.8700000000000006,10,1,1,2,20,1,1,2,3,1,48,7,HL,0.2555000000000001,0.5300000000000002,0.3300000000000001,0.4350000000000002
2,16,32,1,8,0.4200000000000002,2,4,112,113,22,60,3.339999999999982,0.48000000000000026,0.5400000000000003,0.36000000000000015,6,1,1,2,15,1,1,2,2,0,14,7,HL,0.22266666666666673,0.48000000000000026,0.5400000000000003,0.18000000000000002
2,17,33,1,5,0.7600000000000005,2,4,120,10,3,117,2.3800000000000017,3.0799999999999783,8.419999999999865,0.5600000000000003,3,7,12,3,5,8,25,3,6,0,16,7,HL,0.47600000000000026,0.3850000000000002,0.33680000000000015,0.18666666666666673
2,17,34,1,7,0.5600000000000003,2,3,92,53,89,54,3.3099999999999854,0.21000000000000005,0.9200000000000006,0.8100000000000005,6,1,2,3,15,1,2,3,3,0,14,7,HL,0.22066666666666676,0.21000000000000005,0.4600000000000002,0.27000000000000013
2,18,35,1,4,0.8700000000000006,2,5,19,87,99,58,13.509999999999776,0.01,0.01,0.01,19,1,1,1,36,1,1,1,2,0,15,7,HL,0.375277777777778,0.01,0.01,0.01
2,18,36,1,3,1.0800000000000007,3,7,80,112,37,75,4.709999999999967,4.609999999999946,0.24000000000000007,0.04,8,4,2,1,20,4,2,1,5,0,13,7,HL,0.2355000000000001,1.1524999999999943,0.11999999999999998,0.04
2,19,37,1,1,0.3100000000000001,3,4,55,95,36,51,2.569999999999996,2.99999999999998,0.05,0.8000000000000005,5,2,1,3,13,4,1,3,5,0,16,7,HL,0.19769230769230775,0.7500000000000004,0.05,0.2666666666666668
2,19,38,1,2,0.37000000000000016,2,4,77,84,64,119,2.3400000000000016,2.9399999999999813,0.5800000000000003,0.4100000000000002,5,6,2,1,10,8,2,1,3,0,12,7,HL,0.2340000000000001,0.36750000000000016,0.2900000000000001,0.4100000000000002
2,20,39,1,5,1.0900000000000007,4,7,2,97,65,67,10.19999999999985,0.01,0.2900000000000001,0.01,15,1,2,1,27,1,2,1,6,0,16,7,HL,0.377777777777778,0.01,0.14500000000000005,0.01
2,20,40,1,1,1.0100000000000007,4,7,85,116,18,115,4.859999999999962,1.2200000000000009,0.35000000000000014,0.060000000000000005,8,2,1,1,15,4,1,1,5,0,13,7,HL,0.3240000000000002,0.3050000000000001,0.35000000000000014,0.060000000000000005
2,21,41,1,3,0.5200000000000002,2,3,107,101,12,1,3.899999999999972,0.6400000000000003,0.37000000000000016,0.36000000000000015,9,2,1,1,13,2,1,1,5,0,16,7,HL,0.30000000000000016,0.3200000000000001,0.37000000000000016,0.36000000000000015
2,21,42,1,2,1.400000000000001,3,7,84,76,75,52,3.3400000000000025,1.8700000000000014,0.46000000000000024,0.46000000000000024,6,3,2,3,11,5,3,4,3,0.5,22,7,HL,0.30363636363636376,0.37400000000000017,0.15333333333333335,0.11500000000000002
3,1,1,0,9,0.47000000000000025,2,6,12,46,63,66,3.579999999999978,1.1600000000000008,0.46000000000000024,0.09999999999999999,7,3,3,2,19,6,3,2,4,0,19,7,HL,0.18842105263157902,0.19333333333333338,0.15333333333333335,0.05
3,1,2,0,6,0.34000000000000014,2,3,57,36,53,119,2.549999999999997,1.0400000000000007,0.24000000000000007,0.5900000000000003,5,2,1,1,7,4,1,1,4,0,15,7,HL,0.36428571428571443,0.2600000000000001,0.24000000000000007,0.5900000000000003
3,2,3,0,2,0.16,1,2,27,51,73,79,2.359999999999997,1.2500000000000009,0.19000000000000003,0.17,6,2,1,1,8,4,1,1,3,0,15,7,HL,0.29500000000000015,0.3125000000000001,0.19000000000000003,0.17
3,2,4,0,7,0.4400000000000002,2,4,91,87,45,89,1.7700000000000011,1.0400000000000007,0.9600000000000006,1.6700000000000013,5,3,3,4,9,4,3,6,3,0.5,14,7,HL,0.1966666666666667,0.26000000000000006,0.3200000000000002,0.27833333333333343
3,3,5,0,7,0.24000000000000007,2,3,28,57,85,58,4.129999999999961,1.380000000000001,0.04,0.21000000000000005,8,6,1,2,10,6,1,2,3,0,16,7,HL,0.4130000000000002,0.23000000000000007,0.04,0.105
3,3,6,0,3,0.26000000000000006,2,3,41,38,6,40,4.149999999999961,1.0600000000000007,0.19000000000000003,0.03,11,5,1,1,15,6,1,1,5,0.5,21,7,HL,0.2766666666666668,0.17666666666666672,0.19000000000000003,0.03
3,4,7,0,3,0.3200000000000001,2,4,44,37,42,15,2.8299999999999907,0.2900000000000001,0.3000000000000001,2.159999999999998,8,1,2,4,13,2,3,10,5,0.5,21,7,HL,0.21769230769230777,0.14500000000000002,0.10000000000000002,0.21600000000000008
3,4,8,0,1,0.46000000000000024,2,6,95,55,96,35,2.589999999999999,0.8900000000000006,0.2700000000000001,0.6200000000000003,8,3,2,3,14,5,4,3,5,0,15,7,HL,0.18500000000000005,0.17800000000000005,0.0675,0.2066666666666667
3,5,9,0,4,0.20000000000000004,2,3,104,89,34,93,2.6199999999999926,0.7700000000000005,0.6000000000000003,0.49000000000000027,8,2,3,3,19,6,3,3,2,0,13,7,HL,0.1378947368421053,0.12833333333333333,0.20000000000000007,0.16333333333333339
3,5,10,0,6,0.16,2,3,77,53,46,55,2.739999999999989,0.23000000000000007,0.5200000000000002,2.2299999999999964,7,2,2,5,16,2,2,5,4,0,16,7,HL,0.17125000000000004,0.11499999999999999,0.2600000000000001,0.4460000000000003
3,6,11,0,10,0.35000000000000014,2,5,20,16,14,111,3.5299999999999763,0.6200000000000003,0.19000000000000003,1.7100000000000013,10,2,1,5,19,4,1,6,6,0.5,20,7,HL,0.1857894736842106,0.15500000000000003,0.19000000000000003,0.28500000000000014
3,6,12,0,9,0.34000000000000014,2,5,67,102,63,101,3.769999999999971,0.7500000000000004,0.09,0.35000000000000014,10,2,1,2,16,3,1,2,4,0,12,7,HL,0.23562500000000008,0.25000000000000006,0.09,0.17500000000000002
3,7,13,1,8,0.26000000000000006,2,3,21,63,20,13,4.329999999999957,0.9400000000000006,0.6300000000000003,0.08,13,2,2,1,20,3,2,1,2,0.5,40,7,HL,0.21650000000000008,0.31333333333333346,0.3150000000000001,0.08
3,7,14,1,4,0.23000000000000007,2,4,51,98,60,59,3.6299999999999715,0.7800000000000005,1.260000000000001,0.09,14,4,4,2,23,4,4,2,2,0.5,26,7,HL,0.15782608695652178,0.19500000000000003,0.31500000000000017,0.045
3,8,15,1,6,0.23000000000000007,2,5,53,16,88,14,2.949999999999986,1.1500000000000008,0.6000000000000003,0.2700000000000001,6,4,2,3,13,8,3,3,4,0,19,7,HL,0.226923076923077,0.14375000000000004,0.20000000000000007,0.09
3,8,16,1,8,0.3200000000000001,2,3,114,5,76,48,5.409999999999936,1.1200000000000008,0.23000000000000007,0.060000000000000005,12,4,2,1,19,6,2,1,2,0,16,7,HL,0.2847368421052633,0.1866666666666667,0.11500000000000003,0.060000000000000005
3,9,17,1,8,0.23000000000000007,2,3,116,1,12,110,1.700000000000001,1.7000000000000013,0.4200000000000002,0.19000000000000003,4,5,2,2,9,5,3,2,2,0,16,7,HL,0.18888888888888897,0.3400000000000002,0.14,0.095
3,9,18,1,3,0.22000000000000006,2,4,90,87,89,53,2.5599999999999943,1.2300000000000009,0.15,0.5300000000000002,7,5,1,3,13,5,1,3,5,0.5,22,7,HL,0.19692307692307698,0.24600000000000008,0.15,0.1766666666666667
3,10,19,1,4,0.16,2,3,106,100,95,16,2.1100000000000017,2.4499999999999917,0.15,0.5200000000000002,6,5,1,2,9,10,1,3,2,0,13,7,HL,0.23444444444444454,0.2450000000000001,0.15,0.1733333333333334
3,10,20,1,8,0.3100000000000001,2,4,116,115,11,9,1.3400000000000007,2.869999999999983,0.23000000000000007,4.479999999999949,4,6,1,13,6,13,1,21,2,0,16,7,HL,0.22333333333333344,0.22076923076923086,0.23000000000000007,0.2133333333333334
3,11,21,1,6,0.26000000000000006,2,3,60,9,117,3,2.4099999999999984,5.209999999999933,0.01,0.7100000000000004,9,7,1,4,13,16,1,4,4,0,18,7,HL,0.18538461538461545,0.32562500000000016,0.01,0.17750000000000005
3,11,22,1,9,0.2900000000000001,2,3,72,13,46,62,17.779999999999934,0.3000000000000001,0.01,0.01,19,2,1,1,61,2,1,1,4,0,19,7,HL,0.2914754098360657,0.15000000000000005,0.01,0.01
3,12,23,1,8,0.37000000000000016,2,3,70,115,118,18,3.0799999999999863,0.9000000000000006,0.13999999999999999,0.26000000000000006,9,3,1,1,15,4,1,1,2,0,14,7,HL,0.2053333333333334,0.22500000000000006,0.13999999999999999,0.26000000000000006
3,12,24,1,7,0.9900000000000007,4,8,5,55,8,100,4.94999999999996,0.07,0.24000000000000007,0.11999999999999998,10,1,2,1,17,1,4,1,3,0,18,7,HL,0.2911764705882354,0.07,0.06,0.11999999999999998
3,13,25,1,9,0.6700000000000004,5,8,62,107,67,103,5.059999999999951,0.9100000000000006,0.10999999999999999,0.37000000000000016,16,5,1,2,29,7,1,2,4,0,12,7,HL,0.1744827586206897,0.13,0.10999999999999999,0.18500000000000005
3,13,26,1,6,0.2700000000000001,2,4,22,15,49,23,3.6299999999999724,0.6500000000000004,0.8200000000000005,4.279999999999953,10,3,5,9,14,4,5,12,4,0.5,40,7,HL,0.2592857142857144,0.1625,0.16400000000000006,0.35666666666666685
3,14,27,1,8,0.6100000000000003,3,6,62,36,112,119,3.099999999999991,1.5900000000000012,0.09999999999999999,0.05,9,4,1,1,15,6,1,1,2,0,13,7,HL,0.20666666666666672,0.2650000000000001,0.09999999999999999,0.05
3,14,28,1,6,0.26000000000000006,2,4,57,104,58,108,2.1000000000000014,1.1500000000000008,1.2200000000000009,0.5100000000000002,7,3,3,4,11,6,4,7,4,0,12,7,HL,0.19090909090909097,0.19166666666666674,0.3050000000000002,0.07285714285714286
3,15,29,1,6,0.37000000000000016,3,4,50,95,15,36,6.539999999999913,0.01,0.17,0.03,16,1,1,1,28,1,1,1,4,0,18,7,HL,0.23357142857142865,0.01,0.17,0.03
3,15,30,1,2,0.2700000000000001,2,4,115,116,80,83,3.9599999999999653,0.7900000000000005,0.05,0.09999999999999999,11,5,1,2,18,5,1,2,3,0,10,7,HL,0.22000000000000006,0.15800000000000006,0.05,0.05
3,16,31,1,2,0.5700000000000003,4,5,50,81,73,9,3.4699999999999824,0.5900000000000003,1.380000000000001,0.21000000000000005,9,2,4,2,13,3,6,2,3,0,16,7,HL,0.26692307692307704,0.19666666666666668,0.2300000000000001,0.10500000000000001
3,16,32,1,10,0.3000000000000001,2,3,22,27,65,19,1.670000000000001,2.299999999999995,0.8600000000000005,0.5800000000000003,5,6,3,3,7,9,3,3,6,0,21,7,HL,0.23857142857142866,0.25555555555555565,0.2866666666666668,0.19333333333333338
3,17,33,1,4,0.3200000000000001,2,3,2,68,85,90,15.269999999999726,0.01,0.36000000000000015,0.46000000000000024,20,1,2,2,59,1,2,2,2,0,16,7,HL,0.258813559322034,0.01,0.18000000000000008,0.23000000000000012
3,17,34,1,8,0.4000000000000002,2,3,109,17,20,58,3.0099999999999887,2.349999999999994,1.0300000000000007,0.09,9,6,4,1,13,9,4,1,2,0,18,7,HL,0.2315384615384616,0.26111111111111124,0.25750000000000006,0.09
3,18,35,1,9,0.38000000000000017,3,4,86,2,32,31,2.45,0.8000000000000005,0.7700000000000005,0.36000000000000015,8,3,2,1,14,3,3,1,4,0,19,7,HL,0.17500000000000007,0.2666666666666668,0.25666666666666677,0.36000000000000015
3,18,36,1,6,0.12999999999999998,2,2,13,17,22,40,8.84999999999986,0.01,0.01,0.01,15,1,1,1,36,1,1,1,4,0.5,41,7,HL,0.24583333333333343,0.01,0.01,0.01
3,19,37,1,9,0.3300000000000001,3,4,67,28,65,9,3.469999999999977,0.4100000000000002,0.09999999999999999,0.7900000000000005,10,2,1,2,18,3,1,2,4,0,19,7,HL,0.19277777777777783,0.13666666666666671,0.09999999999999999,0.3950000000000002
3,19,38,1,3,0.38000000000000017,4,5,42,103,18,56,2.509999999999999,1.440000000000001,0.4400000000000002,0.2800000000000001,7,3,2,2,13,7,2,2,5,0,17,7,HL,0.19307692307692315,0.2057142857142858,0.22000000000000006,0.14000000000000004
3,20,39,1,6,0.2900000000000001,3,6,32,56,7,25,3.009999999999986,0.4100000000000002,1.0000000000000007,0.10999999999999999,9,2,3,1,17,2,3,1,4,0,20,7,HL,0.17705882352941182,0.20500000000000002,0.3333333333333335,0.10999999999999999
3,20,40,1,2,0.3900000000000002,2,5,83,84,21,66,1.7900000000000011,1.2400000000000009,0.48000000000000026,0.36000000000000015,4,2,1,2,8,4,1,3,3,0,16,7,HL,0.22375000000000012,0.3100000000000001,0.48000000000000026,0.12000000000000004
3,21,41,1,7,0.3300000000000001,3,5,91,113,120,69,1.660000000000001,0.7300000000000004,1.0800000000000007,0.46000000000000024,6,2,3,3,10,2,4,3,3,0,11,7,HL,0.16600000000000006,0.36500000000000016,0.2700000000000001,0.15333333333333338
3,21,42,1,1,0.7500000000000004,3,7,35,73,22,36,2.3800000000000017,1.0700000000000007,0.34000000000000014,0.4000000000000002,6,2,1,2,10,4,1,3,5,0,19,7,HL,0.2380000000000001,0.2675000000000001,0.34000000000000014,0.13333333333333333
4,1,1,0,4,0.4400000000000002,2,3,24,101,31,35,4.789999999999952,0.5200000000000002,0.2900000000000001,0.18000000000000002,9,3,2,2,14,3,3,3,2,0,18,7,HL,0.3421428571428573,0.17333333333333337,0.09666666666666668,0.06
4,1,2,0,8,0.3900000000000002,2,3,74,47,118,116,4.159999999999964,0.37000000000000016,0.12999999999999998,0.12999999999999998,8,1,1,2,18,1,1,2,2,0,12,7,HL,0.23111111111111118,0.37000000000000016,0.12999999999999998,0.06499999999999999
4,2,3,0,4,0.35000000000000014,2,3,108,31,36,97,2.9999999999999876,3.099999999999978,0.10999999999999999,0.04,7,9,1,1,9,16,1,1,2,0,14,7,HL,0.3333333333333335,0.19375000000000006,0.10999999999999999,0.04
4,2,4,0,8,0.35000000000000014,2,4,14,110,43,117,3.6199999999999743,0.2800000000000001,0.4100000000000002,0.15,9,2,2,1,23,3,2,1,2,0,15,7,HL,0.15739130434782614,0.09333333333333334,0.20500000000000007,0.15
4,3,5,0,4,0.49000000000000027,2,5,102,99,50,12,1.630000000000001,0.7500000000000004,1.300000000000001,2.6899999999999866,4,2,2,10,9,5,3,15,2,0,14,7,HL,0.18111111111111117,0.15000000000000005,0.43333333333333357,0.17933333333333337
4,3,6,0,7,0.6200000000000003,2,5,88,14,92,113,4.329999999999965,1.490000000000001,0.49000000000000027,0.2700000000000001,8,3,4,2,14,3,5,2,3,0,14,7,HL,0.30928571428571444,0.4966666666666669,0.098,0.135
4,4,7,0,5,0.25000000000000006,1,2,3,56,34,7,3.4599999999999755,0.6300000000000003,0.6700000000000004,0.10999999999999999,8,2,3,2,14,2,3,2,6,0,21,7,HL,0.24714285714285722,0.3150000000000001,0.22333333333333344,0.05499999999999999
4,4,8,0,10,0.3900000000000002,2,3,110,48,47,15,3.639999999999975,1.6900000000000013,0.7300000000000004,0.09999999999999999,9,4,5,2,16,5,5,2,6,0,18,7,HL,0.22750000000000006,0.33800000000000013,0.14600000000000002,0.05
4,5,9,0,6,0.6900000000000004,4,7,51,74,25,57,3.5399999999999836,0.5100000000000002,0.5900000000000003,0.38000000000000017,8,1,2,2,17,1,2,3,4,0,16,7,HL,0.20823529411764713,0.5100000000000002,0.2950000000000001,0.12666666666666665
4,5,10,0,7,0.46000000000000024,3,5,110,115,96,24,2.2600000000000016,0.4100000000000002,0.3300000000000001,0.3100000000000001,6,2,1,1,9,2,1,1,3,0,13,7,HL,0.25111111111111123,0.20500000000000004,0.3300000000000001,0.3100000000000001
4,6,11,0,10,0.37000000000000016,2,4,20,56,18,57,3.0299999999999874,1.9000000000000015,0.12999999999999998,1.350000000000001,7,5,1,4,14,6,1,8,6,0,20,7,HL,0.2164285714285715,0.31666666666666676,0.12999999999999998,0.16875000000000004
4,6,12,0,9,0.3100000000000001,2,3,61,80,117,65,2.599999999999995,1.6600000000000013,0.34000000000000014,1.2000000000000008,8,5,2,4,14,8,3,4,4,0,13,7,HL,0.18571428571428578,0.20750000000000005,0.11333333333333333,0.30000000000000016
4,7,13,1,4,0.3100000000000001,2,4,21,105,14,55,2.899999999999989,0.4200000000000002,0.8500000000000005,0.46000000000000024,9,2,5,2,14,2,5,2,2,0,18,7,HL,0.2071428571428572,0.21000000000000002,0.17000000000000004,0.23000000000000007
4,7,14,1,3,0.2800000000000001,2,3,74,41,65,45,4.339999999999958,0.23000000000000007,0.34000000000000014,1.1000000000000008,9,2,1,2,11,4,1,2,5,0,17,7,HL,0.39454545454545475,0.057499999999999996,0.34000000000000014,0.5500000000000004
4,8,15,1,8,0.16,1,2,118,67,21,64,0.8700000000000004,2.0000000000000013,1.1600000000000008,0.5100000000000002,3,3,5,3,4,3,6,3,2,0,16,7,HL,0.2175000000000001,0.6666666666666671,0.19333333333333336,0.17000000000000004
4,8,16,1,1,3.2499999999999747,3,10,29,59,25,51,4.489999999999975,0.6800000000000004,0.8500000000000005,2.239999999999996,6,2,3,6,14,4,4,10,5,0,18,7,HL,0.3207142857142859,0.17000000000000004,0.21250000000000005,0.2240000000000001
4,9,17,1,1,0.5600000000000003,3,4,66,62,30,33,3.279999999999986,1.7400000000000013,0.12999999999999998,0.16,9,5,1,2,17,6,1,2,5,0,18,7,HL,0.19294117647058828,0.2900000000000001,0.12999999999999998,0.07999999999999999
4,9,18,1,3,0.49000000000000027,2,5,38,112,47,13,3.4899999999999802,0.6300000000000003,0.16,0.5400000000000003,8,2,1,2,19,2,1,5,5,0,18,7,HL,0.18368421052631584,0.3150000000000001,0.16,0.10800000000000001
4,10,19,1,4,0.46000000000000024,2,4,46,90,65,86,3.5499999999999785,1.8200000000000014,0.6300000000000003,0.08,8,6,4,1,10,9,4,1,2,0,15,7,HL,0.35500000000000015,0.20222222222222228,0.15750000000000003,0.08
4,10,20,1,10,0.5000000000000002,2,3,23,79,75,73,2.9699999999999918,3.2599999999999745,0.25000000000000006,0.10999999999999999,6,8,2,1,8,12,3,1,6,0.5,24,7,HL,0.3712500000000002,0.2716666666666668,0.08333333333333333,0.10999999999999999
4,11,21,1,7,0.5100000000000002,4,7,86,115,91,13,1.620000000000001,3.049999999999979,0.09999999999999999,0.7800000000000005,6,7,1,2,11,10,1,2,3,0,14,7,HL,0.1472727272727273,0.3050000000000001,0.09999999999999999,0.3900000000000002
4,11,22,1,1,0.5500000000000003,2,6,25,71,28,30,3.7799999999999754,1.260000000000001,0.10999999999999999,0.10999999999999999,9,6,1,1,14,7,1,1,5,0.5,34,7,HL,0.27000000000000013,0.18000000000000002,0.10999999999999999,0.10999999999999999
4,12,23,1,6,0.6000000000000003,3,5,59,29,49,58,4.3299999999999645,0.36000000000000015,0.20000000000000004,2.949999999999981,14,2,3,7,25,3,3,10,4,0.5,29,7,HL,0.17320000000000005,0.12000000000000001,0.06666666666666667,0.29500000000000015
4,12,24,1,3,0.48000000000000026,2,5,16,102,40,87,3.9999999999999694,0.6000000000000003,0.12999999999999998,0.17,9,2,1,1,18,2,1,1,5,0,16,7,HL,0.2222222222222223,0.3000000000000001,0.12999999999999998,0.17
4,13,25,1,5,0.9200000000000006,3,5,5,4,47,10,6.449999999999927,2.6899999999999866,0.20000000000000004,0.01,13,6,2,1,24,7,2,1,6,0.5,41,7,HL,0.2687500000000001,0.38428571428571445,0.10000000000000002,0.01
4,13,26,1,6,0.6300000000000003,2,5,99,56,100,55,1.590000000000001,1.2500000000000009,0.3200000000000001,0.34000000000000014,3,5,1,2,6,6,1,2,4,0,12,7,HL,0.2650000000000001,0.2083333333333334,0.3200000000000001,0.17
4,14,27,1,10,0.5800000000000003,2,4,55,17,23,96,3.6699999999999786,0.6300000000000003,0.23000000000000007,1.420000000000001,8,1,1,6,21,1,1,9,6,0,19,7,HL,0.1747619047619048,0.6300000000000003,0.23000000000000007,0.1577777777777778
4,14,28,1,2,0.47000000000000025,2,4,76,82,104,97,4.209999999999964,0.13999999999999999,0.19000000000000003,0.18000000000000002,12,1,1,2,20,1,1,2,3,0,10,7,HL,0.21050000000000008,0.13999999999999999,0.19000000000000003,0.09
4,15,29,1,3,0.48000000000000026,2,5,84,114,38,39,4.829999999999952,0.5000000000000002,0.5300000000000002,0.4300000000000002,11,3,3,4,17,4,3,4,5,0,15,7,HL,0.28411764705882364,0.12500000000000003,0.17666666666666675,0.10750000000000001
4,15,30,1,1,0.2800000000000001,2,3,49,31,30,87,3.939999999999966,0.09,0.17,0.47000000000000025,8,1,2,3,15,1,2,3,5,0,17,7,HL,0.26266666666666677,0.09,0.08499999999999999,0.1566666666666667
4,16,31,1,8,0.3100000000000001,4,7,118,109,40,14,1.560000000000001,0.9700000000000006,1.0400000000000007,0.4200000000000002,8,2,2,1,15,5,4,1,2,0,15,7,HL,0.10400000000000002,0.19400000000000003,0.26000000000000006,0.4200000000000002
4,16,32,1,4,0.5900000000000003,5,6,5,97,103,36,4.3799999999999635,0.2800000000000001,0.35000000000000014,0.6000000000000003,14,2,2,3,22,2,2,4,2,0,15,7,HL,0.19909090909090915,0.14,0.17500000000000002,0.15000000000000005
4,17,33,1,2,0.5800000000000003,3,7,66,83,74,98,3.7799999999999763,0.19000000000000003,1.2200000000000009,0.10999999999999999,11,2,3,2,23,2,7,2,3,0,12,7,HL,0.16434782608695656,0.095,0.17428571428571432,0.05500000000000001
4,17,34,1,1,0.25000000000000006,2,3,25,12,8,9,2.2500000000000013,1.7100000000000013,0.16,0.6800000000000004,6,4,1,2,13,6,1,3,5,0.5,41,7,HL,0.17307692307692313,0.28500000000000014,0.16,0.22666666666666674
4,18,35,1,7,0.2900000000000001,2,4,90,8,88,94,1.4300000000000008,3.00999999999998,0.17,0.5600000000000003,5,6,2,2,8,11,2,2,3,0.5,24,7,HL,0.17875000000000005,0.27363636363636373,0.08499999999999999,0.28000000000000014
4,18,36,1,9,0.4100000000000002,2,4,66,115,61,67,3.559999999999977,0.7900000000000005,0.3000000000000001,0.22000000000000006,8,4,2,2,16,9,3,2,4,0.5,26,7,HL,0.2225000000000001,0.08777777777777779,0.09999999999999999,0.11
4,19,37,1,9,1.0100000000000007,2,9,46,38,10,43,4.059999999999979,0.3200000000000001,0.9400000000000006,0.24000000000000007,8,2,3,2,18,2,4,2,4,0.5,36,7,HL,0.22555555555555562,0.16000000000000003,0.23500000000000007,0.12000000000000002
4,19,38,1,10,0.26000000000000006,2,3,18,13,19,117,1.0200000000000005,5.129999999999935,0.01,0.35000000000000014,4,11,1,1,6,14,1,2,6,0.5,38,7,HL,0.17000000000000004,0.3664285714285716,0.01,0.17500000000000004
4,20,39,1,7,1.340000000000001,3,6,88,40,89,92,4.249999999999983,0.5900000000000003,0.10999999999999999,0.3200000000000001,10,3,1,3,15,3,1,3,3,0.5,23,7,HL,0.28333333333333344,0.1966666666666667,0.10999999999999999,0.10666666666666669
4,20,40,1,1,0.37000000000000016,2,5,3,67,82,33,8.309999999999876,0.01,0.6500000000000004,0.01,13,1,2,1,25,1,2,1,5,0,18,7,HL,0.33240000000000014,0.01,0.3250000000000002,0.01
4,21,41,1,10,0.13999999999999999,2,2,14,23,20,65,3.2699999999999774,0.20000000000000004,0.7100000000000004,1.7800000000000014,5,1,3,6,11,1,3,7,6,0.5,40,7,HL,0.2972727272727274,0.20000000000000004,0.23666666666666672,0.25428571428571434
4,21,42,1,6,0.8700000000000006,2,4,12,100,76,50,3.099999999999997,2.3199999999999945,0.25000000000000006,0.45000000000000023,7,6,2,3,10,11,2,3,4,0,15,7,HL,0.3100000000000001,0.210909090909091,0.12500000000000003,0.15000000000000002
5,1,1,0,9,0.4000000000000002,2,4,66,61,100,64,6.949999999999905,1.310000000000001,5.589999999999925,1.0400000000000007,12,3,9,4,37,6,23,8,4,0.5,14,7,HL,0.1878378378378379,0.2183333333333334,0.24304347826086967,0.13000000000000003
5,1,2,0,3,0.5000000000000002,2,5,93,42,90,49,11.069999999999819,1.400000000000001,1.9100000000000015,0.7800000000000005,18,3,4,2,51,7,9,4,5,0,15,7,HL,0.21705882352941183,0.20000000000000007,0.2122222222222223,0.19500000000000006
5,2,3,0,5,0.5400000000000003,2,6,96,9,92,11,12.939999999999781,0.19000000000000003,2.759999999999985,0.16,20,1,6,2,60,1,11,3,6,0,18,7,HL,0.21566666666666673,0.19000000000000003,0.250909090909091,0.05333333333333334
5,2,4,0,4,0.37000000000000016,2,3,98,100,69,107,5.619999999999933,2.859999999999983,2.2299999999999964,0.2900000000000001,13,6,8,1,21,6,10,1,2,0.5,10,7,HL,0.2676190476190477,0.4766666666666669,0.2230000000000001,0.2900000000000001
5,3,5,0,4,0.3000000000000001,2,3,104,102,15,101,2.2300000000000018,7.23999999999989,8.129999999999871,0.8500000000000005,6,13,13,3,10,29,36,3,2,0.5,12,7,HL,0.2230000000000001,0.2496551724137932,0.2258333333333334,0.2833333333333335
5,3,6,0,8,0.4100000000000002,2,3,5,116,51,50,11.949999999999799,0.3200000000000001,0.6600000000000004,0.3100000000000001,17,2,2,1,47,3,2,1,2,0,16,7,HL,0.2542553191489363,0.10666666666666669,0.3300000000000001,0.3100000000000001
5,4,7,0,8,0.34000000000000014,2,3,116,119,57,59,12.629999999999782,0.22000000000000006,0.48000000000000026,0.22000000000000006,15,1,2,2,53,1,2,3,2,0,12,7,HL,0.23830188679245293,0.22000000000000006,0.24000000000000005,0.07333333333333333
5,4,8,0,7,0.4300000000000002,2,4,96,99,89,20,11.989999999999798,0.6600000000000004,0.9300000000000006,2.6599999999999873,15,2,4,7,37,4,10,11,3,0,14,7,HL,0.3240540540540542,0.16500000000000006,0.093,0.24181818181818188
5,5,9,0,2,0.3300000000000001,2,3,99,35,73,32,14.249999999999748,0.7400000000000004,0.25000000000000006,0.6100000000000003,16,2,2,2,61,2,2,4,3,0,15,7,HL,0.2336065573770492,0.37000000000000016,0.12499999999999997,0.15250000000000005
5,5,10,0,8,0.6200000000000003,4,5,19,111,109,24,12.349999999999795,3.4999999999999694,3.979999999999959,0.19000000000000003,20,9,9,2,59,13,17,2,2,0,16,7,HL,0.20932203389830514,0.26923076923076933,0.23411764705882362,0.095
5,6,11,0,5,0.3200000000000001,2,3,10,85,1,6,6.599999999999911,4.479999999999949,3.4399999999999706,0.17,11,8,9,3,30,18,17,3,6,0.5,21,7,HL,0.22000000000000008,0.248888888888889,0.20235294117647065,0.056666666666666664
5,6,12,0,4,0.7800000000000005,2,6,100,64,78,81,9.809999999999853,3.2099999999999755,1.8700000000000014,0.6700000000000004,17,6,4,3,44,14,6,3,2,0,12,7,HL,0.22295454545454552,0.22928571428571437,0.31166666666666676,0.2233333333333334
5,7,13,1,1,0.3100000000000001,2,3,36,32,28,26,8.329999999999874,1.1600000000000008,2.7899999999999845,1.1500000000000008,12,6,5,2,22,7,11,2,5,1,60,7,HL,0.3786363636363638,0.16571428571428576,0.2536363636363637,0.5750000000000003
5,7,14,1,6,0.34000000000000014,4,5,57,52,49,95,5.21999999999994,0.6500000000000004,2.1399999999999983,0.6400000000000003,13,2,7,1,26,2,9,1,4,0.5,27,7,HL,0.20076923076923084,0.3250000000000001,0.23777777777777787,0.6400000000000003
5,8,15,1,1,0.37000000000000016,2,3,28,66,32,6,8.279999999999877,1.0600000000000007,2.3199999999999945,0.7800000000000005,12,2,6,2,29,2,14,4,5,0,20,7,HL,0.28551724137931045,0.5300000000000004,0.16571428571428573,0.19500000000000006
5,8,16,1,10,5.019999999999937,9,25,55,24,108,52,10.409999999999867,2.339999999999994,0.9400000000000006,0.6200000000000003,19,5,3,3,49,17,5,4,6,0,16,7,HL,0.2124489795918368,0.13764705882352943,0.18800000000000006,0.15500000000000003
5,9,17,1,2,0.7500000000000004,2,4,79,100,54,78,11.669999999999812,0.3900000000000002,3.5299999999999687,0.20000000000000004,17,1,5,1,53,1,17,1,3,0,12,7,HL,0.2201886792452831,0.3900000000000002,0.2076470588235295,0.20000000000000004
5,9,18,1,1,0.9300000000000006,4,5,29,11,61,2,9.619999999999859,1.9800000000000015,2.199999999999997,0.36000000000000015,19,2,5,3,37,6,6,4,5,0,21,7,HL,0.2600000000000001,0.3300000000000001,0.36666666666666686,0.09000000000000002
5,10,19,1,1,0.4100000000000002,2,3,101,99,12,29,7.519999999999893,1.7700000000000014,3.369999999999972,0.36000000000000015,12,4,9,3,30,5,21,4,5,0,15,7,HL,0.25066666666666676,0.35400000000000015,0.16047619047619052,0.09000000000000001
5,10,20,1,2,0.3000000000000001,2,3,75,77,73,81,12.209999999999791,0.35000000000000014,0.20000000000000004,2.9899999999999802,19,3,1,8,48,5,1,12,3,1,36,7,HL,0.2543750000000001,0.06999999999999999,0.20000000000000004,0.24916666666666676
5,11,21,1,9,0.18000000000000002,2,3,12,111,72,41,6.799999999999903,0.8400000000000005,0.6000000000000003,1.9500000000000015,12,1,2,3,29,1,4,8,4,0,17,7,HL,0.23448275862068974,0.8400000000000005,0.15000000000000002,0.24375000000000008
5,11,22,1,7,0.34000000000000014,2,3,88,98,89,96,6.469999999999914,2.1299999999999986,0.4000000000000002,1.6900000000000013,11,4,1,3,19,4,1,7,3,0.5,20,7,HL,0.34052631578947384,0.5325000000000003,0.4000000000000002,0.2414285714285715
5,12,23,1,4,0.4000000000000002,2,3,98,100,102,15,19.170000000000133,0.6800000000000004,0.47000000000000025,2.4599999999999915,20,2,5,11,74,2,6,20,2,0.5,18,7,HL,0.2590540540540542,0.3400000000000002,0.07833333333333332,0.12300000000000001
5,12,24,1,2,0.7400000000000004,3,6,75,83,111,118,11.979999999999805,1.1300000000000008,0.49000000000000027,1.8800000000000014,18,5,3,6,63,5,3,10,3,0,10,7,HL,0.19015873015873022,0.22600000000000006,0.16333333333333339,0.18800000000000006
5,13,25,1,3,0.21000000000000005,2,3,38,37,44,103,6.8199999999999035,1.310000000000001,6.259999999999911,1.6300000000000012,13,5,13,8,28,7,27,9,5,0.5,32,7,HL,0.24357142857142866,0.1871428571428572,0.23185185185185195,0.18111111111111117
5,13,26,1,1,0.6100000000000003,2,5,32,34,117,96,7.059999999999907,6.169999999999913,0.2900000000000001,1.1600000000000008,15,12,2,5,29,31,2,9,5,0,15,7,HL,0.24344827586206907,0.1990322580645162,0.14500000000000005,0.1288888888888889
5,14,27,1,2,0.5100000000000002,2,5,75,74,76,113,8.429999999999875,3.4899999999999696,1.440000000000001,0.7100000000000004,17,6,3,4,35,14,9,5,3,0.5,20,7,HL,0.24085714285714294,0.24928571428571436,0.16000000000000003,0.14200000000000002
5,14,28,1,6,0.15,2,3,59,56,58,31,8.30999999999987,0.6500000000000004,1.2300000000000009,0.7100000000000004,17,3,4,4,42,4,5,6,4,0.5,29,7,HL,0.19785714285714293,0.16250000000000003,0.24600000000000005,0.11833333333333335
5,15,29,1,1,0.2900000000000001,2,3,94,30,25,29,10.139999999999835,0.6800000000000004,2.3099999999999947,0.8400000000000005,13,3,4,5,32,3,5,6,5,0.5,33,7,HL,0.31687500000000013,0.22666666666666674,0.46200000000000024,0.14000000000000004
5,15,30,1,3,0.6600000000000004,2,8,83,65,70,68,11.729999999999809,1.490000000000001,0.3900000000000002,0.7400000000000004,19,5,1,5,50,13,1,6,5,0.5,27,7,HL,0.2346000000000001,0.11461538461538463,0.3900000000000002,0.12333333333333335
5,16,31,1,7,0.47000000000000025,2,6,86,90,60,85,2.859999999999993,7.71999999999988,0.47000000000000025,1.460000000000001,6,14,1,6,14,39,1,7,3,0.5,22,7,HL,0.20428571428571435,0.19794871794871802,0.47000000000000025,0.20857142857142863
5,16,32,1,5,0.24000000000000007,2,3,12,8,9,7,12.089999999999792,0.23000000000000007,0.19000000000000003,4.279999999999953,16,1,2,11,47,1,2,22,6,1,72,7,HL,0.2572340425531916,0.23000000000000007,0.095,0.1945454545454546
5,17,33,1,7,0.13999999999999999,2,2,3,95,35,30,41.76000000000029,0.01,0.17,0.26000000000000006,20,1,2,3,167,1,2,3,3,0,19,7,HL,0.250059880239521,0.01,0.085,0.08666666666666666
5,17,34,1,8,0.3300000000000001,2,3,117,120,116,119,5.789999999999928,3.099999999999978,1.8400000000000014,2.06,13,8,4,5,34,12,5,9,2,1,24,7,HL,0.17029411764705887,0.2583333333333334,0.36800000000000016,0.22888888888888895
5,18,35,1,4,0.3300000000000001,2,3,100,85,39,102,7.409999999999894,2.159999999999998,1.9600000000000015,0.24000000000000007,14,3,5,1,31,5,12,1,2,0,12,7,HL,0.23903225806451622,0.4320000000000002,0.16333333333333336,0.24000000000000007
5,18,36,1,8,0.2700000000000001,2,3,120,111,30,27,8.109999999999877,0.3200000000000001,6.359999999999909,2.1399999999999983,15,1,13,7,35,2,31,7,2,0,14,7,HL,0.2317142857142858,0.16000000000000003,0.20516129032258074,0.3057142857142859
5,19,37,1,6,0.6900000000000004,3,6,50,85,49,3,7.159999999999907,1.8800000000000014,0.49000000000000027,1.1500000000000008,13,7,2,4,35,9,3,5,4,0,17,7,HL,0.20457142857142863,0.20888888888888896,0.16333333333333336,0.2300000000000001
5,19,38,1,9,1.0700000000000007,2,5,42,97,70,43,12.5199999999998,1.0900000000000007,0.26000000000000006,1.0100000000000007,20,3,1,4,55,6,1,4,4,0,16,7,HL,0.22763636363636372,0.1816666666666667,0.26000000000000006,0.2525000000000001
6,1,1,0,10,0.37000000000000016,2,4,17,24,93,109,13.499999999999766,0.01,0.01,0.01,19,1,1,1,39,1,1,1,6,0,17,7,HL,0.3461538461538463,0.01,0.01,0.01
6,1,2,0,5,1.2300000000000009,11,12,49,79,10,37,3.110000000000002,0.9700000000000006,0.5400000000000003,0.15,14,3,4,1,15,6,4,1,6,0,18,7,HL,0.2073333333333334,0.1616666666666667,0.135,0.15
6,2,3,0,10,0.7800000000000005,3,5,84,58,74,27,2.620000000000002,0.4300000000000002,0.7000000000000004,0.5000000000000002,6,2,2,3,14,2,4,4,6,0,15,7,HL,0.1871428571428572,0.2150000000000001,0.17500000000000007,0.125
6,2,4,0,3,0.37000000000000016,2,4,1,67,6,94,6.2799999999999185,0.25000000000000006,0.02,0.060000000000000005,14,3,1,1,31,3,1,1,5,0,19,7,HL,0.20258064516129037,0.08333333333333333,0.02,0.060000000000000005
6,3,5,0,1,0.38000000000000017,2,3,33,24,96,30,2.1300000000000017,0.9500000000000006,0.37000000000000016,0.11999999999999998,7,3,1,1,9,7,1,1,5,0,19,7,HL,0.23666666666666675,0.13571428571428576,0.37000000000000016,0.11999999999999998
6,3,6,0,3,0.8000000000000005,9,10,100,50,79,41,2.2100000000000017,1.470000000000001,0.3300000000000001,0.3200000000000001,11,3,2,2,12,6,2,5,5,0,14,7,HL,0.18416666666666673,0.24500000000000005,0.165,0.064
6,4,7,0,3,0.6400000000000003,3,6,83,44,13,77,2.7199999999999998,1.6900000000000013,1.6700000000000013,1.6000000000000012,9,5,4,3,19,9,6,3,5,0,17,7,HL,0.14315789473684215,0.18777777777777782,0.2783333333333335,0.5333333333333337
6,4,8,0,4,0.6500000000000004,2,5,4,9,34,99,1.740000000000001,0.7200000000000004,0.9300000000000006,2.7899999999999845,6,5,3,5,12,6,3,9,2,0,19,7,HL,0.14500000000000002,0.12000000000000004,0.3100000000000001,0.31000000000000016
6,5,9,0,5,0.6700000000000004,4,10,9,10,6,113,1.4200000000000008,0.9300000000000006,3.519999999999969,0.23000000000000007,7,3,6,2,15,6,6,2,6,0.5,20,7,HL,0.09466666666666668,0.15500000000000003,0.586666666666667,0.11500000000000002
6,5,10,0,1,0.4300000000000002,2,3,36,105,22,28,3.299999999999983,0.36000000000000015,0.19000000000000003,0.25000000000000006,11,1,1,3,17,1,1,3,5,0,18,7,HL,0.1941176470588236,0.36000000000000015,0.19000000000000003,0.08333333333333333
6,6,11,0,5,0.3300000000000001,2,3,2,55,102,96,24.56000000000099,0.01,0.01,0.05,20,1,1,1,108,1,1,1,6,0,15,7,HL,0.22740740740740747,0.01,0.01,0.05
6,6,12,0,2,0.3200000000000001,2,4,23,34,111,84,1.660000000000001,1.5100000000000011,0.6900000000000004,0.23000000000000007,6,3,3,2,9,8,4,2,3,0,16,7,HL,0.1844444444444445,0.18875000000000006,0.17250000000000004,0.115
6,7,13,1,4,0.47000000000000025,2,5,100,56,37,7,1.680000000000001,1.0800000000000007,0.9500000000000006,0.12999999999999998,6,3,3,1,12,6,5,1,2,0,17,7,HL,0.14,0.18000000000000005,0.19000000000000006,0.12999999999999998
6,7,14,1,9,0.24000000000000007,2,4,22,119,13,20,2.929999999999987,0.9400000000000006,0.17,0.2700000000000001,8,4,2,2,13,7,2,3,4,0.5,38,7,HL,0.22538461538461546,0.13428571428571429,0.08499999999999999,0.09
6,8,15,1,5,0.3900000000000002,2,3,84,37,6,64,2.7999999999999927,0.5000000000000002,0.2900000000000001,0.7400000000000004,12,1,2,1,21,1,2,1,6,0,18,7,HL,0.13333333333333336,0.5000000000000002,0.14500000000000005,0.7400000000000004
6,8,16,1,1,0.4300000000000002,2,4,106,29,92,13,4.429999999999959,0.37000000000000016,0.25000000000000006,0.13999999999999999,8,3,2,2,13,3,3,2,5,0,16,7,HL,0.34076923076923094,0.12333333333333334,0.08333333333333333,0.06999999999999999
6,9,17,1,6,0.21000000000000005,2,2,19,73,21,57,8.569999999999867,0.01,0.01,0.07,14,1,1,2,25,1,1,2,4,0,19,7,HL,0.34280000000000016,0.01,0.01,0.035
6,9,18,1,9,0.24000000000000007,2,2,1,3,112,66,2.8899999999999877,0.3200000000000001,0.4000000000000002,0.15,6,1,2,1,6,2,2,2,4,0,18,7,HL,0.4816666666666669,0.16000000000000006,0.20000000000000004,0.07499999999999998
6,10,19,1,3,0.36000000000000015,2,3,75,106,45,9,1.7900000000000011,1.340000000000001,0.16,0.24000000000000007,5,4,1,1,9,8,1,1,5,0,16,7,HL,0.19888888888888898,0.16750000000000004,0.16,0.24000000000000007
6,10,20,1,9,0.46000000000000024,2,3,20,18,109,27,3.0299999999999896,1.1800000000000008,0.22000000000000006,0.24000000000000007,8,5,2,1,11,8,2,1,4,0,19,7,HL,0.27545454545454556,0.14750000000000002,0.10999999999999999,0.24000000000000007
6,11,21,1,7,0.6900000000000004,2,8,93,96,99,12,1.8400000000000012,0.5500000000000003,1.6500000000000012,0.17,7,2,5,1,16,3,7,1,3,0,14,7,HL,0.11500000000000002,0.1833333333333334,0.2357142857142858,0.17
6,11,22,1,2,0.6500000000000004,9,9,55,83,76,112,5.329999999999945,0.9300000000000006,2.149999999999998,1.6400000000000012,19,3,5,5,32,4,9,8,3,0,12,7,HL,0.16656250000000003,0.2325000000000001,0.23888888888888898,0.20500000000000007
6,12,23,1,4,1.0900000000000007,2,8,39,74,84,63,3.0400000000000023,1.1200000000000008,0.3100000000000001,0.21000000000000005,5,5,2,1,11,8,2,1,2,0,15,7,HL,0.2763636363636365,0.14000000000000004,0.15500000000000003,0.21000000000000005
6,12,24,1,10,1.6700000000000013,4,5,115,24,20,90,4.319999999999989,0.5200000000000002,0.48000000000000026,0.2800000000000001,11,2,4,1,17,2,5,1,6,0,17,7,HL,0.2541176470588236,0.26000000000000006,0.09599999999999999,0.2800000000000001
6,13,25,1,5,0.45000000000000023,4,6,9,76,10,78,1.4900000000000009,0.7100000000000004,0.6200000000000003,2.0000000000000013,8,5,3,6,12,5,5,10,6,0,18,7,HL,0.12416666666666669,0.14200000000000004,0.12400000000000003,0.20000000000000007
6,13,26,1,6,0.21000000000000005,2,3,55,97,90,102,2.649999999999992,0.26000000000000006,0.4100000000000002,0.24000000000000007,9,1,2,1,11,1,3,1,4,0,11,7,HL,0.24090909090909102,0.26000000000000006,0.1366666666666667,0.24000000000000007
6,14,27,1,6,0.6100000000000003,5,6,120,113,94,3,3.0499999999999923,0.38000000000000017,0.3000000000000001,0.5800000000000003,12,2,1,3,18,2,1,3,4,0,13,7,HL,0.16944444444444448,0.19000000000000003,0.3000000000000001,0.19333333333333336
6,14,28,1,3,0.2800000000000001,1,2,74,37,68,44,2.35,0.38000000000000017,0.5000000000000002,0.17,6,2,1,1,9,3,1,1,5,0,17,7,HL,0.2611111111111112,0.1266666666666667,0.5000000000000002,0.17
6,15,29,1,10,0.7600000000000005,2,5,46,39,20,97,3.439999999999987,1.7400000000000013,1.8400000000000014,0.8600000000000005,8,5,5,2,14,8,8,4,6,0,18,7,HL,0.2457142857142858,0.21750000000000008,0.2300000000000001,0.21500000000000005
6,15,30,1,9,0.6500000000000004,2,6,68,117,61,66,2.1900000000000013,1.340000000000001,0.10999999999999999,0.3200000000000001,5,4,1,2,12,7,1,2,4,0.5,26,7,HL,0.18250000000000005,0.19142857142857148,0.10999999999999999,0.16
6,16,31,1,1,0.38000000000000017,2,6,8,35,71,115,3.6899999999999737,0.23000000000000007,0.4400000000000002,0.6900000000000004,8,3,2,4,16,3,2,5,5,0,17,7,HL,0.23062500000000008,0.07666666666666666,0.22000000000000003,0.138
6,16,32,1,2,0.5000000000000002,2,3,79,37,42,105,3.8299999999999734,1.2300000000000009,0.2900000000000001,0.18000000000000002,10,6,3,1,26,6,3,1,3,0,15,7,HL,0.14730769230769233,0.20500000000000004,0.09666666666666666,0.18000000000000002
6,17,33,1,4,0.49000000000000027,2,3,97,106,17,76,2.2800000000000016,1.0600000000000007,0.26000000000000006,0.19000000000000003,4,5,2,1,6,6,2,1,2,0,13,7,HL,0.38000000000000017,0.1766666666666667,0.13000000000000003,0.19000000000000003
6,17,34,1,5,0.34000000000000014,2,3,42,9,93,1,3.6199999999999743,1.1400000000000008,0.24000000000000007,0.6100000000000003,10,4,1,4,15,5,1,7,6,0,20,7,HL,0.24133333333333343,0.2280000000000001,0.24000000000000007,0.08714285714285715
6,18,35,1,5,0.3900000000000002,2,3,68,11,5,98,3.1899999999999844,0.25000000000000006,1.290000000000001,0.2900000000000001,7,1,5,1,12,1,6,1,6,0,18,7,HL,0.2658333333333334,0.25000000000000006,0.21500000000000005,0.2900000000000001
6,18,36,1,10,0.6200000000000003,3,5,14,47,15,37,8.939999999999868,0.04,0.03,0.01,18,1,1,1,41,1,1,1,6,0,22,7,HL,0.21804878048780496,0.04,0.03,0.01
6,19,37,1,3,0.46000000000000024,3,5,112,75,61,48,3.9799999999999693,0.8100000000000005,0.13999999999999999,0.25000000000000006,11,3,1,2,24,5,1,2,5,0,14,7,HL,0.1658333333333334,0.16200000000000003,0.13999999999999999,0.12500000000000003
6,19,38,1,1,0.5400000000000003,2,5,29,21,34,27,1.4500000000000008,0.35000000000000014,0.8600000000000005,0.5200000000000002,4,1,3,3,7,1,3,3,5,0.5,36,7,HL,0.20714285714285718,0.35000000000000014,0.28666666666666674,0.17333333333333334
6,20,39,1,2,0.4000000000000002,2,3,79,82,75,108,1.3300000000000007,1.9700000000000015,0.15,0.9200000000000006,4,3,1,4,5,5,1,6,3,0.5,20,7,HL,0.2660000000000001,0.3940000000000002,0.15,0.15333333333333338
6,20,40,1,7,0.3300000000000001,3,4,13,119,94,68,1.0000000000000004,1.9200000000000015,0.46000000000000024,0.21000000000000005,4,7,3,1,5,13,4,1,3,0,15,7,HL,0.20000000000000007,0.1476923076923077,0.11500000000000002,0.21000000000000005
6,21,41,1,1,0.4000000000000002,2,3,64,63,103,1,2.989999999999989,0.49000000000000027,0.37000000000000016,0.36000000000000015,8,3,2,1,15,4,2,1,5,0,16,7,HL,0.1993333333333334,0.12250000000000003,0.18500000000000003,0.36000000000000015
6,21,42,1,10,0.8200000000000005,3,4,14,109,79,44,4.129999999999974,0.47000000000000025,0.5400000000000003,0.3900000000000002,10,3,1,2,19,3,1,2,6,0,16,7,HL,0.21736842105263166,0.1566666666666667,0.5400000000000003,0.19500000000000006
7,1,1,0,1,1.5800000000000012,4,13,60,86,54,33,13.189999999999799,0.45000000000000023,0.2700000000000001,1.490000000000001,18,2,2,6,62,2,2,9,5,0,16,7,HL,0.21274193548387102,0.22500000000000003,0.13500000000000004,0.1655555555555556
7,1,2,0,2,0.6500000000000004,3,6,11,6,7,41,8.059999999999887,0.5300000000000002,1.380000000000001,2.0300000000000007,15,2,2,6,33,2,9,12,3,0.5,23,7,HL,0.24424242424242434,0.2650000000000001,0.15333333333333335,0.1691666666666667
7,2,3,0,5,0.34000000000000014,2,4,26,6,93,70,6.609999999999911,4.199999999999955,4.4499999999999496,1.6500000000000012,12,8,7,4,33,19,18,5,6,0,18,7,HL,0.20030303030303037,0.22105263157894744,0.24722222222222232,0.3300000000000002
7,2,4,0,3,0.25000000000000006,1,2,116,111,43,56,9.049999999999857,4.119999999999957,0.3000000000000001,0.6700000000000004,12,8,2,2,34,20,2,2,5,0,13,7,HL,0.2661764705882354,0.20600000000000007,0.15000000000000002,0.33500000000000013
7,3,5,0,1,0.4200000000000002,2,4,90,120,112,49,8.839999999999865,1.1900000000000008,1.5200000000000011,1.1600000000000008,14,2,3,2,41,6,6,8,5,0,11,7,HL,0.21560975609756106,0.1983333333333334,0.2533333333333334,0.14500000000000002
7,3,6,0,2,0.35000000000000014,2,4,84,66,45,83,5.629999999999932,5.769999999999921,1.7200000000000013,0.20000000000000004,12,6,4,1,26,22,9,1,3,0,15,7,HL,0.21653846153846162,0.2622727272727274,0.19111111111111118,0.20000000000000004
7,4,7,0,6,0.7000000000000004,3,5,56,36,90,55,15.719999999999725,0.2900000000000001,0.18000000000000002,1.7800000000000014,20,1,2,5,76,1,2,9,4,0,16,7,HL,0.20684210526315797,0.2900000000000001,0.09000000000000001,0.19777777777777786
7,4,8,0,9,0.2800000000000001,2,3,102,68,64,104,4.779999999999949,0.9100000000000006,1.0800000000000007,4.699999999999944,9,3,2,8,17,5,3,21,4,0,12,7,HL,0.2811764705882354,0.18200000000000005,0.36000000000000015,0.22380952380952387
7,5,9,0,8,0.17,1,2,52,119,56,110,10.599999999999822,0.34000000000000014,0.19000000000000003,0.3000000000000001,15,3,2,2,47,4,2,2,2,0,12,7,HL,0.2255319148936171,0.085,0.09500000000000001,0.15000000000000002
7,5,10,0,10,0.3100000000000001,3,4,14,17,23,48,18.54000000000005,4.89999999999994,0.02,0.10999999999999999,20,11,1,2,79,26,1,2,6,0.5,23,7,HL,0.23468354430379756,0.1884615384615385,0.02,0.05500000000000001
7,6,11,0,7,0.9100000000000006,9,14,85,87,14,41,9.279999999999866,0.47000000000000025,5.35999999999993,2.159999999999998,20,2,10,4,50,3,21,6,3,0,17,7,HL,0.18560000000000007,0.1566666666666667,0.2552380952380953,0.36000000000000015
7,6,12,0,8,0.6500000000000004,2,3,120,114,2,7,14.829999999999742,0.23000000000000007,1.6000000000000012,0.5000000000000002,20,2,4,2,65,3,8,2,2,0,16,7,HL,0.22815384615384623,0.07666666666666666,0.20000000000000007,0.25000000000000006
7,7,13,1,2,0.2800000000000001,2,4,44,37,111,78,5.609999999999931,6.669999999999902,0.7700000000000005,1.7100000000000013,8,12,3,3,22,38,4,4,3,0,15,7,HL,0.2550000000000001,0.17552631578947372,0.19250000000000006,0.4275000000000002
7,7,14,1,5,0.9400000000000006,10,13,60,4,58,5,5.899999999999939,3.0199999999999796,6.6099999999999035,0.36000000000000015,19,7,9,3,39,12,18,3,6,0,20,7,HL,0.15128205128205133,0.25166666666666676,0.3672222222222224,0.12000000000000002
7,8,15,1,7,0.35000000000000014,2,3,87,109,42,86,7.109999999999901,2.3699999999999934,0.6600000000000004,0.5700000000000003,13,6,2,2,32,8,2,4,3,0,13,7,HL,0.22218750000000007,0.2962500000000001,0.3300000000000001,0.14250000000000002
7,8,16,1,2,0.3000000000000001,2,3,73,78,76,101,7.409999999999893,2.6099999999999883,1.0800000000000007,3.0599999999999787,14,6,4,7,35,9,5,17,3,0.5,20,7,HL,0.21171428571428577,0.29000000000000015,0.21600000000000008,0.18000000000000005
7,9,17,1,1,0.21000000000000005,2,3,28,33,30,115,1.1700000000000006,4.3099999999999525,1.310000000000001,4.329999999999952,4,9,3,9,8,22,3,22,5,0.5,32,7,HL,0.14625000000000005,0.19590909090909098,0.43666666666666687,0.1968181818181819
7,9,18,1,4,0.24000000000000007,2,3,47,103,100,43,8.319999999999872,0.6100000000000003,0.48000000000000026,2.569999999999989,13,2,2,7,37,3,3,11,2,0,14,7,HL,0.22486486486486496,0.20333333333333337,0.16000000000000003,0.23363636363636373
7,10,19,1,1,0.4000000000000002,2,6,26,35,34,28,1.1300000000000006,3.46999999999997,1.1900000000000008,3.759999999999964,4,7,3,8,9,18,3,20,5,1,60,7,HL,0.1255555555555556,0.19277777777777785,0.39666666666666683,0.18800000000000006
7,10,20,1,9,0.34000000000000014,3,6,62,72,61,99,5.609999999999932,3.5299999999999687,0.8900000000000006,3.229999999999975,12,9,3,8,28,13,5,15,4,0.5,26,7,HL,0.20035714285714293,0.2715384615384616,0.17800000000000002,0.21533333333333338
7,11,21,1,10,0.2800000000000001,2,4,19,16,20,14,6.909999999999903,1.0400000000000007,1.5200000000000011,4.3099999999999525,15,2,4,8,36,4,4,16,6,1,72,7,HL,0.1919444444444445,0.2600000000000001,0.38000000000000017,0.2693750000000001
7,11,22,1,5,0.2700000000000001,2,3,3,12,8,9,3.829999999999968,0.5500000000000003,0.9600000000000006,7.539999999999884,11,1,4,13,23,1,6,30,6,1,72,7,HL,0.16652173913043483,0.5500000000000003,0.16000000000000003,0.2513333333333334
7,12,23,1,7,0.3300000000000001,2,6,89,88,85,3,1.8000000000000012,14.049999999999745,0.11999999999999998,1.1000000000000008,5,16,2,3,11,45,2,3,3,0.5,24,7,HL,0.1636363636363637,0.31222222222222235,0.05999999999999999,0.3666666666666668
7,12,24,1,4,0.3300000000000001,2,3,21,108,102,20,16.639999999999752,1.450000000000001,0.8000000000000005,2.2799999999999954,18,5,4,9,61,7,4,14,2,0,16,7,HL,0.2727868852459018,0.2071428571428572,0.20000000000000007,0.16285714285714292
7,13,25,1,6,0.4100000000000002,2,4,54,55,49,6,3.1999999999999846,2.479999999999991,1.5900000000000012,5.959999999999917,6,8,5,10,13,12,7,21,4,0.5,30,7,HL,0.24615384615384625,0.20666666666666675,0.22714285714285723,0.2838095238095239
7,13,26,1,3,0.16,2,2,13,24,46,107,17.73999999999995,0.6600000000000004,0.08,1.1800000000000008,20,3,1,4,72,3,1,4,5,0,19,7,HL,0.246388888888889,0.22000000000000006,0.08,0.29500000000000015
7,14,27,1,3,1.330000000000001,4,10,43,46,18,16,14.369999999999767,0.5300000000000002,1.0600000000000007,1.440000000000001,20,3,6,5,76,3,7,7,5,0,22,7,HL,0.18907894736842112,0.1766666666666667,0.15142857142857147,0.20571428571428577
7,14,28,1,5,0.48000000000000026,2,4,2,104,99,11,7.879999999999887,0.7300000000000004,0.5200000000000002,0.6800000000000004,12,1,1,2,28,1,1,2,6,0,16,7,HL,0.28142857142857153,0.7300000000000004,0.5200000000000002,0.34000000000000014
7,15,29,1,6,0.34000000000000014,2,3,108,100,54,53,6.929999999999904,1.9100000000000015,1.6600000000000013,1.8000000000000014,14,3,6,9,29,7,7,13,4,0,12,7,HL,0.23896551724137938,0.27285714285714296,0.2371428571428572,0.13846153846153847
7,15,30,1,2,0.23000000000000007,2,3,44,39,41,74,2.5999999999999934,6.859999999999898,1.8700000000000014,0.9700000000000006,6,13,9,2,11,28,11,4,3,0.5,33,7,HL,0.23636363636363647,0.24500000000000008,0.17000000000000004,0.24250000000000008
7,16,31,1,7,0.15,2,3,15,90,24,57,21.860000000000593,0.03,0.5300000000000002,1.0000000000000007,20,1,3,5,88,2,4,6,3,0,19,7,HL,0.248409090909091,0.015,0.13250000000000003,0.1666666666666667
7,16,32,1,2,0.18000000000000002,2,3,73,105,78,84,7.259999999999893,0.5400000000000003,2.4099999999999926,3.099999999999978,10,1,6,9,36,1,7,16,3,0.5,20,7,HL,0.20166666666666674,0.5400000000000003,0.3442857142857144,0.19375000000000006
7,17,33,1,5,0.4000000000000002,2,4,5,4,47,11,15.789999999999717,6.649999999999903,1.0800000000000007,0.060000000000000005,19,12,4,2,68,20,6,2,6,0.5,41,7,HL,0.23220588235294126,0.33250000000000013,0.18000000000000002,0.03
7,17,34,1,7,0.25000000000000006,2,3,88,91,90,22,1.1700000000000006,1.8300000000000014,3.7699999999999636,6.039999999999916,4,4,12,14,6,9,17,30,3,0.5,24,7,HL,0.19500000000000003,0.2033333333333334,0.221764705882353,0.2013333333333334
7,18,35,1,5,0.3300000000000001,2,5,50,48,47,4,6.889999999999905,3.1599999999999766,3.519999999999969,0.16,16,7,8,1,29,14,18,1,6,0,20,7,HL,0.23758620689655183,0.22571428571428578,0.19555555555555562,0.16
7,18,36,1,4,0.3200000000000001,2,4,97,21,107,15,9.619999999999846,10.50999999999982,1.6800000000000013,0.49000000000000027,19,15,6,2,45,44,8,2,2,0,16,7,HL,0.21377777777777784,0.23886363636363644,0.21000000000000008,0.24500000000000005
7,19,37,1,1,0.5200000000000002,2,6,34,106,30,105,4.00999999999997,1.1100000000000008,2.5599999999999894,4.079999999999957,8,2,6,11,20,5,15,17,5,0,14,7,HL,0.20050000000000007,0.2220000000000001,0.17066666666666672,0.24000000000000007
7,19,38,1,6,0.3000000000000001,2,3,38,52,50,55,13.589999999999762,0.25000000000000006,2.7299999999999858,1.7000000000000013,18,2,10,4,55,2,14,7,4,0.5,29,7,HL,0.2470909090909092,0.12500000000000003,0.19500000000000003,0.24285714285714294
8,1,1,0,2,0.7500000000000004,2,8,83,53,77,19,1.5000000000000009,0.8200000000000005,0.2700000000000001,0.3100000000000001,6,3,2,2,15,3,2,2,3,0,16,7,HL,0.1,0.27333333333333343,0.13500000000000004,0.15500000000000003
8,1,2,0,9,0.3900000000000002,2,4,96,12,31,64,1.4200000000000008,0.3100000000000001,0.47000000000000025,0.19000000000000003,4,1,2,2,7,1,4,2,4,0,18,7,HL,0.2028571428571429,0.3100000000000001,0.1175,0.095
8,2,3,0,7,1.0600000000000007,11,15,36,70,67,110,4.919999999999963,0.060000000000000005,0.09,0.05,18,1,2,1,29,1,2,1,3,0,15,7,HL,0.16965517241379316,0.060000000000000005,0.045,0.05
8,2,4,0,6,0.5600000000000003,2,5,45,81,13,99,1.7900000000000011,0.6500000000000004,0.49000000000000027,0.17,5,4,3,1,10,7,3,1,4,0,16,7,HL,0.17900000000000005,0.09285714285714286,0.16333333333333339,0.17
8,3,5,0,5,0.8100000000000005,2,8,71,64,2,41,1.9400000000000013,0.9000000000000006,0.6400000000000003,1.1800000000000008,4,2,2,5,11,5,2,5,6,0,19,7,HL,0.17636363636363642,0.18000000000000005,0.3200000000000001,0.23600000000000007
8,3,6,0,10,0.5200000000000002,2,5,54,22,91,114,2.290000000000002,0.47000000000000025,1.9100000000000015,0.10999999999999999,7,2,2,2,17,5,6,2,6,0,15,7,HL,0.1347058823529412,0.094,0.3183333333333335,0.05500000000000001
8,4,7,0,7,0.4300000000000002,2,5,88,59,15,18,1.0300000000000005,1.1800000000000008,0.22000000000000006,0.38000000000000017,5,3,2,3,9,5,2,3,3,0,19,7,HL,0.11444444444444447,0.2360000000000001,0.11000000000000001,0.12666666666666668
8,4,8,0,8,0.46000000000000024,2,5,120,71,61,81,0.8100000000000004,1.330000000000001,0.9200000000000006,0.35000000000000014,4,3,3,1,7,5,10,1,2,0,13,7,HL,0.11571428571428573,0.26600000000000007,0.092,0.35000000000000014
8,5,9,0,6,0.36000000000000015,2,4,55,52,73,12,1.9600000000000013,3.1299999999999772,1.0400000000000007,0.01,7,7,5,1,10,9,6,1,4,0,17,7,HL,0.19600000000000006,0.34777777777777796,0.1733333333333334,0.01
8,5,10,0,3,0.5300000000000002,4,6,93,37,65,23,1.7900000000000011,0.36000000000000015,0.2900000000000001,0.5300000000000002,9,1,1,4,13,1,1,6,5,0,18,7,HL,0.13769230769230772,0.36000000000000015,0.2900000000000001,0.08833333333333335
8,6,11,0,5,0.36000000000000015,3,5,11,8,44,52,0.9700000000000004,1.7800000000000014,0.7500000000000004,0.6000000000000003,6,8,3,4,8,17,10,6,6,0,21,7,HL,0.12125000000000002,0.10470588235294119,0.07500000000000001,0.1
8,6,12,0,1,0.24000000000000007,2,4,72,98,36,107,2.1800000000000015,0.7900000000000005,0.08,0.5200000000000002,10,2,1,4,19,2,1,4,5,0,13,7,HL,0.11473684210526318,0.3950000000000002,0.08,0.13000000000000003
8,7,13,1,3,0.47000000000000025,2,5,48,47,14,68,0.9700000000000004,0.7500000000000004,0.3300000000000001,0.5900000000000003,4,3,1,2,7,3,1,3,5,0,20,7,HL,0.1385714285714286,0.2500000000000001,0.3300000000000001,0.1966666666666667
8,7,14,1,1,0.4100000000000002,2,3,33,28,82,26,1.3800000000000008,0.20000000000000004,0.38000000000000017,0.3300000000000001,6,1,2,2,9,1,2,2,5,0.5,33,7,HL,0.15333333333333335,0.20000000000000004,0.19000000000000006,0.165
8,8,15,1,3,0.18000000000000002,2,3,64,42,101,63,1.1100000000000005,1.310000000000001,0.5200000000000002,0.22000000000000006,5,4,2,3,8,5,6,3,5,0,15,7,HL,0.13875000000000004,0.2620000000000001,0.08666666666666667,0.07333333333333333
8,8,16,1,1,0.4000000000000002,2,4,31,33,27,15,1.8800000000000012,0.16,0.8500000000000005,0.6900000000000004,5,1,3,3,11,1,4,3,5,0.5,36,7,HL,0.17090909090909095,0.16,0.21250000000000005,0.23000000000000007
8,9,17,1,2,0.12999999999999998,1,2,84,77,69,26,0.5100000000000001,0.8800000000000006,0.3000000000000001,0.37000000000000016,2,4,3,1,4,6,4,1,3,0,15,7,HL,0.12750000000000003,0.1466666666666667,0.075,0.37000000000000016
8,9,18,1,7,0.4400000000000002,2,5,98,49,42,51,2.0900000000000016,0.35000000000000014,0.49000000000000027,0.16,6,2,2,1,12,3,3,1,3,0,15,7,HL,0.17416666666666672,0.11666666666666668,0.16333333333333333,0.16
8,10,19,1,5,0.3000000000000001,2,5,4,5,10,12,1.4300000000000008,0.7200000000000004,0.7600000000000005,8.329999999999867,4,5,3,16,12,5,3,44,6,1,72,7,HL,0.11916666666666668,0.14400000000000002,0.2533333333333334,0.18931818181818189
8,10,20,1,10,1.0400000000000007,15,18,50,18,59,14,2.2200000000000015,0.16,1.7200000000000013,0.4000000000000002,20,1,4,3,23,1,5,3,6,0,20,7,HL,0.0965217391304348,0.16,0.3440000000000002,0.1333333333333334
8,11,21,1,2,0.23000000000000007,2,3,83,80,77,98,0.6400000000000002,0.35000000000000014,0.37000000000000016,0.5900000000000003,5,2,2,2,6,3,2,5,3,0.5,20,7,HL,0.10666666666666667,0.11666666666666667,0.18500000000000003,0.11800000000000002
8,11,22,1,5,0.26000000000000006,2,3,49,40,11,3,1.7600000000000011,2.0799999999999996,0.13999999999999999,1.1500000000000008,7,6,2,5,11,14,2,10,6,0,21,7,HL,0.16000000000000003,0.1485714285714286,0.06999999999999999,0.115
8,12,23,1,7,0.24000000000000007,2,3,95,42,37,2,0.8400000000000004,0.9500000000000006,0.38000000000000017,0.19000000000000003,4,4,2,1,7,6,3,1,3,0,19,7,HL,0.12000000000000001,0.15833333333333335,0.12666666666666665,0.19000000000000003
8,12,24,1,4,0.45000000000000023,3,4,100,35,102,108,0.9300000000000005,1.2400000000000009,0.5100000000000002,0.18000000000000002,5,2,3,1,6,2,5,1,2,0.5,17,7,HL,0.15500000000000003,0.6200000000000003,0.10200000000000001,0.18000000000000002
8,13,25,1,8,0.24000000000000007,2,3,118,11,54,86,2.649999999999993,0.3900000000000002,0.2900000000000001,0.22000000000000006,8,3,2,2,15,4,3,2,2,0,15,7,HL,0.17666666666666672,0.0975,0.09666666666666665,0.10999999999999999
8,13,26,1,9,0.8200000000000005,10,10,107,80,13,37,3.9599999999999778,1.8700000000000014,0.07,0.04,17,5,2,1,28,8,2,1,4,0,16,7,HL,0.14142857142857146,0.23375000000000007,0.035,0.04
8,14,27,1,5,0.7400000000000004,3,9,7,6,50,45,1.3700000000000008,11.519999999999799,0.01,0.04,5,17,1,2,12,49,1,2,6,0,21,7,HL,0.11416666666666668,0.23510204081632663,0.01,0.02
8,14,28,1,8,0.7000000000000004,3,5,116,16,115,67,2.030000000000001,0.5500000000000003,0.25000000000000006,0.09,7,2,2,1,11,2,3,1,2,0,14,7,HL,0.1845454545454546,0.27500000000000013,0.08333333333333334,0.09
8,15,29,1,1,0.22000000000000006,2,3,29,27,86,32,0.7300000000000003,1.6000000000000012,0.5600000000000003,0.07,4,6,2,1,7,11,2,1,5,0.5,33,7,HL,0.1042857142857143,0.14545454545454548,0.2800000000000001,0.07
8,15,30,1,8,1.5600000000000012,6,7,13,24,62,71,5.319999999999965,0.01,0.02,0.10999999999999999,15,1,1,2,24,1,1,2,2,0,20,7,HL,0.22166666666666676,0.01,0.02,0.055
8,16,31,1,6,0.49000000000000027,2,5,60,55,22,14,1.570000000000001,0.19000000000000003,0.9400000000000006,0.6000000000000003,5,1,2,3,15,2,3,3,4,0,20,7,HL,0.10466666666666667,0.095,0.31333333333333346,0.20000000000000004
8,16,32,1,9,0.2900000000000001,2,2,4,66,71,65,4.949999999999945,0.03,0.13999999999999999,0.01,12,1,2,1,25,1,2,1,4,0.5,30,7,HL,0.19800000000000006,0.03,0.07,0.01
8,17,33,1,9,0.8800000000000006,2,7,68,71,103,2,5.399999999999949,0.17,0.04,2.159999999999998,14,2,1,5,28,2,1,5,4,0,16,7,HL,0.19285714285714292,0.08499999999999999,0.04,0.4320000000000002
8,17,34,1,8,0.2800000000000001,2,3,110,53,24,21,0.9800000000000004,1.290000000000001,0.23000000000000007,0.4100000000000002,4,3,1,2,6,6,1,2,2,0,18,7,HL,0.16333333333333336,0.21500000000000005,0.23000000000000007,0.2050000000000001
8,18,35,1,6,1.0200000000000007,3,9,83,114,27,56,3.319999999999996,0.9500000000000006,0.10999999999999999,0.07,11,2,1,2,30,4,1,2,4,0,14,7,HL,0.11066666666666668,0.2375000000000001,0.10999999999999999,0.035
8,18,36,1,9,0.3200000000000001,3,3,13,37,48,22,3.4899999999999767,0.07,0.5000000000000002,0.04,9,1,4,1,11,1,4,1,4,0,22,7,HL,0.3172727272727274,0.07,0.125,0.04
8,19,37,1,4,0.2800000000000001,2,3,8,102,10,37,6.699999999999908,0.02,0.02,0.01,12,2,2,1,24,2,2,1,2,0,19,7,HL,0.2791666666666668,0.01,0.01,0.01
8,19,38,1,8,0.4100000000000002,4,6,13,34,33,53,3.559999999999977,0.10999999999999999,0.17,0.060000000000000005,12,1,2,1,31,1,3,1,2,0,20,7,HL,0.11483870967741938,0.10999999999999999,0.056666666666666664,0.060000000000000005
8,20,39,1,8,0.35000000000000014,2,4,70,78,63,65,1.620000000000001,0.21000000000000005,0.8000000000000005,0.6300000000000003,4,2,5,3,8,2,6,3,2,0.5,27,7,HL,0.20250000000000007,0.10500000000000001,0.13333333333333336,0.21000000000000008
8,20,40,1,10,0.2700000000000001,2,4,14,17,22,88,2.7299999999999915,0.7200000000000004,14.679999999999731,0.01,9,3,18,1,17,3,62,1,6,0.5,39,7,HL,0.1605882352941177,0.2400000000000001,0.2367741935483872,0.01
8,21,41,1,7,0.2700000000000001,2,4,92,85,106,51,0.6400000000000002,1.5900000000000012,0.34000000000000014,0.22000000000000006,3,6,1,1,5,10,1,1,3,0,12,7,HL,0.12800000000000003,0.15900000000000003,0.34000000000000014,0.22000000000000006
8,21,42,1,2,0.4300000000000002,2,4,77,74,81,109,0.8600000000000004,1.5300000000000011,0.16,0.22000000000000006,3,5,2,2,5,10,2,2,3,0.5,20,7,HL,0.17200000000000007,0.15300000000000005,0.08,0.10999999999999999
9,1,1,0,1,0.6800000000000004,2,7,28,13,59,52,1.0900000000000005,1.0300000000000007,0.16,0.26000000000000006,4,3,2,2,9,6,2,2,5,0,19,7,HL,0.12111111111111113,0.1716666666666667,0.07999999999999999,0.13
9,1,2,0,7,0.36000000000000015,2,3,109,4,37,65,1.3600000000000008,0.20000000000000004,0.3000000000000001,0.2700000000000001,4,1,2,1,7,1,4,1,3,0,17,7,HL,0.19428571428571434,0.20000000000000004,0.075,0.2700000000000001
9,2,3,0,3,0.5200000000000002,4,6,44,114,120,57,1.4400000000000008,0.35000000000000014,0.3100000000000001,0.19000000000000003,7,2,1,3,9,2,1,3,5,0,13,7,HL,0.16000000000000003,0.17500000000000004,0.3100000000000001,0.06333333333333332
9,2,4,0,9,0.36000000000000015,2,4,61,105,107,24,0.9600000000000004,0.8900000000000006,0.48000000000000026,0.11999999999999998,4,2,2,1,7,4,6,1,4,0,14,7,HL,0.13714285714285715,0.22250000000000006,0.08,0.11999999999999998
9,3,5,0,9,0.37000000000000016,2,5,70,62,27,32,0.6700000000000003,0.6600000000000004,0.3000000000000001,0.3300000000000001,4,2,1,2,7,2,1,3,4,0,18,7,HL,0.09571428571428572,0.3300000000000001,0.3000000000000001,0.11
9,3,6,0,8,0.6800000000000004,9,10,114,120,52,58,1.0100000000000005,0.6900000000000004,0.5400000000000003,0.3300000000000001,12,3,2,3,14,5,2,4,2,0,12,7,HL,0.07214285714285715,0.138,0.2700000000000001,0.0825
9,4,7,0,8,0.4200000000000002,4,5,25,62,70,110,3.579999999999977,0.01,0.37000000000000016,0.02,13,1,3,1,26,1,3,1,2,0,15,7,HL,0.13769230769230772,0.01,0.12333333333333336,0.02
9,4,8,0,10,0.2900000000000001,2,4,13,51,37,52,10.279999999999832,0.01,0.01,0.01,19,1,1,1,43,1,1,1,6,0,19,7,HL,0.23906976744186056,0.01,0.01,0.01
9,5,9,0,4,0.24000000000000007,2,3,34,27,8,30,1.4900000000000009,0.6400000000000003,0.3000000000000001,0.04,5,3,2,1,6,9,2,1,2,0.5,21,7,HL,0.24833333333333343,0.07111111111111112,0.15000000000000005,0.04
9,5,10,0,10,0.5000000000000002,4,7,41,14,50,51,1.1400000000000006,2.7999999999999843,0.7800000000000005,0.01,5,8,4,1,8,13,4,1,6,0,19,7,HL,0.14250000000000004,0.21538461538461545,0.19500000000000006,0.01
9,6,11,0,9,0.2900000000000001,2,3,13,114,117,109,1.3100000000000007,0.25000000000000006,0.15,0.5800000000000003,5,1,1,2,7,1,2,4,4,0.5,12,7,HL,0.1871428571428572,0.25000000000000006,0.07499999999999998,0.14500000000000005
9,6,12,0,3,0.3000000000000001,2,4,50,82,104,39,1.3800000000000008,0.9500000000000006,0.3000000000000001,0.07,4,3,1,2,8,7,1,2,5,0,14,7,HL,0.17250000000000004,0.13571428571428573,0.3000000000000001,0.035
9,7,13,1,10,0.2900000000000001,2,4,109,16,114,19,1.570000000000001,0.4200000000000002,1.440000000000001,2.5999999999999885,5,5,4,7,7,6,4,9,6,0,16,7,HL,0.22428571428571437,0.07,0.36000000000000015,0.288888888888889
9,7,14,1,2,0.5100000000000002,8,9,102,8,74,76,1.510000000000001,0.8200000000000005,0.07,0.47000000000000025,11,2,1,4,13,2,1,4,3,0,14,7,HL,0.11615384615384618,0.4100000000000002,0.07,0.11750000000000002
9,8,15,1,6,0.4300000000000002,3,6,54,88,96,112,2.779999999999994,0.05,0.8400000000000005,0.23000000000000007,8,1,5,3,14,1,6,3,4,0,12,7,HL,0.19857142857142865,0.05,0.14000000000000004,0.07666666666666669
9,8,16,1,5,0.36000000000000015,2,6,3,78,10,63,1.1000000000000005,0.5100000000000002,0.10999999999999999,0.38000000000000017,4,3,1,2,12,3,1,4,6,0,19,7,HL,0.09166666666666667,0.17000000000000004,0.10999999999999999,0.095
9,9,17,1,7,0.2800000000000001,3,4,86,46,18,90,0.9400000000000004,0.7300000000000004,0.46000000000000024,0.26000000000000006,6,2,2,2,8,3,2,2,3,0,17,7,HL,0.11750000000000001,0.2433333333333334,0.2300000000000001,0.13
9,9,18,1,9,0.36000000000000015,2,4,61,109,73,31,0.6600000000000003,0.9100000000000006,0.34000000000000014,0.5600000000000003,3,3,1,3,5,3,1,3,4,0,14,7,HL,0.132,0.30333333333333345,0.34000000000000014,0.18666666666666673
9,10,19,1,6,0.6200000000000003,10,10,91,57,111,59,4.11999999999997,0.01,0.20000000000000004,0.2800000000000001,17,1,1,2,26,1,1,2,4,0,13,7,HL,0.15846153846153851,0.01,0.20000000000000004,0.14000000000000004
9,10,20,1,4,0.2900000000000001,2,3,101,47,73,10,0.7100000000000003,1.0500000000000007,0.6000000000000003,0.24000000000000007,3,3,4,1,4,4,4,1,2,0,16,7,HL,0.17750000000000005,0.2625000000000001,0.15000000000000002,0.24000000000000007
9,11,21,1,7,0.7300000000000004,4,8,91,110,94,93,2.9399999999999973,0.02,0.25000000000000006,0.7700000000000005,10,1,2,4,19,1,2,4,3,0.5,20,7,HL,0.1547368421052632,0.02,0.125,0.19250000000000006
9,11,22,1,3,0.48000000000000026,2,4,103,75,39,100,1.0800000000000005,0.17,0.26000000000000006,0.21000000000000005,3,1,2,1,5,1,3,1,5,0,12,7,HL,0.21600000000000008,0.17,0.08666666666666667,0.21000000000000005
9,12,23,1,8,0.5700000000000003,2,5,75,117,81,73,1.670000000000001,0.3000000000000001,0.09,0.09,8,2,1,1,14,3,1,1,2,0.5,20,7,HL,0.1192857142857143,0.09999999999999999,0.09,0.09
9,12,24,1,9,0.35000000000000014,2,3,72,106,101,66,0.9000000000000004,0.45000000000000023,0.3300000000000001,0.9800000000000006,4,2,2,6,6,2,2,6,4,0,12,7,HL,0.15000000000000002,0.2250000000000001,0.16500000000000004,0.16333333333333339
9,13,25,1,2,0.49000000000000027,3,6,77,106,19,57,0.9400000000000005,1.0000000000000007,0.7600000000000005,0.22000000000000006,5,4,4,1,8,6,6,1,3,0,15,7,HL,0.11750000000000001,0.16666666666666669,0.12666666666666668,0.22000000000000006
9,13,26,1,9,0.36000000000000015,2,3,65,62,116,113,0.7600000000000003,0.6800000000000004,0.3000000000000001,0.8100000000000005,4,2,2,2,5,3,2,3,4,0,12,7,HL,0.15200000000000002,0.2266666666666667,0.15000000000000005,0.2700000000000001
9,14,27,1,1,0.3900000000000002,2,5,84,35,15,120,1.1200000000000006,0.12999999999999998,0.15,0.5900000000000003,4,1,1,3,8,1,1,6,5,0,16,7,HL,0.14000000000000004,0.12999999999999998,0.15,0.09833333333333333
9,14,28,1,9,0.3100000000000001,2,3,105,101,42,67,1.4500000000000008,0.5500000000000003,0.19000000000000003,0.20000000000000004,5,2,1,2,8,4,1,4,4,0,13,7,HL,0.18125000000000005,0.13750000000000004,0.19000000000000003,0.05
9,15,29,1,3,0.3900000000000002,3,4,82,48,51,47,1.3600000000000008,0.24000000000000007,1.5100000000000011,0.10999999999999999,6,2,4,2,8,3,5,2,5,0,17,7,HL,0.17000000000000004,0.08,0.30200000000000016,0.055
9,15,30,1,1,0.4400000000000002,3,6,66,13,118,19,1.3600000000000008,0.3000000000000001,0.7200000000000004,0.11999999999999998,6,1,2,1,10,1,2,1,5,0,18,7,HL,0.136,0.3000000000000001,0.36000000000000015,0.11999999999999998
9,16,31,1,5,0.3000000000000001,3,4,1,102,97,82,0.6200000000000002,1.2100000000000009,0.17,0.10999999999999999,5,4,2,1,6,9,2,1,6,0,13,7,HL,0.10333333333333335,0.13444444444444445,0.08499999999999999,0.10999999999999999
9,16,32,1,3,0.25000000000000006,2,3,114,42,113,71,1.520000000000001,0.10999999999999999,0.6100000000000003,0.07,6,1,3,1,12,1,8,1,5,0,13,7,HL,0.1266666666666667,0.10999999999999999,0.07625,0.07
9,17,33,1,7,0.3000000000000001,2,3,92,114,85,65,0.6600000000000003,0.3300000000000001,0.8600000000000005,0.12999999999999998,3,2,3,1,4,2,6,1,3,0,12,7,HL,0.16500000000000004,0.16500000000000006,0.14333333333333337,0.12999999999999998
9,17,34,1,1,0.4200000000000002,2,5,36,52,73,81,0.7700000000000004,1.5200000000000011,0.05,0.24000000000000007,6,7,1,3,11,10,1,4,5,0,15,7,HL,0.06999999999999999,0.15200000000000005,0.05,0.06
9,18,35,1,2,0.3300000000000001,2,4,79,80,102,69,0.8400000000000003,0.2900000000000001,1.0600000000000007,0.18000000000000002,3,1,6,2,6,1,10,2,3,0,12,7,HL,0.14,0.2900000000000001,0.10600000000000001,0.09
9,18,36,1,7,0.7000000000000004,10,11,52,96,111,109,2.3100000000000014,1.410000000000001,0.9400000000000006,0.13999999999999999,15,7,3,3,17,7,3,3,3,0,11,7,HL,0.1358823529411765,0.20142857142857148,0.31333333333333346,0.04666666666666666
9,19,37,1,4,0.24000000000000007,2,3,103,101,49,41,0.5800000000000002,0.46000000000000024,0.3100000000000001,0.4000000000000002,4,2,1,2,5,2,1,2,2,0,13,7,HL,0.11600000000000002,0.23000000000000004,0.3100000000000001,0.20000000000000004
9,19,38,1,9,0.38000000000000017,3,5,61,64,63,4,0.8800000000000003,1.2500000000000009,0.09,0.8700000000000006,5,4,1,2,9,8,1,3,4,0.5,30,7,HL,0.09777777777777777,0.15625000000000006,0.09,0.2900000000000001
9,20,39,1,5,0.34000000000000014,2,3,11,31,105,5,0.9800000000000004,0.3200000000000001,0.3100000000000001,0.46000000000000024,4,1,2,2,7,1,2,3,6,0,19,7,HL,0.14,0.3200000000000001,0.15500000000000003,0.15333333333333338
9,20,40,1,3,0.17,2,5,51,37,78,74,0.8800000000000004,0.17,0.4400000000000002,0.23000000000000007,3,2,3,2,6,2,5,2,5,0,15,7,HL,0.14666666666666672,0.08499999999999999,0.088,0.11499999999999999
9,21,41,1,4,0.25000000000000006,2,3,108,103,34,63,1.0100000000000005,0.6300000000000003,0.21000000000000005,0.3000000000000001,4,4,2,1,9,4,2,1,2,0,13,7,HL,0.11222222222222225,0.15750000000000003,0.10499999999999998,0.3000000000000001
9,21,42,1,8,0.5200000000000002,3,5,119,45,75,2,1.3100000000000007,0.17,0.2700000000000001,0.38000000000000017,7,2,1,2,12,2,1,2,2,0,16,7,HL,0.10916666666666668,0.08499999999999999,0.2700000000000001,0.19000000000000003
9,22,43,1,9,0.46000000000000024,3,5,32,81,28,25,0.9300000000000005,0.5300000000000002,0.3300000000000001,0.18000000000000002,4,1,2,2,6,1,4,2,4,0.5,33,7,HL,0.15500000000000005,0.5300000000000002,0.0825,0.09
9,22,44,1,5,0.3300000000000001,2,4,7,58,120,2,0.7900000000000004,0.7500000000000004,0.8600000000000005,0.15,4,3,3,2,6,4,4,2,6,0,18,7,HL,0.13166666666666668,0.18750000000000006,0.21500000000000008,0.075
10,1,1,0,8,0.6000000000000003,2,4,120,65,47,72,2.0500000000000016,1.2300000000000009,1.1600000000000008,0.5100000000000002,4,2,4,1,6,2,5,1,2,0,15,7,HL,0.34166666666666684,0.6150000000000004,0.2320000000000001,0.5100000000000002
10,1,2,0,6,2.439999999999992,13,20,7,51,52,97,4.249999999999993,1.0100000000000007,2.099999999999999,0.05,16,2,4,1,23,3,8,1,4,0,16,7,HL,0.18478260869565222,0.33666666666666684,0.26250000000000007,0.05
10,2,3,0,7,0.6500000000000004,2,3,87,24,115,112,2.9399999999999955,2.010000000000001,0.3200000000000001,0.3300000000000001,6,3,1,2,9,5,1,4,3,0,13,7,HL,0.3266666666666668,0.4020000000000002,0.3200000000000001,0.0825
10,2,4,0,4,1.7600000000000013,7,11,48,9,97,5,3.700000000000003,2.07,0.35000000000000014,0.22000000000000006,10,4,1,1,16,7,1,1,2,0,19,7,HL,0.23125000000000007,0.2957142857142858,0.35000000000000014,0.22000000000000006
10,3,5,0,8,0.6500000000000004,2,3,54,55,23,84,2.9499999999999953,1.5800000000000012,0.6200000000000003,0.7300000000000004,4,2,1,2,9,8,1,6,2,0,17,7,HL,0.32777777777777795,0.19750000000000006,0.6200000000000003,0.1216666666666667
10,3,6,0,4,0.9200000000000006,2,4,105,93,2,48,4.329999999999972,0.3900000000000002,0.3200000000000001,0.2900000000000001,6,1,1,1,13,1,1,1,2,0,16,7,HL,0.3330769230769232,0.3900000000000002,0.3200000000000001,0.2900000000000001
10,4,7,0,2,1.0900000000000007,2,4,6,76,103,68,3.709999999999989,1.400000000000001,0.5000000000000002,0.3100000000000001,6,4,2,1,13,4,4,2,3,0,15,7,HL,0.2853846153846155,0.35000000000000014,0.125,0.15500000000000005
10,4,8,0,7,1.0900000000000007,2,6,95,90,57,36,3.279999999999998,0.9800000000000006,1.1300000000000008,0.3900000000000002,4,2,2,2,12,2,3,2,3,0,15,7,HL,0.2733333333333335,0.4900000000000002,0.3766666666666668,0.19500000000000003
10,5,9,0,9,0.6800000000000004,2,3,35,31,65,86,3.649999999999981,0.5600000000000003,0.4400000000000002,0.38000000000000017,4,2,2,1,14,4,3,1,4,0,17,7,HL,0.2607142857142858,0.14000000000000004,0.1466666666666667,0.38000000000000017
10,5,10,0,6,0.6500000000000004,2,3,59,49,99,37,4.209999999999969,0.4100000000000002,0.17,0.3100000000000001,6,3,1,1,14,3,1,1,4,0,15,7,HL,0.3007142857142858,0.1366666666666667,0.17,0.3100000000000001
10,6,11,0,2,1.6100000000000012,15,17,84,68,14,39,5.5099999999999625,0.7200000000000004,2.3199999999999945,0.22000000000000006,20,2,3,2,26,2,4,2,3,0,18,7,HL,0.21192307692307702,0.36000000000000015,0.5800000000000003,0.11000000000000003
10,6,12,0,7,1.290000000000001,5,6,89,113,87,30,4.209999999999983,1.410000000000001,0.5400000000000003,0.21000000000000005,9,4,2,2,18,5,3,2,3,0,13,7,HL,0.23388888888888898,0.28200000000000014,0.18000000000000002,0.10499999999999998
10,7,13,1,8,1.360000000000001,13,14,50,38,12,75,5.949999999999948,0.38000000000000017,1.5400000000000011,0.10999999999999999,20,3,5,2,24,3,7,2,2,0,18,7,HL,0.24791666666666676,0.12666666666666668,0.22000000000000008,0.05500000000000001
10,7,14,1,4,1.0400000000000007,2,3,108,33,34,67,3.7599999999999865,0.7900000000000005,0.45000000000000023,0.48000000000000026,8,2,2,2,13,2,2,2,2,0,16,7,HL,0.28923076923076935,0.3950000000000002,0.22500000000000003,0.24000000000000007
10,8,15,1,3,1.0100000000000007,2,4,44,43,118,94,5.359999999999952,0.23000000000000007,2.399999999999993,0.20000000000000004,9,1,5,2,23,1,10,3,5,0,15,7,HL,0.23304347826086966,0.23000000000000007,0.24000000000000007,0.06666666666666665
10,8,16,1,2,1.0900000000000007,3,7,73,100,35,21,5.419999999999953,0.24000000000000007,0.09999999999999999,0.25000000000000006,9,1,1,1,21,1,1,1,3,0,16,7,HL,0.2580952380952382,0.24000000000000007,0.09999999999999999,0.25000000000000006
10,9,17,1,4,1.1100000000000008,7,8,104,103,93,101,3.339999999999997,1.6900000000000013,0.3000000000000001,1.9400000000000015,10,5,1,3,13,6,2,4,2,0.5,15,7,HL,0.25692307692307703,0.2816666666666668,0.15,0.4850000000000003
10,9,18,1,1,1.330000000000001,13,15,74,115,9,30,4.82999999999997,0.5500000000000003,0.2800000000000001,1.6400000000000012,19,2,3,4,26,4,4,6,5,0,16,7,HL,0.18576923076923083,0.1375,0.07000000000000002,0.27333333333333343
10,10,19,1,3,0.6600000000000004,9,9,82,53,110,2,6.829999999999913,2.149999999999998,0.3200000000000001,0.7700000000000005,14,6,2,3,25,12,3,5,5,0,15,7,HL,0.2732000000000001,0.1791666666666667,0.10666666666666667,0.15400000000000005
10,10,20,1,1,0.10999999999999999,2,2,14,23,65,106,10.059999999999832,0.04,0.03,0.01,14,1,1,1,32,1,1,1,5,0,18,7,HL,0.3143750000000001,0.04,0.03,0.01
10,11,21,1,1,0.6300000000000003,3,5,81,34,75,21,3.459999999999984,2.1699999999999977,0.5000000000000002,0.23000000000000007,6,5,2,1,10,13,2,1,5,0,17,7,HL,0.3460000000000002,0.16692307692307698,0.25000000000000006,0.23000000000000007
10,11,22,1,4,0.7700000000000005,2,3,5,1,101,102,4.209999999999971,0.6100000000000003,0.6900000000000004,0.18000000000000002,8,2,3,1,14,2,4,1,2,0,16,7,HL,0.3007142857142858,0.3050000000000001,0.17250000000000001,0.18000000000000002
10,12,23,1,9,0.6900000000000004,2,5,36,62,28,6,4.989999999999953,0.19000000000000003,0.15,1.9300000000000015,6,1,1,3,14,1,1,3,4,0,20,7,HL,0.3564285714285716,0.19000000000000003,0.15,0.6433333333333338
10,12,24,1,8,0.6100000000000003,3,4,73,23,15,50,3.5599999999999814,1.2500000000000009,1.7500000000000013,1.500000000000001,6,3,2,3,9,3,2,7,2,0,19,7,HL,0.39555555555555577,0.41666666666666685,0.8750000000000006,0.21428571428571436
10,13,25,1,1,0.6800000000000004,2,4,99,84,81,52,4.199999999999969,0.5100000000000002,0.36000000000000015,0.4300000000000002,7,2,1,2,18,2,1,3,5,0,12,7,HL,0.23333333333333342,0.2550000000000001,0.36000000000000015,0.14333333333333337
10,13,26,1,7,0.6300000000000003,4,6,85,16,93,120,3.1199999999999912,0.8900000000000006,0.8100000000000005,0.4200000000000002,7,2,3,1,12,3,3,1,3,0,14,7,HL,0.2600000000000001,0.29666666666666675,0.2700000000000001,0.4200000000000002
10,14,27,1,1,0.9500000000000006,4,6,110,93,27,62,4.259999999999974,0.8900000000000006,1.7300000000000013,0.4200000000000002,9,3,2,2,17,3,3,2,5,0,14,7,HL,0.2505882352941177,0.29666666666666675,0.5766666666666671,0.21000000000000008
10,14,28,1,3,1.0700000000000007,13,15,4,3,76,107,4.149999999999979,10.929999999999811,0.01,0.02,17,13,1,1,25,33,1,1,5,0,17,7,HL,0.16600000000000004,0.3312121212121214,0.01,0.02
10,15,29,1,7,0.17,2,2,3,118,53,5,2.2899999999999987,1.7800000000000014,0.3100000000000001,0.25000000000000006,4,3,1,1,5,5,1,1,3,0,18,7,HL,0.4580000000000003,0.35600000000000015,0.3100000000000001,0.25000000000000006
10,15,30,1,2,1.310000000000001,15,18,78,75,64,107,3.7599999999999927,1.9700000000000015,0.9300000000000006,0.20000000000000004,20,3,3,2,30,5,3,2,3,0,12,7,HL,0.12533333333333335,0.39400000000000024,0.3100000000000001,0.09999999999999999
10,16,31,1,3,0.6900000000000004,4,6,37,45,16,106,1.8700000000000012,1.5200000000000011,2.0400000000000005,0.09,7,3,3,1,10,3,6,1,5,0,18,7,HL,0.18700000000000006,0.5066666666666669,0.34000000000000014,0.09
10,16,32,1,1,0.8100000000000005,2,7,25,2,113,116,4.519999999999966,8.799999999999857,0.6800000000000004,1.360000000000001,7,12,1,5,19,25,1,5,5,0,15,7,HL,0.23789473684210535,0.35200000000000015,0.6800000000000004,0.2720000000000001
10,17,33,1,5,2.7899999999999845,11,20,77,9,1,79,4.039999999999985,0.8600000000000005,0.4300000000000002,0.36000000000000015,13,3,1,1,25,4,1,1,6,0,18,7,HL,0.16160000000000005,0.21500000000000005,0.4300000000000002,0.36000000000000015
10,17,34,1,10,0.5900000000000003,2,3,95,17,116,16,3.9099999999999735,0.24000000000000007,3.709999999999965,4.289999999999953,6,1,4,9,10,1,6,11,6,0,17,7,HL,0.3910000000000002,0.24000000000000007,0.6183333333333337,0.3900000000000002
10,18,35,1,2,0.8100000000000005,10,11,24,101,84,65,4.7699999999999605,1.430000000000001,0.5700000000000003,0.5700000000000003,16,3,2,2,22,6,2,3,3,0,15,7,HL,0.2168181818181819,0.23833333333333342,0.2850000000000001,0.19000000000000003
10,18,36,1,7,0.6300000000000003,2,3,85,89,58,120,1.7700000000000011,1.8300000000000014,1.6700000000000013,0.24000000000000007,5,4,3,1,7,6,7,1,3,0,12,7,HL,0.25285714285714295,0.3050000000000001,0.23857142857142866,0.24000000000000007
10,19,37,1,9,1.0700000000000007,7,8,72,66,13,67,3.299999999999997,0.7700000000000005,1.420000000000001,0.36000000000000015,9,2,5,2,13,2,8,2,4,0.5,30,7,HL,0.25384615384615394,0.3850000000000002,0.17750000000000005,0.18000000000000002
10,19,38,1,4,0.2700000000000001,2,2,1,49,60,94,10.639999999999823,0.10999999999999999,0.5900000000000003,0.01,16,1,2,1,29,1,2,1,2,0,17,7,HL,0.3668965517241381,0.10999999999999999,0.29500000000000015,0.01
10,20,39,1,6,0.5200000000000002,2,3,60,17,109,110,1.8600000000000012,2.0000000000000013,0.3300000000000001,1.310000000000001,4,3,1,3,5,3,1,6,4,0,14,7,HL,0.37200000000000016,0.6666666666666671,0.3300000000000001,0.2183333333333334
10,20,40,1,3,0.8100000000000005,11,11,5,102,40,46,3.459999999999988,0.45000000000000023,9.749999999999837,0.01,15,2,8,1,18,2,13,1,5,0,18,7,HL,0.1922222222222223,0.22500000000000012,0.7500000000000004,0.01
10,21,41,1,1,0.37000000000000016,2,3,35,115,22,34,3.4999999999999774,0.7700000000000005,0.2800000000000001,0.24000000000000007,5,2,1,2,8,2,1,2,5,0,18,7,HL,0.4375,0.3850000000000002,0.2800000000000001,0.11999999999999998
10,21,42,1,3,0.20000000000000004,2,2,6,40,39,52,5.729999999999927,0.05,0.05,0.18000000000000002,7,1,1,1,23,1,1,2,5,0,20,7,HL,0.2491304347826088,0.05,0.05,0.09
11,1,1,0,1,1.0700000000000007,2,4,106,96,101,92,2.3100000000000014,1.390000000000001,0.6100000000000003,0.5300000000000002,3,2,2,2,5,2,2,3,5,0,10,7,HL,0.46200000000000024,0.6950000000000004,0.3050000000000001,0.1766666666666667
11,1,2,0,6,1.1000000000000008,2,3,77,4,38,9,3.389999999999996,0.46000000000000024,0.49000000000000027,2.4599999999999915,6,1,2,4,8,1,2,4,4,0,20,7,HL,0.4237500000000002,0.46000000000000024,0.24500000000000008,0.6150000000000004
11,2,3,0,1,0.9600000000000006,2,5,68,97,23,101,4.359999999999972,0.4000000000000002,0.35000000000000014,0.20000000000000004,5,3,1,1,14,3,1,1,5,0,14,7,HL,0.31142857142857155,0.13333333333333336,0.35000000000000014,0.20000000000000004
11,2,4,0,8,0.6400000000000003,2,3,114,58,118,60,1.640000000000001,0.9100000000000006,0.5900000000000003,0.6000000000000003,4,2,2,1,5,2,2,1,2,0,12,7,HL,0.3280000000000002,0.4550000000000003,0.2950000000000001,0.6000000000000003
11,3,5,0,2,0.22000000000000006,2,2,2,102,99,6,13.56999999999976,0.02,0.01,0.01,16,1,1,1,28,1,1,1,3,0,16,7,HL,0.48464285714285743,0.02,0.01,0.01
11,3,6,0,7,1.420000000000001,3,6,93,120,19,13,2.3500000000000014,1.8000000000000014,1.0000000000000007,0.45000000000000023,4,2,2,1,7,3,2,1,3,0,17,7,HL,0.33571428571428585,0.6000000000000003,0.5000000000000002,0.45000000000000023
11,4,7,0,4,0.8300000000000005,2,3,20,18,65,46,5.069999999999954,0.2800000000000001,0.6100000000000003,0.16,9,1,2,1,12,1,3,1,2,0,21,7,HL,0.4225000000000002,0.2800000000000001,0.20333333333333337,0.16
11,4,8,0,1,0.6300000000000003,7,7,120,84,111,117,3.609999999999981,2.6599999999999873,0.09,0.060000000000000005,11,5,1,1,14,9,1,1,5,0.5,9,7,HL,0.25785714285714295,0.2955555555555557,0.09,0.060000000000000005
11,5,9,0,8,0.7600000000000005,3,4,7,3,79,12,7.5499999999999,3.8699999999999615,0.02,0.01,9,6,1,1,13,10,1,1,2,0.5,21,7,HL,0.5807692307692296,0.38700000000000023,0.02,0.01
11,5,10,0,9,0.8600000000000005,2,5,72,94,85,13,2.1500000000000012,1.9000000000000015,0.5400000000000003,0.7000000000000004,3,2,2,2,7,3,3,2,4,0,16,7,HL,0.3071428571428573,0.6333333333333337,0.18000000000000005,0.35000000000000014
11,6,11,0,9,0.8400000000000005,9,9,66,74,110,82,6.3099999999999286,0.060000000000000005,0.3000000000000001,0.08,14,1,2,1,18,1,3,1,4,0,12,7,HL,0.35055555555555573,0.060000000000000005,0.1,0.08
11,6,12,0,10,1.5900000000000012,15,19,105,92,57,19,3.839999999999997,1.460000000000001,0.3100000000000001,0.16,18,2,2,1,28,2,2,1,6,0,15,7,HL,0.13714285714285718,0.7300000000000004,0.15500000000000003,0.16
11,7,13,1,5,1.6400000000000012,13,17,91,95,92,69,2.960000000000002,1.0900000000000007,1.8100000000000014,0.9000000000000006,14,2,4,2,18,2,5,2,6,0.5,22,7,HL,0.1644444444444445,0.5450000000000003,0.36200000000000015,0.45000000000000023
11,7,14,1,4,1.390000000000001,3,7,17,108,39,16,3.3300000000000027,1.8700000000000014,0.7900000000000005,0.3200000000000001,6,4,1,2,13,7,1,2,2,0,19,7,HL,0.2561538461538463,0.26714285714285724,0.7900000000000005,0.16
11,8,15,1,5,0.6900000000000004,2,3,12,69,77,75,2.8999999999999972,0.8300000000000005,1.7700000000000014,0.35000000000000014,5,1,3,2,7,1,6,2,6,0,16,7,HL,0.4142857142857145,0.8300000000000005,0.29500000000000015,0.17500000000000002
11,8,16,1,1,0.4400000000000002,2,3,36,94,56,22,1.740000000000001,2.679999999999987,0.37000000000000016,0.20000000000000004,5,5,1,1,10,8,1,1,5,0,18,7,HL,0.17400000000000004,0.33500000000000013,0.37000000000000016,0.20000000000000004
11,9,17,1,6,0.7000000000000004,2,3,15,21,50,57,2.8,0.6200000000000003,1.1300000000000008,0.6400000000000003,4,1,3,3,6,1,5,3,4,0,20,7,HL,0.4666666666666669,0.6200000000000003,0.22600000000000006,0.21333333333333337
11,9,18,1,8,0.6700000000000004,2,3,69,113,86,62,2.6900000000000013,0.5000000000000002,1.0500000000000007,0.5700000000000003,3,1,3,2,4,1,5,2,2,0,13,7,HL,0.6725000000000003,0.5000000000000002,0.21000000000000008,0.28500000000000014
11,10,19,1,8,0.8600000000000005,2,5,20,112,118,64,2.560000000000002,2.3199999999999945,0.16,1.290000000000001,5,3,1,4,9,5,1,4,2,0,14,7,HL,0.28444444444444456,0.46400000000000025,0.16,0.3225000000000001
11,10,20,1,1,0.9200000000000006,5,6,26,100,56,86,4.1499999999999755,0.6700000000000004,0.3900000000000002,1.1500000000000008,9,2,2,3,13,3,3,4,5,0,14,7,HL,0.3192307692307694,0.22333333333333338,0.13,0.28750000000000014
11,11,21,1,10,1.0300000000000007,2,4,14,73,105,102,9.779999999999859,0.02,0.02,0.01,12,1,1,1,18,1,1,1,6,0,13,7,HL,0.5433333333333337,0.02,0.02,0.01
11,11,22,1,7,1.2300000000000009,13,14,91,69,86,68,3.0400000000000023,3.2099999999999755,0.09999999999999999,1.1800000000000008,16,4,1,6,19,4,1,7,3,0,14,7,HL,0.16000000000000003,0.8025000000000005,0.09999999999999999,0.16857142857142862
11,12,23,1,6,0.6100000000000003,2,3,54,82,17,74,2.0800000000000014,2.6599999999999873,0.6300000000000003,0.47000000000000025,6,4,2,1,11,8,4,1,4,0,16,7,HL,0.18909090909090914,0.33250000000000013,0.1575,0.47000000000000025
11,12,24,1,7,0.2800000000000001,3,3,68,71,106,90,19.110000000000145,0.07,1.6200000000000012,0.05,20,2,6,2,49,2,7,2,3,0,13,7,HL,0.3900000000000002,0.035,0.23142857142857154,0.025
11,13,25,1,3,0.8100000000000005,2,5,117,119,40,111,4.049999999999976,0.5000000000000002,0.17,0.6100000000000003,7,2,1,2,14,3,1,3,5,0.5,17,7,HL,0.2892857142857144,0.1666666666666667,0.17,0.20333333333333337
11,13,26,1,4,0.49000000000000027,7,8,17,21,36,100,2.9699999999999913,0.5600000000000003,1.1100000000000008,0.7300000000000004,9,2,1,3,11,2,1,3,2,0,19,7,HL,0.27000000000000013,0.2800000000000001,1.1100000000000008,0.2433333333333334
11,14,27,1,4,1.1800000000000008,3,6,105,102,87,14,2.860000000000002,0.46000000000000024,1.0600000000000007,1.280000000000001,7,1,1,3,10,1,1,3,2,0,13,7,HL,0.28600000000000014,0.46000000000000024,1.0600000000000007,0.4266666666666669
11,14,28,1,8,1.5500000000000012,3,6,81,64,114,116,4.969999999999972,0.060000000000000005,1.320000000000001,0.38000000000000017,6,1,2,2,12,1,2,2,2,0,11,7,HL,0.4141666666666669,0.060000000000000005,0.6600000000000004,0.19000000000000003
11,15,29,1,10,0.7700000000000005,7,8,103,93,16,13,4.319999999999968,2.9399999999999813,0.35000000000000014,0.05,15,4,3,1,16,4,3,1,6,0,17,7,HL,0.27000000000000013,0.7350000000000004,0.11666666666666667,0.05
11,15,30,1,2,0.13999999999999999,2,2,1,72,116,73,9.539999999999845,0.01,0.01,0.01,15,1,1,1,25,1,1,1,3,0,15,7,HL,0.3816000000000002,0.01,0.01,0.01
11,16,31,1,7,0.7200000000000004,5,6,107,89,106,88,3.26999999999999,0.2800000000000001,0.8100000000000005,1.420000000000001,8,1,2,4,9,1,2,4,3,0,10,7,HL,0.3633333333333335,0.2800000000000001,0.4050000000000002,0.35500000000000015
11,16,32,1,6,0.47000000000000025,2,3,29,60,52,109,2.639999999999998,1.500000000000001,0.24000000000000007,0.23000000000000007,5,3,2,1,6,5,2,1,4,0,15,7,HL,0.4400000000000002,0.3000000000000001,0.12,0.23000000000000007
11,17,33,1,6,0.38000000000000017,2,3,60,54,52,55,1.3900000000000008,0.5100000000000002,1.7400000000000013,0.5400000000000003,4,1,2,2,6,1,4,2,4,1,48,7,HL,0.23166666666666677,0.5100000000000002,0.4350000000000002,0.2700000000000001
11,17,34,1,5,0.5100000000000002,8,8,1,90,89,97,6.279999999999921,0.07,0.5000000000000002,0.13999999999999999,14,1,3,1,22,1,3,1,6,0,14,7,HL,0.28545454545454557,0.07,0.16666666666666669,0.13999999999999999
11,18,35,1,10,0.5000000000000002,7,7,13,18,119,113,2.030000000000001,2.1699999999999977,0.3100000000000001,0.4100000000000002,9,4,1,2,10,4,1,3,6,0,16,7,HL,0.20300000000000007,0.5425000000000003,0.3100000000000001,0.13666666666666666
11,18,36,1,2,0.7500000000000004,2,4,75,74,101,98,2.4800000000000018,1.420000000000001,0.6500000000000004,0.6900000000000004,4,2,2,2,6,6,2,2,3,0,10,7,HL,0.41333333333333355,0.23666666666666675,0.3250000000000001,0.34500000000000014
11,19,37,1,4,0.7000000000000004,2,3,92,88,63,95,5.14999999999995,0.2700000000000001,0.7300000000000004,0.25000000000000006,8,1,2,1,14,1,2,1,2,0.5,22,7,HL,0.36785714285714305,0.2700000000000001,0.36500000000000016,0.25000000000000006
11,19,38,1,2,0.6700000000000004,4,5,10,1,8,83,5.269999999999946,6.669999999999902,12.039999999999788,0.04,12,7,14,1,18,10,28,1,3,0.5,39,7,HL,0.2927777777777779,0.6669999999999948,0.4300000000000002,0.04
11,20,39,1,1,0.9200000000000006,8,10,119,109,21,13,4.459999999999969,0.8800000000000006,0.7700000000000005,0.5700000000000003,16,3,3,2,21,4,4,2,5,0,16,7,HL,0.21238095238095245,0.22000000000000006,0.1925000000000001,0.2850000000000001
11,20,40,1,3,0.17,2,2,1,67,81,2,28.18000000000158,0.02,0.04,0.01,19,2,1,1,42,2,1,1,5,0,19,7,HL,0.6709523809523809,0.01,0.04,0.01
11,21,41,1,6,1.0000000000000007,8,10,51,50,31,52,2.880000000000002,1.5100000000000011,1.8800000000000014,1.330000000000001,11,3,3,4,14,3,3,5,4,0.5,29,7,HL,0.2057142857142858,0.5033333333333336,0.626666666666667,0.2660000000000001
11,21,42,1,7,1.1400000000000008,2,5,17,16,87,85,3.9399999999999853,0.7500000000000004,0.48000000000000026,0.11999999999999998,7,2,3,1,14,3,4,1,3,0,18,7,HL,0.28142857142857153,0.25000000000000006,0.12000000000000001,0.11999999999999998
12,1,1,0,5,1.2200000000000009,3,5,43,7,117,1,4.639999999999972,0.35000000000000014,5.049999999999937,0.5400000000000003,6,2,7,3,13,2,10,3,6,0,19,7,HL,0.35692307692307707,0.17500000000000007,0.5050000000000003,0.18000000000000005
12,1,2,0,2,1.0500000000000007,2,4,24,106,76,73,2.8500000000000023,1.1100000000000008,0.6600000000000004,0.4100000000000002,5,4,3,1,9,5,3,1,3,0,14,7,HL,0.3166666666666668,0.2220000000000001,0.22000000000000008,0.4100000000000002
12,2,3,0,3,0.2900000000000001,2,2,18,111,44,22,13.419999999999765,0.01,0.01,0.01,16,1,1,1,36,1,1,1,5,0,19,7,HL,0.37277777777777793,0.01,0.01,0.01
12,2,4,0,7,0.6700000000000004,2,4,105,27,34,5,2.5100000000000016,1.430000000000001,0.5100000000000002,0.2800000000000001,4,2,1,1,6,4,1,1,3,0,18,7,HL,0.41833333333333356,0.35750000000000015,0.5100000000000002,0.2800000000000001
12,3,5,0,4,1.470000000000001,2,5,45,11,98,53,3.1400000000000023,2.349999999999994,1.8200000000000014,3.979999999999959,3,3,4,4,6,5,6,4,2,0,17,7,HL,0.5233333333333337,0.47000000000000025,0.3033333333333335,0.9949999999999977
