Subject,Round,Phase,afterbreak,Schema,Schema_RT,Schema_OB,Schema_AS,Cho_1,Cho_2,Cho_3,Cho_4,RT_1,RT_2,RT_3,RT_4,OB_1,OB_2,OB_3,OB_4,AS_1,AS_2,AS_3,AS_4,schema_payoff,AC,performance,breakR,type,dwellmean_1,dwellmean_2,dwellmean_3,dwellmean_4
1,1,1,0,7,0.49000000000000027,2,6,109,13,23,89,4.029999999999969,0.35000000000000014,0.22000000000000006,0.05,6,1,1,1,18,1,1,1,3,0,17,7,HL,0.22388888888888897,0.35000000000000014,0.22000000000000006,0.05
1,1,2,0,6,0.3900000000000002,2,5,100,55,3,81,3.449999999999979,0.26000000000000006,0.22000000000000006,0.18000000000000002,7,2,1,1,18,2,1,1,4,0,15,7,HL,0.1916666666666667,0.12999999999999998,0.22000000000000006,0.18000000000000002
1,2,3,0,8,0.3900000000000002,2,4,10,80,4,3,2.639999999999996,0.3200000000000001,0.9100000000000006,0.2800000000000001,6,1,4,2,10,1,4,4,2,0.5,21,7,HL,0.2640000000000001,0.3200000000000001,0.2275000000000001,0.06999999999999999
1,2,4,0,7,0.25000000000000006,2,5,14,99,62,104,7.0499999999998995,0.01,0.04,0.01,14,1,1,1,28,1,1,1,3,0,14,7,HL,0.2517857142857144,0.01,0.04,0.01
1,3,5,0,2,0.36000000000000015,2,5,79,73,20,113,1.7600000000000011,1.6100000000000012,0.9200000000000006,1.400000000000001,6,5,3,7,11,5,4,8,3,0,14,7,HL,0.16000000000000006,0.3220000000000002,0.2300000000000001,0.17500000000000004
1,3,6,0,3,0.23000000000000007,2,4,42,108,40,45,2.2000000000000015,1.460000000000001,0.08,0.060000000000000005,5,3,1,1,11,4,1,1,5,0.5,17,7,HL,0.20000000000000007,0.3650000000000002,0.08,0.060000000000000005
1,4,7,0,2,0.2700000000000001,2,5,116,111,5,73,1.4200000000000008,1.340000000000001,0.49000000000000027,0.5600000000000003,4,3,1,2,8,6,1,2,3,0,13,7,HL,0.17750000000000007,0.2233333333333334,0.49000000000000027,0.28000000000000014
1,4,8,0,7,0.36000000000000015,2,3,87,103,62,98,1.8700000000000012,1.460000000000001,0.7900000000000005,0.07,5,5,3,1,7,6,6,1,3,0,11,7,HL,0.26714285714285724,0.24333333333333343,0.13166666666666668,0.07
1,5,9,0,5,1.300000000000001,7,11,100,68,6,10,3.9999999999999876,0.9000000000000006,0.7800000000000005,6.059999999999915,14,3,2,11,21,3,2,18,6,0,18,7,HL,0.19047619047619052,0.3000000000000001,0.39000000000000024,0.33666666666666684
1,5,10,0,1,0.26000000000000006,2,3,33,52,90,114,1.550000000000001,2.579999999999989,0.7100000000000004,1.2000000000000008,4,5,4,3,5,8,4,3,5,0,14,7,HL,0.31000000000000016,0.3225000000000001,0.17750000000000005,0.4000000000000002
1,6,11,0,2,0.7100000000000004,3,4,23,84,20,15,3.3899999999999872,2.07,0.02,0.01,7,4,1,1,10,6,1,1,3,0.5,21,7,HL,0.33900000000000013,0.3450000000000002,0.02,0.01
1,6,12,0,5,0.38000000000000017,2,4,6,101,58,1,3.1299999999999857,0.34000000000000014,0.16,0.11999999999999998,7,2,1,1,24,2,1,1,6,0,18,7,HL,0.13041666666666668,0.17,0.16,0.11999999999999998
1,7,13,1,6,0.21000000000000005,1,2,5,106,97,107,2.7599999999999896,0.19000000000000003,0.13999999999999999,1.1600000000000008,7,1,1,4,13,1,1,4,4,0.5,18,7,HL,0.21230769230769236,0.19000000000000003,0.13999999999999999,0.29000000000000015
1,7,14,1,9,0.24000000000000007,2,4,21,17,90,62,3.479999999999975,0.5900000000000003,0.7700000000000005,0.02,8,2,4,1,12,2,4,1,4,0,19,7,HL,0.29000000000000015,0.2950000000000001,0.19250000000000006,0.02
1,8,15,1,7,0.15,2,3,92,91,63,88,1.4800000000000009,0.4000000000000002,3.6899999999999653,0.01,6,3,8,1,7,4,10,1,3,0.5,22,7,HL,0.21142857142857152,0.10000000000000002,0.36900000000000016,0.01
1,8,16,1,2,0.24000000000000007,2,5,59,103,11,76,2.2400000000000015,0.9800000000000006,0.7500000000000004,0.04,6,1,2,1,11,2,2,1,3,0,15,7,HL,0.20363636363636373,0.4900000000000002,0.3750000000000002,0.04
1,9,17,1,7,0.12999999999999998,2,3,55,94,3,6,3.5299999999999714,0.6200000000000003,0.22000000000000006,0.09,10,2,2,1,17,2,2,1,3,0,19,7,HL,0.2076470588235295,0.31000000000000016,0.11,0.09
1,9,18,1,1,0.3000000000000001,3,6,82,76,62,25,3.129999999999984,0.16,0.16,1.310000000000001,8,1,1,3,22,1,1,4,5,0,15,7,HL,0.1422727272727273,0.16,0.16,0.3275000000000001
1,10,19,1,3,0.3200000000000001,2,6,48,37,60,3,1.4500000000000008,3.849999999999962,0.6900000000000004,0.26000000000000006,6,11,3,2,12,16,4,2,5,0,20,7,HL,0.12083333333333336,0.2406250000000001,0.17250000000000004,0.13000000000000003
1,10,20,1,7,0.11999999999999998,1,2,31,92,30,35,1.8100000000000012,0.49000000000000027,0.3900000000000002,0.3300000000000001,4,2,1,1,10,2,1,1,3,0.5,33,7,HL,0.18100000000000008,0.24500000000000005,0.3900000000000002,0.3300000000000001
1,11,21,1,1,0.16,2,4,4,105,28,33,9.479999999999846,0.02,0.01,0.01,16,1,1,1,32,1,1,1,5,0,18,7,HL,0.2962500000000001,0.02,0.01,0.01
1,11,22,1,9,0.19000000000000003,2,3,64,69,61,111,2.6999999999999904,0.8200000000000005,1.5100000000000011,0.8400000000000005,11,3,5,2,14,3,6,2,4,0.5,26,7,HL,0.19285714285714292,0.27333333333333343,0.25166666666666676,0.42000000000000026
1,12,23,1,10,0.5900000000000003,11,12,60,56,107,15,4.309999999999965,3.8199999999999625,0.01,0.36000000000000015,20,8,1,2,24,11,1,2,6,0,16,7,HL,0.1795833333333334,0.34727272727272746,0.01,0.18000000000000008
1,12,24,1,5,0.3100000000000001,2,3,4,5,7,9,2.3400000000000007,0.6400000000000003,1.2500000000000009,0.05,5,3,4,1,7,3,5,1,6,1,72,7,HL,0.33428571428571446,0.21333333333333337,0.2500000000000001,0.05
1,13,25,1,10,0.18000000000000002,2,3,20,19,15,113,1.4900000000000009,2.719999999999986,2.0799999999999996,0.04,4,3,7,1,6,5,11,1,6,0.5,38,7,HL,0.24833333333333346,0.5440000000000004,0.18909090909090914,0.04
1,13,26,1,5,0.15,2,2,1,89,106,99,2.2899999999999983,0.4100000000000002,0.3300000000000001,0.3000000000000001,5,2,2,2,11,3,3,2,6,0,13,7,HL,0.20818181818181825,0.13666666666666671,0.10999999999999999,0.15
1,14,27,1,10,0.26000000000000006,2,6,23,24,72,16,2.939999999999987,0.5000000000000002,1.0700000000000007,0.08,5,2,5,2,13,2,5,2,6,0.5,40,7,HL,0.22615384615384626,0.2500000000000001,0.21400000000000008,0.04
1,14,28,1,1,0.19000000000000003,2,5,36,77,112,33,2.8799999999999866,1.7300000000000013,0.04,0.46000000000000024,10,6,1,3,16,9,1,3,5,0,15,7,HL,0.18000000000000005,0.1922222222222223,0.04,0.15333333333333338
1,15,29,1,8,0.25000000000000006,2,3,115,25,26,117,2.1300000000000017,1.370000000000001,0.8600000000000005,0.07,6,3,2,1,9,4,4,1,2,0,14,7,HL,0.23666666666666678,0.34250000000000014,0.21500000000000008,0.07
1,15,30,1,3,1.0600000000000007,5,9,18,17,22,99,2.4400000000000017,4.609999999999946,0.02,0.5800000000000003,8,5,1,5,15,16,1,5,5,0.5,38,7,HL,0.1626666666666667,0.28812500000000013,0.02,0.116
1,16,31,1,3,0.7700000000000005,5,6,47,111,37,95,1.9400000000000013,0.7100000000000004,0.2800000000000001,0.7700000000000005,8,3,1,3,10,7,1,4,5,0,15,7,HL,0.1940000000000001,0.10142857142857145,0.2800000000000001,0.19250000000000003
1,16,32,1,2,0.45000000000000023,2,6,79,30,77,32,1.9500000000000013,1.1200000000000008,0.17,0.3100000000000001,6,3,1,1,11,5,1,1,3,0,16,7,HL,0.17727272727272733,0.2240000000000001,0.17,0.3100000000000001
1,17,33,1,5,0.24000000000000007,2,5,9,1,28,78,8.779999999999863,10.97999999999981,0.01,0.01,16,19,1,1,34,34,1,1,6,0,20,7,HL,0.2582352941176472,0.3229411764705881,0.01,0.01
1,17,34,1,6,1.0100000000000007,4,6,17,14,87,57,2.920000000000002,1.8100000000000014,0.4200000000000002,0.04,11,4,2,1,15,5,2,1,4,0,19,7,HL,0.1946666666666667,0.36200000000000015,0.21000000000000008,0.04
1,18,35,1,5,0.3000000000000001,2,3,85,37,2,38,2.569999999999996,0.34000000000000014,1.7500000000000013,0.24000000000000007,8,1,6,2,14,1,9,2,6,0,19,7,HL,0.1835714285714286,0.34000000000000014,0.1944444444444445,0.12
1,18,36,1,9,0.5400000000000003,3,4,28,36,15,61,1.7900000000000011,0.4400000000000002,0.19000000000000003,1.0100000000000007,5,1,1,3,9,1,1,6,4,0,20,7,HL,0.19888888888888895,0.4400000000000002,0.19000000000000003,0.16833333333333336
1,19,37,1,9,0.8700000000000006,5,7,19,66,64,45,2.9699999999999998,0.2800000000000001,0.2700000000000001,0.7200000000000004,9,1,1,3,13,1,1,5,4,0,19,7,HL,0.22846153846153855,0.2800000000000001,0.2700000000000001,0.14400000000000002
1,19,38,1,6,0.3900000000000002,2,3,50,51,4,33,2.6299999999999963,0.23000000000000007,0.6400000000000003,0.16,7,1,2,1,13,1,4,1,4,0,19,7,HL,0.20230769230769236,0.23000000000000007,0.16000000000000003,0.16
1,20,39,1,4,0.35000000000000014,2,4,101,16,93,63,2.2300000000000018,1.260000000000001,1.500000000000001,0.04,7,5,4,1,13,7,4,1,2,0,15,7,HL,0.17153846153846158,0.18000000000000005,0.37500000000000017,0.04
1,20,40,1,1,1.0900000000000007,3,6,7,5,36,29,3.3399999999999967,0.6000000000000003,0.35000000000000014,0.35000000000000014,9,4,2,3,17,4,2,3,5,0,22,7,HL,0.19647058823529417,0.15,0.17500000000000002,0.11666666666666668
1,21,41,1,1,0.3300000000000001,3,4,90,57,31,119,3.389999999999979,0.4200000000000002,0.12999999999999998,0.15,9,4,2,1,11,4,2,1,5,0,14,7,HL,0.30818181818181833,0.10500000000000001,0.065,0.15
1,21,42,1,4,0.5100000000000002,4,5,106,14,41,18,1.7600000000000011,2.6599999999999873,0.48000000000000026,0.05,7,6,4,1,9,13,4,1,2,0,19,7,HL,0.19555555555555565,0.20461538461538467,0.12000000000000004,0.05
2,1,1,0,4,0.5100000000000002,2,5,104,107,77,29,3.7299999999999756,1.0200000000000007,1.0800000000000007,0.6600000000000004,9,3,4,4,19,3,6,5,2,0,12,7,HL,0.19631578947368428,0.34000000000000014,0.18000000000000005,0.13200000000000003
2,1,2,0,3,0.5400000000000003,2,5,48,42,51,54,2.949999999999993,1.0100000000000007,1.0200000000000007,0.5300000000000002,6,4,2,2,10,4,2,4,5,0,18,7,HL,0.29500000000000015,0.25250000000000006,0.5100000000000002,0.13250000000000003
2,2,3,0,10,0.3100000000000001,2,3,13,23,58,47,5.279999999999939,0.16,0.10999999999999999,0.8800000000000006,9,2,1,3,17,4,1,4,6,0,21,7,HL,0.3105882352941178,0.04,0.10999999999999999,0.22000000000000006
2,2,4,0,9,0.4100000000000002,2,3,69,64,65,85,2.2800000000000016,0.8200000000000005,0.8100000000000005,1.290000000000001,5,2,3,3,9,3,5,4,4,0.5,15,7,HL,0.2533333333333334,0.27333333333333343,0.162,0.3225000000000001
2,3,5,0,4,0.4100000000000002,2,3,44,43,19,65,2.9699999999999895,4.079999999999957,0.060000000000000005,0.46000000000000024,7,4,1,2,10,6,1,3,2,0,20,7,HL,0.29700000000000015,0.6800000000000005,0.060000000000000005,0.15333333333333338
2,3,6,0,7,0.3300000000000001,2,4,90,59,34,55,4.419999999999957,0.5400000000000003,0.8700000000000006,1.1200000000000008,11,2,4,3,20,2,5,3,3,0,16,7,HL,0.22100000000000009,0.27000000000000013,0.17400000000000004,0.3733333333333335
2,4,7,0,6,0.2700000000000001,2,3,55,50,99,39,2.9199999999999875,1.390000000000001,0.21000000000000005,0.45000000000000023,6,6,1,3,9,11,1,5,4,0,15,7,HL,0.3244444444444446,0.1263636363636364,0.21000000000000005,0.09
2,4,8,0,9,1.440000000000001,4,8,86,31,88,94,4.769999999999974,1.7400000000000013,1.7100000000000013,0.12999999999999998,12,6,3,2,19,7,3,2,4,0.5,14,7,HL,0.25105263157894747,0.24857142857142867,0.5700000000000004,0.06499999999999999
2,5,9,0,7,0.7700000000000005,2,4,100,101,3,68,3.3399999999999896,1.410000000000001,1.5400000000000011,0.20000000000000004,7,4,3,2,16,6,5,2,3,0,14,7,HL,0.20875000000000007,0.23500000000000007,0.3080000000000001,0.1
2,5,10,0,8,0.2800000000000001,2,3,16,34,120,112,5.109999999999942,0.3300000000000001,0.07,0.060000000000000005,10,2,1,1,15,2,1,1,2,0,15,7,HL,0.34066666666666684,0.16500000000000004,0.07,0.060000000000000005
2,6,11,0,8,0.3300000000000001,2,3,44,7,113,48,3.1799999999999833,2.199999999999997,0.07,0.4400000000000002,7,7,2,3,13,12,2,3,2,0,18,7,HL,0.2446153846153847,0.18333333333333338,0.035,0.14666666666666667
2,6,12,0,10,0.35000000000000014,2,4,101,17,103,72,4.7799999999999505,0.11999999999999998,0.8900000000000006,0.45000000000000023,12,1,4,3,25,1,5,3,6,0,14,7,HL,0.19120000000000004,0.11999999999999998,0.17800000000000005,0.15000000000000002
2,7,13,1,6,0.2900000000000001,2,3,59,32,49,35,2.2600000000000016,3.3499999999999726,2.159999999999998,0.3000000000000001,5,7,5,3,9,9,7,3,4,0,18,7,HL,0.25111111111111123,0.3722222222222224,0.3085714285714287,0.10000000000000002
2,7,14,1,3,0.5100000000000002,2,3,17,111,18,47,5.2799999999999425,0.13999999999999999,1.0100000000000007,0.05,10,2,4,1,18,3,4,1,5,0,19,7,HL,0.29333333333333345,0.04666666666666667,0.25250000000000006,0.05
2,8,15,1,6,0.4100000000000002,2,3,56,5,55,117,6.149999999999922,0.18000000000000002,0.05,0.19000000000000003,12,1,1,2,21,2,1,2,4,0,16,7,HL,0.292857142857143,0.09,0.05,0.095
2,8,16,1,10,0.3000000000000001,2,3,67,63,37,14,4.009999999999965,1.2200000000000009,0.24000000000000007,1.470000000000001,9,5,1,3,16,6,1,3,6,0,19,7,HL,0.2506250000000001,0.2033333333333334,0.24000000000000007,0.49000000000000027
2,9,17,1,2,0.38000000000000017,2,5,73,81,47,41,2.689999999999995,1.460000000000001,0.34000000000000014,0.8200000000000005,6,7,2,4,11,7,2,4,3,0,16,7,HL,0.24454545454545462,0.20857142857142863,0.17000000000000004,0.20500000000000004
2,9,18,1,9,0.25000000000000006,2,3,36,7,1,70,2.7199999999999913,1.1800000000000008,0.6400000000000003,0.4300000000000002,9,3,2,3,13,6,2,3,4,0,21,7,HL,0.2092307692307693,0.1966666666666667,0.3200000000000001,0.14333333333333337
2,10,19,1,9,0.5300000000000002,2,4,31,14,71,35,3.1899999999999875,0.7400000000000004,0.8700000000000006,0.12999999999999998,7,1,3,1,14,1,4,1,4,0,20,7,HL,0.22785714285714292,0.7400000000000004,0.21750000000000005,0.12999999999999998
2,10,20,1,7,0.21000000000000005,2,3,90,45,85,48,3.359999999999977,0.49000000000000027,0.37000000000000016,2.1899999999999973,10,1,2,4,16,1,3,5,3,0,16,7,HL,0.21000000000000008,0.49000000000000027,0.12333333333333335,0.4380000000000002
2,11,21,1,6,0.35000000000000014,2,3,54,29,96,58,4.039999999999965,0.13999999999999999,0.3900000000000002,0.2900000000000001,8,1,2,3,13,1,3,4,4,0,16,7,HL,0.3107692307692309,0.13999999999999999,0.13000000000000003,0.0725
2,11,22,1,8,0.47000000000000025,2,3,22,68,19,16,4.639999999999956,0.4100000000000002,0.34000000000000014,0.26000000000000006,7,2,1,2,12,2,1,3,2,0.5,40,7,HL,0.3866666666666668,0.20500000000000007,0.34000000000000014,0.08666666666666667
2,12,23,1,10,0.6000000000000003,3,6,61,90,93,36,2.709999999999999,2.099999999999999,0.5900000000000003,0.45000000000000023,7,4,4,2,10,7,6,3,6,0,15,7,HL,0.27100000000000013,0.30000000000000016,0.09833333333333334,0.15000000000000002
2,12,24,1,3,2.9899999999999802,7,15,54,38,47,112,4.309999999999981,1.2300000000000009,0.6500000000000004,1.2400000000000009,10,3,2,4,18,4,2,4,5,0,16,7,HL,0.23944444444444457,0.30750000000000016,0.3250000000000001,0.3100000000000001
2,13,25,1,2,0.37000000000000016,3,5,52,111,79,84,4.80999999999995,0.37000000000000016,0.8500000000000005,0.19000000000000003,15,3,4,2,26,3,6,2,3,0,12,7,HL,0.18500000000000005,0.12333333333333335,0.14166666666666672,0.095
2,13,26,1,7,0.37000000000000016,2,3,91,92,107,100,15.389999999999725,5.749999999999922,7.339999999999888,2.3799999999999932,20,14,10,7,56,22,15,9,3,0,10,7,HL,0.2748214285714287,0.26136363636363646,0.48933333333333323,0.2644444444444446
2,14,27,1,2,0.3000000000000001,2,4,10,9,112,38,3.079999999999985,0.4000000000000002,1.1000000000000008,1.2500000000000009,7,2,3,4,11,2,3,4,3,0,19,7,HL,0.28000000000000014,0.20000000000000004,0.3666666666666668,0.31250000000000017
2,14,28,1,10,0.3200000000000001,2,5,22,94,90,14,2.819999999999991,1.7400000000000013,0.37000000000000016,0.5600000000000003,6,6,2,3,12,7,2,3,6,0,18,7,HL,0.2350000000000001,0.24857142857142867,0.18500000000000003,0.1866666666666667
2,15,29,1,5,0.17,2,3,1,61,9,65,3.9499999999999633,0.4300000000000002,0.060000000000000005,0.7700000000000005,9,1,1,2,14,1,1,3,6,0,20,7,HL,0.28214285714285725,0.4300000000000002,0.060000000000000005,0.25666666666666677
2,15,30,1,6,0.26000000000000006,2,3,108,49,55,32,4.839999999999947,0.6500000000000004,0.7600000000000005,1.0300000000000007,9,2,3,2,10,2,3,2,4,0,15,7,HL,0.48400000000000026,0.3250000000000002,0.2533333333333334,0.5150000000000003
2,16,31,1,4,0.9800000000000006,4,7,62,99,68,97,7.839999999999899,0.9900000000000007,0.01,1.330000000000001,19,4,1,6,33,5,1,9,2,0,12,7,HL,0.23757575757575766,0.19800000000000006,0.01,0.1477777777777778
2,16,32,1,5,1.9000000000000015,5,10,6,8,55,31,4.010000000000001,7.0799999999998935,0.47000000000000025,0.01,11,11,2,1,16,21,2,1,6,0,21,7,HL,0.2506250000000001,0.3371428571428573,0.23500000000000013,0.01
2,17,33,1,9,0.25000000000000006,2,3,72,64,9,10,3.9199999999999657,0.18000000000000002,1.2200000000000009,1.380000000000001,10,1,4,7,23,1,4,7,4,0,20,7,HL,0.17043478260869568,0.18000000000000002,0.30500000000000016,0.19714285714285723
2,17,34,1,6,0.35000000000000014,2,4,52,36,55,32,3.9299999999999677,0.2700000000000001,0.49000000000000027,0.8000000000000005,11,1,2,3,25,1,3,3,4,0,18,7,HL,0.15720000000000003,0.2700000000000001,0.16333333333333336,0.2666666666666668
2,18,35,1,9,0.26000000000000006,2,3,70,3,108,10,2.8599999999999888,2.6999999999999864,1.1800000000000008,0.03,8,4,5,1,19,6,9,1,4,0,18,7,HL,0.1505263157894737,0.45000000000000023,0.13111111111111115,0.03
2,18,36,1,10,0.2900000000000001,2,4,13,15,50,119,3.29999999999998,0.9500000000000006,0.09,1.0200000000000007,6,3,1,2,11,5,1,2,6,0,18,7,HL,0.30000000000000016,0.19000000000000003,0.09,0.5100000000000002
2,19,37,1,10,0.47000000000000025,2,3,67,62,63,45,5.189999999999944,0.26000000000000006,0.20000000000000004,0.13999999999999999,10,2,1,1,14,2,1,1,6,0.5,29,7,HL,0.3707142857142859,0.13,0.20000000000000004,0.13999999999999999
2,19,38,1,1,0.8300000000000005,4,7,27,119,6,55,1.620000000000001,1.5500000000000012,0.9300000000000006,0.6000000000000003,7,2,3,4,13,3,5,5,5,0,17,7,HL,0.12461538461538464,0.5166666666666669,0.18600000000000005,0.12000000000000001
2,20,39,1,9,0.19000000000000003,2,3,70,68,73,44,0.6400000000000002,0.6400000000000003,1.460000000000001,0.7000000000000004,4,3,3,2,5,4,3,2,4,0,16,7,HL,0.12800000000000003,0.16000000000000003,0.4866666666666669,0.35000000000000014
2,20,40,1,7,1.430000000000001,6,9,18,60,26,24,3.9899999999999904,0.5800000000000003,1.460000000000001,0.25000000000000006,11,3,3,2,17,4,5,2,3,0,21,7,HL,0.23470588235294126,0.14500000000000002,0.2920000000000001,0.12500000000000003
2,21,41,1,5,1.0400000000000007,5,10,54,27,9,4,3.729999999999987,0.4100000000000002,0.20000000000000004,1.2300000000000009,9,1,1,4,21,2,1,5,6,0,21,7,HL,0.17761904761904768,0.20500000000000002,0.20000000000000004,0.24600000000000008
2,21,42,1,2,0.3300000000000001,2,3,81,74,65,116,3.1599999999999837,2.439999999999992,0.7000000000000004,1.7000000000000013,12,7,2,3,19,9,3,4,3,0,12,7,HL,0.16631578947368425,0.2711111111111112,0.23333333333333342,0.4250000000000002
3,1,1,0,8,0.8900000000000006,2,8,28,114,120,55,4.159999999999975,0.4200000000000002,0.46000000000000024,0.9000000000000006,6,2,2,3,18,2,2,3,2,0,13,7,HL,0.2311111111111112,0.21000000000000002,0.23000000000000004,0.3000000000000001
3,1,2,0,9,0.5200000000000002,2,5,70,37,41,3,3.2599999999999856,1.5700000000000012,1.390000000000001,0.20000000000000004,5,3,3,1,18,5,3,2,4,0,20,7,HL,0.18111111111111117,0.3140000000000001,0.4633333333333336,0.1
3,2,3,0,4,0.12999999999999998,2,2,3,27,12,107,11.329999999999806,0.01,0.01,0.01,15,1,1,1,38,1,1,1,2,0,19,7,HL,0.29815789473684223,0.01,0.01,0.01
3,2,4,0,8,0.5100000000000002,2,5,120,42,48,17,2.5100000000000016,2.53999999999999,0.9500000000000006,2.8899999999999824,5,4,3,5,10,5,3,8,2,0,18,7,HL,0.2510000000000001,0.5080000000000002,0.31666666666666676,0.3612500000000002
3,3,5,0,3,0.6900000000000004,2,6,44,43,8,4,2.2700000000000014,2.849999999999983,0.3300000000000001,0.20000000000000004,7,7,1,2,13,10,1,2,5,0,22,7,HL,0.17461538461538467,0.28500000000000014,0.3300000000000001,0.09999999999999999
3,3,6,0,9,0.7500000000000004,2,5,66,88,85,23,4.569999999999963,0.6000000000000003,0.36000000000000015,1.6000000000000012,8,1,1,3,14,1,1,6,4,0,16,7,HL,0.32642857142857157,0.6000000000000003,0.36000000000000015,0.2666666666666668
3,4,7,0,6,0.46000000000000024,3,4,55,54,88,86,1.750000000000001,2.1399999999999983,0.38000000000000017,0.3100000000000001,5,7,1,1,6,8,1,1,4,0,14,7,HL,0.29166666666666685,0.2675000000000001,0.38000000000000017,0.3100000000000001
3,4,8,0,10,0.3900000000000002,4,4,15,114,47,113,12.659999999999783,0.02,0.01,0.01,17,1,1,1,37,1,1,1,6,0,15,7,HL,0.3421621621621621,0.02,0.01,0.01
3,5,9,0,6,0.5600000000000003,2,5,16,50,83,119,4.189999999999967,8.759999999999858,1.2100000000000009,0.01,6,17,2,1,14,27,2,1,4,0,15,7,HL,0.29928571428571443,0.3244444444444446,0.6050000000000004,0.01
3,5,10,0,4,0.34000000000000014,2,3,48,101,5,98,2.88999999999999,0.4200000000000002,1.0100000000000007,0.8100000000000005,6,3,2,3,11,4,3,3,2,0,15,7,HL,0.2627272727272728,0.10500000000000001,0.33666666666666684,0.27000000000000013
3,6,11,0,4,0.7300000000000004,4,7,97,54,30,29,4.419999999999966,0.6100000000000003,0.11999999999999998,0.38000000000000017,10,3,1,3,18,3,1,3,2,0,16,7,HL,0.24555555555555567,0.2033333333333334,0.11999999999999998,0.12666666666666668
3,6,12,0,9,0.4100000000000002,2,3,71,96,85,117,2.1200000000000014,1.8700000000000014,0.48000000000000026,0.8200000000000005,6,2,1,2,7,8,1,3,4,0,12,7,HL,0.302857142857143,0.23375000000000007,0.48000000000000026,0.27333333333333343
3,7,13,1,10,0.46000000000000024,2,4,100,21,17,19,4.40999999999996,0.16,0.7700000000000005,1.0000000000000007,10,1,3,4,16,1,3,4,6,0.5,38,7,HL,0.2756250000000001,0.16,0.25666666666666677,0.2500000000000001
3,7,14,1,1,2.020000000000001,7,11,118,11,33,8,4.939999999999983,0.47000000000000025,1.0200000000000007,0.7900000000000005,10,2,2,2,18,3,4,2,5,0,19,7,HL,0.27444444444444455,0.1566666666666667,0.2550000000000001,0.3950000000000002
3,8,15,1,9,1.0900000000000007,3,8,64,43,38,17,6.049999999999939,1.8700000000000014,0.38000000000000017,2.4699999999999913,10,6,2,6,20,6,2,6,4,0,20,7,HL,0.30250000000000016,0.31166666666666687,0.19000000000000009,0.4116666666666669
3,8,16,1,5,0.6400000000000003,2,3,1,102,3,28,8.88999999999987,0.01,0.01,0.01,10,1,1,1,22,1,1,1,6,0,19,7,HL,0.4040909090909093,0.01,0.01,0.01
3,9,17,1,6,0.35000000000000014,2,3,54,52,33,49,2.88999999999999,1.9900000000000015,1.2000000000000008,0.20000000000000004,5,4,5,2,7,4,6,2,4,0.5,29,7,HL,0.4128571428571431,0.4975000000000003,0.20000000000000007,0.09999999999999999
3,9,18,1,4,1.2100000000000009,3,8,107,44,37,9,3.210000000000002,1.290000000000001,0.5800000000000003,1.470000000000001,5,2,1,3,10,4,1,5,2,0,18,7,HL,0.3210000000000002,0.3225000000000001,0.5800000000000003,0.29400000000000015
3,10,19,1,8,0.5200000000000002,2,5,114,115,116,2,3.3699999999999832,7.6399999999998816,2.52999999999999,0.22000000000000006,7,10,7,2,12,17,7,2,2,0.5,18,7,HL,0.2808333333333335,0.44941176470588257,0.3614285714285716,0.11000000000000003
3,10,20,1,4,0.6300000000000003,2,3,66,77,39,104,3.1099999999999914,0.7700000000000005,0.48000000000000026,0.2800000000000001,5,2,1,1,10,3,1,1,2,0,14,7,HL,0.3110000000000001,0.25666666666666677,0.48000000000000026,0.2800000000000001
3,11,21,1,3,0.34000000000000014,2,3,38,101,50,97,4.679999999999952,1.1200000000000008,0.18000000000000002,0.08,8,4,2,1,18,4,2,1,5,0,13,7,HL,0.2600000000000001,0.28000000000000014,0.09,0.08
3,11,22,1,5,0.5400000000000003,3,5,83,1,80,78,4.159999999999967,0.49000000000000027,0.5100000000000002,0.3200000000000001,7,2,2,1,12,4,4,1,6,0.5,24,7,HL,0.34666666666666685,0.12250000000000001,0.1275,0.3200000000000001
3,12,23,1,9,1.0100000000000007,4,5,106,37,66,101,4.1399999999999775,0.6300000000000003,1.440000000000001,0.36000000000000015,10,2,4,2,21,2,4,2,4,0,13,7,HL,0.1971428571428572,0.3150000000000001,0.36000000000000015,0.18000000000000005
3,12,24,1,7,0.35000000000000014,2,3,90,115,117,119,2.88999999999999,1.2500000000000009,1.0500000000000007,0.5500000000000003,5,3,2,2,9,4,2,2,3,0.5,15,7,HL,0.32111111111111124,0.3125000000000001,0.5250000000000002,0.2750000000000001
3,13,25,1,9,0.5200000000000002,2,8,85,66,106,88,6.299999999999922,0.03,0.23000000000000007,0.3000000000000001,10,1,1,3,17,1,1,3,4,0,12,7,HL,0.3705882352941179,0.03,0.23000000000000007,0.09999999999999999
3,13,26,1,3,0.7900000000000005,5,8,45,57,112,119,3.679999999999983,1.2500000000000009,2.389999999999993,0.05,10,3,7,1,16,5,9,2,5,0,13,7,HL,0.2300000000000001,0.2500000000000001,0.26555555555555566,0.025
3,14,27,1,4,0.3900000000000002,2,5,103,37,14,44,3.449999999999979,2.5899999999999888,0.17,0.48000000000000026,5,4,2,4,12,6,2,4,2,0,18,7,HL,0.28750000000000014,0.4316666666666669,0.08499999999999999,0.12000000000000001
3,14,28,1,1,0.7800000000000005,10,13,12,4,6,113,4.0699999999999745,11.259999999999804,6.489999999999906,3.569999999999968,15,13,11,5,21,28,15,5,5,0.5,38,7,HL,0.19380952380952388,0.40214285714285736,0.4326666666666669,0.7139999999999992
3,15,29,1,5,0.35000000000000014,2,3,9,69,92,35,5.499999999999935,0.8900000000000006,0.2700000000000001,2.1899999999999973,8,3,1,3,14,3,1,5,6,0,18,7,HL,0.39285714285714307,0.2966666666666668,0.2700000000000001,0.4380000000000003
3,15,30,1,3,0.6500000000000004,3,5,37,46,16,100,3.859999999999976,0.7000000000000004,0.16,0.9100000000000006,7,2,1,1,15,4,1,1,5,0,18,7,HL,0.2573333333333334,0.17500000000000002,0.16,0.9100000000000006
3,16,31,1,5,0.3900000000000002,2,4,2,47,7,78,4.779999999999951,0.17,0.12999999999999998,0.17,8,2,1,1,16,2,1,1,6,0,20,7,HL,0.2987500000000001,0.08499999999999999,0.12999999999999998,0.17
3,16,32,1,1,0.49000000000000027,2,3,26,36,114,30,2.1800000000000015,0.8700000000000006,2.7399999999999856,0.08,4,1,6,1,6,1,9,2,5,0.5,32,7,HL,0.3633333333333335,0.8700000000000006,0.3044444444444446,0.04
3,17,33,1,10,0.3000000000000001,2,3,17,14,99,22,2.290000000000002,27.230000000001457,1.6500000000000012,0.5000000000000002,6,18,4,6,9,68,5,6,6,0.5,38,7,HL,0.25444444444444453,0.4004411764705884,0.3300000000000001,0.08333333333333333
3,17,34,1,8,1.9200000000000015,4,8,10,117,83,78,5.699999999999965,0.22000000000000006,2.4999999999999907,0.03,12,1,4,1,22,1,5,1,2,0,14,7,HL,0.2590909090909092,0.22000000000000006,0.5000000000000002,0.03
3,18,35,1,6,0.3000000000000001,2,3,49,1,2,8,2.3600000000000003,4.3099999999999525,0.7700000000000005,0.10999999999999999,7,6,5,1,9,12,5,1,4,0.5,40,7,HL,0.26222222222222236,0.35916666666666686,0.15400000000000005,0.10999999999999999
3,18,36,1,9,0.25000000000000006,2,4,61,13,67,115,2.0900000000000016,0.9100000000000006,0.5600000000000003,0.6500000000000004,5,3,3,2,10,5,3,2,4,0,16,7,HL,0.2090000000000001,0.18200000000000008,0.1866666666666667,0.3250000000000001
3,19,37,1,2,0.3100000000000001,2,3,84,39,120,112,2.659999999999994,0.6200000000000003,0.6800000000000004,0.8400000000000005,6,1,2,3,11,2,2,3,3,0,12,7,HL,0.24181818181818193,0.3100000000000001,0.34000000000000014,0.2800000000000001
3,19,38,1,7,0.3300000000000001,2,5,107,7,64,10,2.999999999999987,2.0300000000000007,0.060000000000000005,2.2799999999999954,8,4,1,4,14,4,1,5,3,0,18,7,HL,0.21428571428571436,0.5075000000000003,0.060000000000000005,0.45600000000000024
3,20,39,1,6,0.38000000000000017,2,4,53,18,22,112,3.86999999999997,1.470000000000001,1.450000000000001,0.5800000000000003,9,3,4,3,17,4,4,3,4,0,18,7,HL,0.22764705882352948,0.36750000000000016,0.3625000000000002,0.1933333333333334
3,20,40,1,5,0.5400000000000003,2,6,4,79,81,101,9.419999999999856,0.02,2.1299999999999986,0.4300000000000002,11,1,2,2,23,1,3,2,6,0,14,7,HL,0.4095652173913045,0.02,0.7100000000000005,0.21500000000000008
3,21,41,1,1,0.7900000000000005,2,6,112,109,29,34,6.64999999999992,1.370000000000001,0.05,0.01,11,4,2,1,17,4,2,1,5,0,14,7,HL,0.3911764705882355,0.3425000000000002,0.025,0.01
3,21,42,1,7,1.6400000000000012,4,11,99,88,19,16,3.710000000000001,0.3200000000000001,0.5100000000000002,0.22000000000000006,7,1,2,1,16,1,2,1,3,0,17,7,HL,0.23187500000000008,0.3200000000000001,0.25500000000000006,0.22000000000000006
4,1,1,0,1,0.8400000000000005,3,32,97,35,100,25,3.809999999999981,0.2900000000000001,0.19000000000000003,0.13999999999999999,9,2,2,2,126,10,9,4,5,0,14,7,HL,0.030238095238095238,0.029,0.021111111111111112,0.035
4,1,2,0,9,0.6900000000000004,6,26,94,8,12,7,3.619999999999982,0.16,0.26000000000000006,1.2300000000000009,8,2,2,3,115,7,9,49,4,0.5,21,7,HL,0.03147826086956522,0.022857142857142857,0.028888888888888888,0.02510204081632653
4,2,3,0,2,0.5900000000000003,2,19,52,77,114,80,3.7199999999999775,0.19000000000000003,0.20000000000000004,0.05,4,2,2,2,124,7,7,4,3,0,12,7,HL,0.030000000000000002,0.027142857142857142,0.028571428571428574,0.0125
4,2,4,0,4,0.45000000000000023,2,20,18,65,97,24,5.209999999999943,0.02,0.02,0.03,12,1,1,2,167,1,1,3,2,0,18,7,HL,0.03119760479041916,0.02,0.02,0.01
4,3,5,0,1,0.6100000000000003,2,19,31,118,82,113,3.4999999999999827,0.6600000000000004,0.21000000000000005,0.02,8,5,2,1,113,25,9,1,5,0,12,7,HL,0.030973451327433628,0.0264,0.023333333333333334,0.02
4,3,6,0,3,1.0800000000000007,20,50,100,50,49,106,4.55999999999997,0.060000000000000005,0.15,0.10999999999999999,20,1,2,2,179,2,4,3,5,0,12,7,HL,0.02547486033519553,0.030000000000000002,0.037500000000000006,0.03666666666666667
4,4,7,0,10,0.3200000000000001,2,8,23,98,22,83,3.049999999999986,0.47000000000000025,0.05,0.09,4,3,1,1,98,16,1,1,6,0,17,7,HL,0.03112244897959184,0.029375,0.05,0.09
4,4,8,0,5,0.16,3,5,3,1,96,51,2.889999999999986,2.2299999999999964,0.01,0.01,6,8,1,1,93,66,1,1,6,0,19,7,HL,0.0310752688172043,0.03378787878787879,0.01,0.01
4,5,9,0,5,0.3000000000000001,2,11,8,4,10,107,3.4199999999999777,0.3100000000000001,0.5600000000000003,0.08,6,3,4,4,119,9,18,6,6,0.5,20,7,HL,0.028739495798319328,0.034444444444444444,0.03111111111111111,0.013333333333333334
4,5,10,0,1,0.24000000000000007,2,8,111,25,85,119,3.5499999999999736,0.16,0.08,0.09,13,2,2,2,118,7,3,3,5,0,12,7,HL,0.030084745762711865,0.022857142857142857,0.026666666666666665,0.03
4,6,11,0,9,0.21000000000000005,2,5,68,118,84,111,3.309999999999978,0.12999999999999998,0.05,0.10999999999999999,7,3,2,2,104,6,2,4,4,0,11,7,HL,0.03182692307692308,0.021666666666666667,0.025,0.0275
4,6,12,0,10,0.8000000000000005,18,26,15,96,94,22,3.9799999999999764,0.38000000000000017,0.3100000000000001,0.23000000000000007,20,2,2,5,129,6,12,9,6,0,18,7,HL,0.030852713178294574,0.06333333333333334,0.025833333333333333,0.025555555555555557
4,7,13,1,2,0.15,2,7,81,76,82,42,2.949999999999984,0.5400000000000003,0.23000000000000007,0.2800000000000001,5,4,3,3,90,18,12,8,3,0.5,23,7,HL,0.03277777777777778,0.030000000000000002,0.019166666666666665,0.035
4,7,14,1,10,0.4100000000000002,4,15,119,23,111,50,3.4499999999999793,0.12999999999999998,0.08,0.19000000000000003,9,2,2,4,116,4,5,7,6,0,14,7,HL,0.029741379310344828,0.0325,0.016,0.027142857142857142
4,8,15,1,1,0.49000000000000027,2,21,35,24,89,93,3.119999999999988,0.3100000000000001,0.3000000000000001,0.37000000000000016,4,2,3,6,105,7,12,13,5,0,17,7,HL,0.029714285714285714,0.04428571428571429,0.025,0.028461538461538462
4,8,16,1,5,0.34000000000000014,9,16,2,4,115,43,3.5299999999999763,0.03,0.21000000000000005,0.4100000000000002,12,1,3,3,133,1,6,15,6,0,19,7,HL,0.026541353383458647,0.03,0.035,0.027333333333333334
4,9,17,1,10,0.4300000000000002,2,16,13,22,19,16,3.5099999999999785,0.05,0.16,1.5900000000000012,4,1,4,13,109,1,10,56,6,1,72,7,HL,0.03220183486238532,0.05,0.016,0.028392857142857143
4,9,18,1,6,0.2700000000000001,3,13,8,50,45,95,6.439999999999913,0.01,0.01,0.01,20,1,1,1,223,1,1,1,4,0,18,7,HL,0.028878923766816143,0.01,0.01,0.01
4,10,19,1,6,0.49000000000000027,12,18,58,52,46,82,3.259999999999985,0.17,0.4100000000000002,0.7300000000000004,18,3,2,5,112,7,16,26,4,0,16,7,HL,0.029107142857142856,0.024285714285714285,0.025625000000000002,0.028076923076923076
4,10,20,1,7,0.5700000000000003,2,22,91,7,6,28,4.199999999999967,0.13999999999999999,0.11999999999999998,0.09,13,2,4,2,152,5,5,3,3,0,20,7,HL,0.02763157894736842,0.028,0.024,0.03
4,11,21,1,6,0.8200000000000005,19,36,50,51,1,40,3.8799999999999795,0.11999999999999998,0.8600000000000005,0.07,20,2,4,2,143,5,23,3,4,0,19,7,HL,0.027132867132867132,0.024,0.03739130434782609,0.023333333333333334
4,11,22,1,2,0.5400000000000003,17,22,81,73,115,75,3.4999999999999813,0.17,0.25000000000000006,0.18000000000000002,20,2,3,6,121,3,10,6,3,0.5,20,7,HL,0.028925619834710745,0.05666666666666667,0.025,0.030000000000000002
4,12,23,1,9,0.3000000000000001,2,11,70,9,65,33,2.9999999999999867,0.26000000000000006,0.26000000000000006,0.37000000000000016,9,4,5,2,110,6,10,6,4,0,19,7,HL,0.02727272727272727,0.043333333333333335,0.026000000000000002,0.06166666666666666
4,12,24,1,7,0.7900000000000005,17,25,89,94,60,42,3.8299999999999796,0.26000000000000006,0.060000000000000005,0.3100000000000001,20,5,2,3,132,11,3,12,3,0,15,7,HL,0.029015151515151515,0.023636363636363636,0.02,0.025833333333333333
4,13,25,1,4,0.4400000000000002,10,12,105,106,103,62,2.799999999999994,0.4200000000000002,0.5900000000000003,0.6300000000000003,12,4,4,7,99,13,19,21,2,0.5,16,7,HL,0.028282828282828285,0.03230769230769231,0.03105263157894737,0.03
4,13,26,1,7,0.5800000000000003,3,21,90,52,1,44,3.409999999999984,0.2900000000000001,0.4000000000000002,0.04,6,2,3,2,123,6,14,3,3,0,18,7,HL,0.02772357723577236,0.04833333333333333,0.028571428571428574,0.013333333333333334
4,14,27,1,2,0.8300000000000005,19,33,83,73,10,43,3.6399999999999846,0.07,0.38000000000000017,0.02,20,1,4,1,127,1,12,1,3,0,17,7,HL,0.028661417322834646,0.07,0.03166666666666667,0.02
4,14,28,1,4,0.18000000000000002,2,6,100,103,52,18,3.009999999999984,0.3200000000000001,0.38000000000000017,0.18000000000000002,9,2,5,2,102,5,16,3,2,0,14,7,HL,0.029509803921568628,0.064,0.02375,0.06
4,15,29,1,3,0.34000000000000014,2,14,15,97,19,86,3.6999999999999726,0.3900000000000002,0.11999999999999998,0.01,12,5,2,1,115,14,7,1,5,0,17,7,HL,0.03217391304347826,0.027857142857142858,0.017142857142857144,0.01
4,15,30,1,8,0.17,2,8,117,51,57,116,2.9599999999999844,0.12999999999999998,0.12999999999999998,0.5100000000000002,5,2,3,8,120,2,6,16,2,0,12,7,HL,0.024666666666666667,0.065,0.021666666666666667,0.031875
4,16,31,1,2,0.20000000000000004,2,8,76,74,97,16,3.159999999999981,0.19000000000000003,0.34000000000000014,0.11999999999999998,5,2,3,3,102,5,12,7,3,0,14,7,HL,0.030980392156862744,0.038,0.028333333333333335,0.017142857142857144
4,16,32,1,1,0.24000000000000007,2,11,4,53,11,52,7.539999999999889,0.01,0.01,0.01,20,1,1,1,254,1,1,1,5,0,20,7,HL,0.029685039370078742,0.01,0.01,0.01
4,17,33,1,2,0.4300000000000002,6,18,79,13,82,16,2.9099999999999913,0.3000000000000001,0.21000000000000005,0.4400000000000002,15,2,2,4,98,8,4,19,3,0,18,7,HL,0.02969387755102041,0.0375,0.0525,0.023157894736842106
4,17,34,1,5,0.7200000000000004,13,20,85,105,97,2,5.729999999999938,0.2700000000000001,0.04,0.060000000000000005,20,5,3,2,177,9,3,2,6,0,13,7,HL,0.032372881355932207,0.030000000000000002,0.013333333333333334,0.030000000000000002
4,18,35,1,5,0.35000000000000014,3,11,12,6,5,85,3.3799999999999795,1.8700000000000014,0.02,0.05,12,14,2,3,111,60,2,3,6,0.5,39,7,HL,0.03045045045045045,0.031166666666666665,0.01,0.016666666666666666
4,18,36,1,4,0.5200000000000002,15,24,103,13,42,99,3.9299999999999713,0.15,0.04,0.060000000000000005,20,2,1,2,131,6,1,2,2,0,15,7,HL,0.03,0.025,0.04,0.030000000000000002
4,19,37,1,8,0.36000000000000015,3,15,115,114,43,9,2.9299999999999895,0.4200000000000002,0.9600000000000006,0.6900000000000004,9,4,8,5,99,15,37,19,2,0,15,7,HL,0.029595959595959596,0.028,0.025945945945945948,0.03631578947368421
4,19,38,1,2,0.2900000000000001,3,8,84,83,77,105,2.959999999999987,0.22000000000000006,0.35000000000000014,0.15,10,2,6,2,110,9,12,3,3,0.5,20,7,HL,0.02690909090909091,0.024444444444444446,0.029166666666666667,0.049999999999999996
4,20,39,1,2,0.2900000000000001,2,12,83,79,37,52,3.4199999999999773,0.26000000000000006,0.08,0.13999999999999999,4,2,2,2,118,7,3,5,3,0,15,7,HL,0.028983050847457628,0.037142857142857144,0.02666666666666667,0.028
4,20,40,1,7,0.3000000000000001,2,15,90,87,91,114,3.0999999999999845,0.16,0.6000000000000003,0.19000000000000003,4,3,7,3,103,5,18,7,3,0.5,20,7,HL,0.030097087378640777,0.032,0.03333333333333333,0.027142857142857142
4,21,41,1,4,0.23000000000000007,2,7,101,98,48,105,3.0099999999999847,0.4200000000000002,0.2900000000000001,0.2800000000000001,4,2,3,3,92,13,7,14,2,0.5,17,7,HL,0.03271739130434782,0.03230769230769231,0.04142857142857143,0.02
4,21,42,1,8,0.7200000000000004,19,31,111,110,90,55,2.3800000000000017,1.0200000000000007,0.3300000000000001,0.15,20,7,3,2,81,34,12,3,2,0,11,7,HL,0.029382716049382716,0.030000000000000002,0.0275,0.05
5,1,1,0,10,0.26000000000000006,3,6,55,44,14,13,5.089999999999941,1.6300000000000012,0.19000000000000003,0.11999999999999998,20,13,3,2,88,33,3,2,6,0,21,7,HL,0.057840909090909096,0.04939393939393939,0.06333333333333334,0.060000000000000005
5,1,2,0,5,1.0100000000000007,2,26,79,30,34,7,6.049999999999938,0.5100000000000002,1.1300000000000008,0.3900000000000002,20,9,10,6,100,17,22,9,6,0,19,7,HL,0.060500000000000005,0.03,0.05136363636363636,0.043333333333333335
5,2,3,0,5,1.0700000000000007,2,16,41,103,37,108,6.589999999999927,0.16,0.36000000000000015,1.340000000000001,17,2,7,12,94,3,7,20,6,0,14,7,HL,0.0701063829787234,0.05333333333333334,0.05142857142857143,0.067
5,2,4,0,9,0.5400000000000003,11,17,79,35,31,77,7.099999999999905,0.20000000000000004,0.08,0.23000000000000007,20,5,1,5,130,6,1,5,4,0,16,7,HL,0.054615384615384614,0.03333333333333333,0.08,0.046
5,3,5,0,6,0.46000000000000024,2,10,7,39,42,81,6.139999999999923,0.16,0.21000000000000005,0.25000000000000006,20,1,2,2,120,2,2,3,4,0,19,7,HL,0.051166666666666666,0.07999999999999999,0.105,0.08333333333333333
5,3,6,0,10,0.4200000000000002,2,8,27,20,14,21,5.879999999999928,0.5100000000000002,0.9000000000000006,0.3000000000000001,20,7,10,3,106,12,14,4,6,0.5,23,7,HL,0.05547169811320755,0.0425,0.0642857142857143,0.075
5,4,7,0,6,0.48000000000000026,6,8,51,52,54,37,5.229999999999944,0.3100000000000001,0.47000000000000025,1.1200000000000008,20,3,5,12,91,5,8,26,4,0.5,17,7,HL,0.05747252747252748,0.062,0.05875,0.043076923076923075
5,4,8,0,4,1.1300000000000008,15,26,105,1,28,11,6.9799999999999205,0.13999999999999999,0.05,0.45000000000000023,20,1,1,8,129,2,1,14,2,0,19,7,HL,0.05410852713178295,0.06999999999999999,0.05,0.03214285714285714
5,5,9,0,9,0.3200000000000001,4,8,64,66,96,103,4.889999999999947,0.6500000000000004,0.3900000000000002,0.4000000000000002,20,8,5,5,79,13,6,6,4,0,13,7,HL,0.06189873417721519,0.049999999999999996,0.06500000000000002,0.06666666666666668
5,5,10,0,6,0.3300000000000001,2,8,53,3,79,9,5.519999999999934,0.4400000000000002,0.46000000000000024,0.3100000000000001,20,4,3,5,82,7,4,5,4,0,19,7,HL,0.06731707317073171,0.06285714285714286,0.11500000000000002,0.062
5,6,11,0,6,0.38000000000000017,3,12,57,5,55,2,5.25999999999994,0.23000000000000007,0.11999999999999998,0.9300000000000006,20,2,1,10,91,3,1,16,4,0,20,7,HL,0.0578021978021978,0.07666666666666666,0.11999999999999998,0.058124999999999996
5,6,12,0,9,0.15,2,4,31,64,91,67,5.0399999999999405,1.270000000000001,0.7600000000000005,0.26000000000000006,20,13,8,5,61,31,11,6,4,0,16,7,HL,0.08262295081967214,0.04096774193548387,0.06909090909090909,0.04333333333333333
5,7,13,1,9,0.3100000000000001,2,7,33,62,67,35,5.759999999999929,0.8600000000000005,0.5900000000000003,0.08,20,11,9,2,98,17,10,2,4,0,18,7,HL,0.05877551020408164,0.05058823529411765,0.059,0.04
5,7,14,1,10,0.21000000000000005,2,4,19,17,15,23,4.0999999999999615,1.2100000000000009,3.9699999999999593,0.01,17,12,18,1,63,19,61,1,6,1,72,7,HL,0.06507936507936508,0.06368421052631579,0.06508196721311475,0.01
5,8,15,1,7,0.18000000000000002,2,6,92,29,86,60,4.999999999999941,0.6400000000000003,0.15,0.25000000000000006,20,7,4,1,76,9,6,1,3,0,15,7,HL,0.06578947368421054,0.07111111111111111,0.025,0.25000000000000006
5,8,16,1,3,0.7200000000000004,14,19,42,45,40,46,5.229999999999949,0.3200000000000001,1.9700000000000015,0.15,20,5,14,7,95,5,33,7,5,1,60,7,HL,0.05505263157894737,0.064,0.0596969696969697,0.02142857142857143
5,9,17,1,2,0.4100000000000002,8,11,35,81,79,32,6.5599999999999135,0.13999999999999999,0.09999999999999999,0.3900000000000002,20,3,3,4,106,3,3,8,3,0,16,7,HL,0.06188679245283019,0.04666666666666667,0.03333333333333333,0.04875
5,9,18,1,9,0.6300000000000003,11,15,72,47,48,71,6.709999999999916,0.18000000000000002,0.6600000000000004,0.05,20,4,9,1,120,5,9,1,4,0,18,7,HL,0.05591666666666667,0.036,0.07333333333333333,0.05
5,10,19,1,7,0.6400000000000003,13,18,29,92,96,33,6.04999999999993,0.7000000000000004,0.6000000000000003,0.03,20,5,10,1,122,10,17,1,3,0,16,7,HL,0.04959016393442623,0.07,0.03529411764705882,0.03
5,10,20,1,8,0.47000000000000025,10,13,115,116,76,113,5.629999999999935,0.2900000000000001,0.8300000000000005,0.16,20,6,9,4,96,7,13,5,2,0.5,15,7,HL,0.058645833333333335,0.041428571428571426,0.06384615384615384,0.032
5,11,21,1,6,0.15,2,4,98,59,93,54,6.179999999999916,0.17,0.07,0.12999999999999998,20,2,2,2,107,2,3,2,4,0,13,7,HL,0.05775700934579439,0.08499999999999999,0.023333333333333334,0.065
5,11,22,1,2,0.20000000000000004,2,4,25,74,84,111,6.729999999999905,1.0600000000000007,0.6200000000000003,0.7200000000000004,20,11,8,9,106,14,9,16,3,0,13,7,HL,0.06349056603773585,0.07571428571428572,0.06888888888888889,0.045000000000000005
5,12,23,1,7,0.36000000000000015,2,6,93,104,88,95,5.489999999999935,1.330000000000001,0.07,0.2900000000000001,20,12,1,5,101,18,1,6,3,0.5,20,7,HL,0.054356435643564356,0.07388888888888889,0.07,0.04833333333333333
5,12,24,1,5,0.11999999999999998,2,3,9,119,8,47,4.149999999999959,1.7400000000000013,0.35000000000000014,0.7100000000000004,20,15,9,6,71,25,9,11,6,0,19,7,HL,0.05845070422535211,0.0696,0.03888888888888889,0.06454545454545454
5,13,25,1,7,0.7300000000000004,15,23,1,95,5,92,7.2199999999999065,0.060000000000000005,0.09,0.4100000000000002,20,1,3,6,137,1,3,7,3,0,18,7,HL,0.0527007299270073,0.060000000000000005,0.03,0.05857142857142858
5,13,26,1,6,0.2900000000000001,5,9,50,74,52,59,5.079999999999942,0.6700000000000004,0.34000000000000014,0.47000000000000025,20,4,6,6,79,4,7,7,4,0.5,27,7,HL,0.06430379746835443,0.1675,0.04857142857142857,0.06714285714285714
5,14,27,1,5,0.4400000000000002,5,13,11,3,53,2,6.849999999999908,1.0900000000000007,0.3000000000000001,0.07,20,9,4,2,120,16,5,2,6,0.5,40,7,HL,0.05708333333333333,0.068125,0.060000000000000005,0.035
5,14,28,1,10,0.2900000000000001,2,7,14,20,98,25,7.799999999999884,0.02,0.08,0.05,20,1,2,2,145,1,2,2,6,0,19,7,HL,0.05379310344827586,0.02,0.04,0.025
5,15,29,1,5,0.17,2,3,6,9,11,82,6.559999999999908,0.13999999999999999,0.9400000000000006,0.07,20,3,11,1,108,3,14,1,6,0.5,39,7,HL,0.06074074074074074,0.04666666666666667,0.06714285714285714,0.07
5,15,30,1,6,0.5600000000000003,7,9,15,46,90,60,8.649999999999872,0.8300000000000005,0.04,0.01,20,11,1,1,142,15,1,1,4,0,18,7,HL,0.06091549295774648,0.05533333333333333,0.04,0.01
5,16,31,1,3,0.2900000000000001,2,6,48,54,46,57,5.419999999999935,1.5400000000000011,0.03,0.12999999999999998,20,17,1,2,111,33,1,2,5,0,18,7,HL,0.04882882882882883,0.04666666666666667,0.03,0.06499999999999999
5,16,32,1,9,0.9900000000000007,16,24,69,92,11,8,5.059999999999958,0.9300000000000006,0.37000000000000016,0.47000000000000025,20,5,3,7,84,9,4,7,4,0,19,7,HL,0.06023809523809524,0.10333333333333333,0.09250000000000001,0.06714285714285714
5,17,33,1,2,0.34000000000000014,2,8,73,40,12,39,5.899999999999926,0.5900000000000003,0.09,0.10999999999999999,20,10,3,1,95,14,3,1,3,0,19,7,HL,0.06210526315789474,0.04214285714285714,0.03,0.10999999999999999
5,17,34,1,1,0.49000000000000027,8,12,26,92,63,29,6.509999999999916,0.2700000000000001,0.15,0.07,20,7,1,2,123,8,1,2,5,0,17,7,HL,0.05292682926829269,0.03375,0.15,0.035
5,18,35,1,3,1.0100000000000007,3,25,38,42,8,89,6.559999999999927,0.7800000000000005,0.20000000000000004,0.36000000000000015,20,9,4,9,129,17,4,9,5,0,19,7,HL,0.050852713178294574,0.04588235294117647,0.05,0.04
5,18,36,1,8,0.25000000000000006,4,6,75,35,31,116,6.469999999999912,0.22000000000000006,1.0600000000000007,0.4300000000000002,20,3,5,6,95,4,8,6,2,0,15,7,HL,0.06810526315789474,0.055,0.13250000000000003,0.07166666666666667
5,19,37,1,3,0.6200000000000003,5,14,55,53,88,56,6.979999999999909,0.22000000000000006,0.15,0.26000000000000006,20,4,5,6,136,5,7,6,5,0.5,27,7,HL,0.051323529411764705,0.044,0.02142857142857143,0.043333333333333335
5,19,38,1,9,0.17,3,5,67,27,30,62,5.009999999999941,0.12999999999999998,0.5600000000000003,0.8100000000000005,20,2,3,9,83,3,9,16,4,0,18,7,HL,0.06036144578313253,0.043333333333333335,0.06222222222222222,0.050624999999999996
5,20,39,1,3,0.3100000000000001,2,8,45,37,71,76,6.809999999999906,0.07,0.34000000000000014,0.23000000000000007,20,1,4,4,113,1,5,6,5,0,17,7,HL,0.060265486725663724,0.07,0.06799999999999999,0.03833333333333334
5,20,40,1,5,0.20000000000000004,3,6,25,3,8,9,5.359999999999935,0.23000000000000007,0.3000000000000001,0.19000000000000003,20,4,6,4,96,4,7,4,6,0.5,41,7,HL,0.05583333333333333,0.057499999999999996,0.04285714285714286,0.0475
5,21,41,1,10,0.38000000000000017,8,8,62,22,119,24,6.239999999999919,1.6800000000000013,0.13999999999999999,0.08,20,14,4,2,111,31,4,2,6,0,18,7,HL,0.05621621621621622,0.05419354838709677,0.035,0.04
5,21,42,1,6,0.25000000000000006,4,6,44,49,42,53,6.039999999999921,0.5000000000000002,0.09,0.18000000000000002,20,9,2,4,105,10,3,4,4,0,18,7,HL,0.057523809523809526,0.05,0.03,0.045
6,1,1,0,7,0.8100000000000005,2,9,95,91,26,2,6.5999999999999215,0.9400000000000006,0.3000000000000001,0.16,11,3,2,2,59,7,7,2,3,0,17,7,HL,0.11186440677966103,0.13428571428571429,0.04285714285714286,0.07999999999999999
6,1,2,0,2,0.5500000000000003,3,6,102,101,73,68,5.6899999999999356,0.4300000000000002,1.260000000000001,0.34000000000000014,13,2,4,1,49,4,10,1,3,0,11,7,HL,0.11612244897959186,0.10750000000000001,0.12600000000000003,0.34000000000000014
6,2,3,0,8,0.5400000000000003,2,10,86,58,116,24,6.039999999999927,1.7100000000000013,0.21000000000000005,0.20000000000000004,13,5,1,1,43,9,1,1,2,0,15,7,HL,0.1404651162790698,0.19000000000000006,0.21000000000000005,0.20000000000000004
6,2,4,0,4,0.36000000000000015,2,6,8,104,47,9,5.25999999999994,0.8200000000000005,0.8800000000000006,0.6400000000000003,11,2,2,5,38,4,6,8,2,0,19,7,HL,0.13842105263157897,0.20500000000000004,0.1466666666666667,0.08
6,3,5,0,9,1.380000000000001,14,20,39,40,62,11,4.9799999999999685,3.0699999999999785,0.15,0.8600000000000005,20,8,2,5,41,28,3,9,4,0,20,7,HL,0.12146341463414637,0.10964285714285715,0.05,0.09555555555555556
6,3,6,0,1,0.6400000000000003,2,8,28,96,35,26,5.829999999999934,1.0800000000000007,0.3900000000000002,0.25000000000000006,11,4,3,2,51,6,4,2,5,0.5,18,7,HL,0.1143137254901961,0.18000000000000005,0.0975,0.12499999999999999
6,4,7,0,8,1.360000000000001,16,23,110,116,42,117,6.679999999999932,0.7200000000000004,0.5800000000000003,0.15,20,4,4,1,65,8,5,1,2,0.5,11,7,HL,0.10276923076923078,0.09000000000000001,0.116,0.15
6,4,8,0,5,0.6300000000000003,7,8,3,31,91,86,7.609999999999896,0.35000000000000014,0.3000000000000001,0.09,20,2,2,1,61,3,3,1,6,0,17,7,HL,0.12475409836065576,0.11666666666666665,0.09999999999999999,0.09
6,5,9,0,10,0.2800000000000001,3,4,14,20,47,112,4.909999999999946,1.9800000000000015,1.5300000000000011,0.19000000000000003,12,4,7,3,40,16,10,4,6,0,19,7,HL,0.12275000000000003,0.12375000000000001,0.15300000000000002,0.0475
6,5,10,0,4,0.6900000000000004,2,9,4,104,91,32,6.939999999999912,0.5200000000000002,0.18000000000000002,0.18000000000000002,12,3,1,1,52,6,1,1,2,0,16,7,HL,0.1334615384615385,0.08666666666666667,0.18000000000000002,0.18000000000000002
6,6,11,0,7,0.7300000000000004,2,9,40,110,46,45,6.829999999999915,0.34000000000000014,0.37000000000000016,0.9200000000000006,16,1,3,5,54,1,5,6,3,0.5,17,7,HL,0.1264814814814815,0.34000000000000014,0.07400000000000001,0.15333333333333335
6,6,12,0,4,0.5700000000000003,2,9,107,106,101,35,5.799999999999933,2.0899999999999994,0.4000000000000002,0.4000000000000002,12,4,4,5,39,21,6,5,2,0.5,11,7,HL,0.14871794871794874,0.09952380952380954,0.06666666666666667,0.08
6,7,13,1,2,0.34000000000000014,2,5,14,79,111,83,6.119999999999921,0.4100000000000002,0.6500000000000004,0.12999999999999998,11,2,4,1,51,5,7,2,3,0,14,7,HL,0.12000000000000002,0.08199999999999999,0.09285714285714285,0.06499999999999999
6,7,14,1,3,0.9800000000000006,12,15,106,38,95,63,9.64999999999986,0.7200000000000004,0.13999999999999999,0.16,20,4,2,3,85,5,2,3,5,0,14,7,HL,0.1135294117647059,0.14400000000000007,0.07,0.05333333333333334
6,8,15,1,10,0.35000000000000014,2,5,84,53,14,20,6.66999999999991,1.450000000000001,0.08,1.2000000000000008,13,6,1,8,42,17,1,12,6,0,19,7,HL,0.15880952380952384,0.08529411764705883,0.08,0.1
6,8,16,1,9,0.8500000000000005,9,14,39,63,42,97,6.299999999999929,0.4000000000000002,0.48000000000000026,1.9200000000000015,19,2,3,6,51,4,4,13,4,0,16,7,HL,0.12352941176470592,0.1,0.12000000000000001,0.14769230769230773
6,9,17,1,5,0.20000000000000004,2,4,92,88,1,103,6.4899999999999105,0.4200000000000002,1.7300000000000013,0.3000000000000001,13,3,7,2,43,3,12,2,6,0,14,7,HL,0.15093023255813956,0.14,0.1441666666666667,0.15000000000000002
6,9,18,1,10,1.0400000000000007,13,19,45,24,65,44,5.929999999999941,0.22000000000000006,0.5200000000000002,1.5300000000000011,20,2,2,7,54,2,3,13,6,0,20,7,HL,0.10981481481481484,0.11,0.1733333333333334,0.11769230769230771
6,10,19,1,1,0.5200000000000002,2,7,96,101,95,34,6.84999999999991,0.48000000000000026,0.49000000000000027,0.2700000000000001,14,3,3,2,53,3,4,2,5,0,13,7,HL,0.12924528301886795,0.16000000000000003,0.12250000000000001,0.13500000000000004
6,10,20,1,8,0.5900000000000003,7,8,7,9,83,109,5.209999999999946,0.9900000000000007,2.8799999999999826,0.6200000000000003,19,4,7,4,50,6,18,11,2,0,17,7,HL,0.10420000000000001,0.16500000000000006,0.16000000000000003,0.056363636363636366
6,11,21,1,5,0.35000000000000014,2,5,44,4,46,67,7.4099999999998944,0.4200000000000002,0.36000000000000015,0.5400000000000003,14,4,4,4,52,5,7,7,6,0,20,7,HL,0.14250000000000004,0.08399999999999999,0.05142857142857143,0.07714285714285715
6,11,22,1,6,0.2700000000000001,2,3,60,104,57,27,6.979999999999902,0.7900000000000005,0.2800000000000001,0.49000000000000027,12,5,2,1,58,9,2,1,4,0,15,7,HL,0.12034482758620692,0.08777777777777777,0.14,0.49000000000000027
6,12,23,1,5,0.3300000000000001,4,5,5,6,35,105,4.829999999999949,10.419999999999822,1.9100000000000015,0.01,10,18,12,1,29,81,20,1,6,0,19,7,HL,0.16655172413793107,0.128641975308642,0.09550000000000002,0.01
6,12,24,1,6,0.19000000000000003,2,2,13,96,56,86,10.18999999999983,0.03,0.03,0.02,17,1,2,1,72,2,2,1,4,0,16,7,HL,0.1415277777777778,0.015,0.015,0.02
6,13,25,1,9,0.18000000000000002,1,2,102,26,69,63,6.739999999999904,0.24000000000000007,0.17,0.2700000000000001,14,1,1,2,61,2,1,3,4,0,15,7,HL,0.11049180327868853,0.12000000000000001,0.17,0.09
6,13,26,1,3,0.34000000000000014,3,5,47,49,93,59,5.859999999999927,1.1700000000000008,0.38000000000000017,0.4200000000000002,16,3,3,2,52,12,5,2,5,0,16,7,HL,0.11269230769230772,0.09750000000000002,0.076,0.21000000000000005
6,14,27,1,7,0.47000000000000025,2,6,93,62,24,48,5.199999999999944,1.5900000000000012,1.0300000000000007,0.20000000000000004,12,6,6,3,37,15,12,4,3,0,18,7,HL,0.14054054054054058,0.10600000000000001,0.08583333333333333,0.049999999999999996
6,14,28,1,2,0.5000000000000002,5,7,76,57,54,78,6.379999999999919,1.8500000000000014,0.36000000000000015,0.19000000000000003,17,6,2,2,61,14,2,2,3,0,14,7,HL,0.10459016393442624,0.13214285714285715,0.18000000000000002,0.09499999999999999
6,15,29,1,4,0.26000000000000006,2,3,104,30,32,108,4.66999999999995,1.9400000000000015,0.25000000000000006,0.09999999999999999,7,2,2,1,33,16,3,1,2,0,14,7,HL,0.14151515151515154,0.12125000000000001,0.08333333333333333,0.09999999999999999
6,15,30,1,10,0.20000000000000004,2,5,88,22,18,45,3.349999999999977,2.0799999999999996,0.6500000000000004,0.5400000000000003,8,3,2,2,26,18,9,5,6,0,20,7,HL,0.1288461538461539,0.11555555555555556,0.07222222222222222,0.108
6,16,31,1,7,1.1000000000000008,3,12,2,1,37,46,6.059999999999939,1.2000000000000008,0.9700000000000006,0.7400000000000004,18,7,4,6,49,11,6,10,3,0,22,7,HL,0.12367346938775513,0.1090909090909091,0.1616666666666667,0.074
6,16,32,1,2,0.37000000000000016,2,7,82,36,64,34,6.159999999999921,0.2700000000000001,0.9000000000000006,0.34000000000000014,15,2,3,4,49,3,3,4,3,0,17,7,HL,0.12571428571428575,0.09,0.3000000000000001,0.085
6,17,33,1,7,0.7300000000000004,3,10,12,36,6,27,5.849999999999936,0.8900000000000006,0.17,0.36000000000000015,15,2,1,3,58,4,1,6,3,0,22,7,HL,0.10086206896551726,0.22250000000000006,0.17,0.06
6,17,34,1,10,0.2700000000000001,2,5,13,14,65,81,5.619999999999931,3.849999999999962,0.02,0.03,10,11,1,1,52,33,1,2,6,0,19,7,HL,0.1080769230769231,0.11666666666666668,0.02,0.015
6,18,35,1,9,0.45000000000000023,2,6,62,43,66,37,6.7399999999999105,1.260000000000001,0.13999999999999999,0.47000000000000025,16,6,1,3,70,10,1,4,4,0,18,7,HL,0.0962857142857143,0.12600000000000003,0.13999999999999999,0.11750000000000001
6,18,36,1,8,0.9000000000000006,8,11,27,114,20,28,7.6199999999999015,0.09999999999999999,0.7200000000000004,0.09,19,1,4,2,68,1,10,2,2,0,18,7,HL,0.11205882352941178,0.09999999999999999,0.072,0.045000000000000005
6,19,37,1,3,0.6400000000000003,2,7,115,109,37,46,7.519999999999898,0.21000000000000005,0.3100000000000001,0.3900000000000002,17,2,2,3,58,2,2,5,5,0,14,7,HL,0.12965517241379312,0.10499999999999998,0.155,0.078
6,19,38,1,1,0.8800000000000006,5,9,8,72,104,106,6.049999999999935,2.7899999999999845,0.24000000000000007,0.6500000000000004,18,8,2,5,51,21,2,7,5,0,14,7,HL,0.11862745098039217,0.13285714285714287,0.12000000000000002,0.09285714285714287
6,20,39,1,3,0.49000000000000027,4,5,41,65,38,43,4.579999999999957,0.8900000000000006,0.6900000000000004,2.289999999999995,9,6,3,7,34,12,5,22,5,0.5,34,7,HL,0.1347058823529412,0.07416666666666667,0.13800000000000004,0.10409090909090911
6,20,40,1,10,0.48000000000000026,2,5,21,34,16,110,5.919999999999929,0.8000000000000005,0.45000000000000023,0.6000000000000003,9,4,3,2,34,5,4,3,6,0,19,7,HL,0.17411764705882357,0.16000000000000003,0.1125,0.20000000000000004
6,21,41,1,1,0.38000000000000017,3,5,15,26,54,82,15.099999999999731,0.02,0.02,0.01,20,1,2,1,113,1,2,1,5,0,18,7,HL,0.13362831858407082,0.02,0.01,0.01
6,21,42,1,5,0.2700000000000001,4,5,1,110,7,85,5.63999999999993,0.4000000000000002,0.26000000000000006,0.26000000000000006,13,2,2,2,51,3,2,2,6,0,17,7,HL,0.11058823529411767,0.13333333333333336,0.13000000000000003,0.13000000000000003
7,1,1,0,5,0.5200000000000002,3,11,30,7,57,88,3.0699999999999896,0.7800000000000005,0.47000000000000025,0.23000000000000007,6,4,5,3,61,13,9,6,6,0,18,7,HL,0.05032786885245902,0.06,0.05222222222222222,0.03833333333333333
7,1,2,0,8,0.21000000000000005,2,5,116,24,48,79,2.28,0.5500000000000003,0.15,0.060000000000000005,7,2,2,1,43,10,3,1,2,0,16,7,HL,0.05302325581395349,0.055,0.05,0.060000000000000005
7,2,3,0,5,0.38000000000000017,2,9,50,3,101,94,2.7099999999999946,0.6200000000000003,1.0200000000000007,0.7800000000000005,5,4,8,12,48,17,19,22,6,0,15,7,HL,0.05645833333333333,0.036470588235294116,0.053684210526315786,0.035454545454545454
7,2,4,0,8,0.3000000000000001,3,10,37,19,114,109,2.9499999999999877,0.08,0.03,0.05,9,2,1,1,69,3,1,1,2,0,15,7,HL,0.042753623188405795,0.02666666666666667,0.03,0.05
7,3,5,0,4,0.37000000000000016,2,13,101,84,9,103,2.7499999999999933,0.4000000000000002,0.17,0.02,10,5,3,1,62,9,6,1,2,0,13,7,HL,0.04435483870967742,0.044444444444444446,0.028333333333333335,0.02
7,3,6,0,7,0.46000000000000024,3,11,111,57,85,18,2.769999999999995,0.2700000000000001,0.15,0.20000000000000004,10,2,3,3,52,5,5,8,3,0,15,7,HL,0.05326923076923077,0.054,0.03,0.025
7,4,7,0,3,0.47000000000000025,7,15,56,38,15,17,2.370000000000002,0.5400000000000003,0.16,0.09,12,4,2,1,58,11,7,1,5,0,21,7,HL,0.040862068965517244,0.049090909090909095,0.022857142857142857,0.09
7,4,8,0,9,0.16,2,5,62,72,3,98,2.1700000000000013,0.23000000000000007,0.07,0.23000000000000007,6,2,1,3,55,3,1,7,4,0,16,7,HL,0.03945454545454546,0.07666666666666666,0.07,0.032857142857142856
7,5,9,0,3,0.3100000000000001,2,12,50,45,88,100,2.609999999999995,0.09999999999999999,0.23000000000000007,0.05,5,2,2,2,59,3,5,2,5,0,14,7,HL,0.04423728813559322,0.03333333333333333,0.046,0.025
7,5,10,0,5,0.45000000000000023,7,13,116,83,4,36,2.6499999999999972,0.3200000000000001,0.05,0.47000000000000025,14,2,1,4,56,7,1,16,6,0,16,7,HL,0.04732142857142857,0.045714285714285714,0.05,0.029375000000000002
7,6,11,0,9,0.35000000000000014,2,9,61,63,65,6,1.8300000000000012,0.5700000000000003,0.060000000000000005,0.21000000000000005,6,3,1,2,41,13,2,4,4,0.5,18,7,HL,0.04463414634146341,0.04384615384615385,0.03,0.0525
7,6,12,0,6,0.13999999999999999,2,4,25,60,119,54,2.6999999999999895,0.07,0.03,0.09999999999999999,5,2,1,1,57,2,1,1,4,0,15,7,HL,0.04736842105263158,0.035,0.03,0.09999999999999999
7,7,13,1,7,0.5100000000000002,2,14,87,110,113,96,2.1300000000000017,0.4000000000000002,0.3300000000000001,0.11999999999999998,5,2,3,2,49,11,7,5,3,0,10,7,HL,0.04346938775510204,0.03636363636363636,0.047142857142857146,0.024
7,7,14,1,3,0.5100000000000002,11,13,5,37,8,39,2.59,0.23000000000000007,0.11999999999999998,0.12999999999999998,19,3,2,3,53,4,2,4,5,0,22,7,HL,0.04886792452830189,0.057499999999999996,0.06,0.0325
7,8,15,1,9,0.36000000000000015,9,10,64,105,85,61,1.570000000000001,1.2400000000000009,0.35000000000000014,0.060000000000000005,11,6,4,2,38,22,4,2,4,0,13,7,HL,0.041315789473684215,0.056363636363636366,0.0875,0.03
7,8,16,1,2,0.6000000000000003,6,13,10,58,115,5,2.610000000000001,0.22000000000000006,0.19000000000000003,0.07,11,2,2,2,55,6,3,3,3,0,18,7,HL,0.04745454545454546,0.03666666666666667,0.06333333333333334,0.023333333333333334
7,9,17,1,8,0.5700000000000003,2,9,60,88,19,21,2.979999999999993,0.15,0.5000000000000002,0.10999999999999999,11,2,6,2,56,3,10,3,2,0,19,7,HL,0.053214285714285714,0.049999999999999996,0.05,0.03666666666666667
7,9,18,1,3,0.37000000000000016,4,10,37,2,43,7,2.270000000000002,0.5100000000000002,0.20000000000000004,0.09999999999999999,13,3,3,2,55,11,5,4,5,0,22,7,HL,0.04127272727272727,0.046363636363636364,0.04,0.025
7,10,19,1,6,0.49000000000000027,10,14,49,20,53,118,2.849999999999994,0.21000000000000005,0.10999999999999999,0.10999999999999999,18,2,1,4,72,3,1,5,4,0,16,7,HL,0.03958333333333333,0.06999999999999999,0.10999999999999999,0.022
7,10,20,1,3,0.2800000000000001,2,7,2,38,12,43,2.0000000000000013,0.6100000000000003,0.6900000000000004,0.26000000000000006,10,4,7,6,37,13,15,12,5,0,22,7,HL,0.05405405405405406,0.04692307692307693,0.046,0.021666666666666667
7,11,21,1,2,0.7900000000000005,15,24,81,116,28,74,4.5399999999999645,0.03,0.13999999999999999,0.060000000000000005,20,2,2,2,101,2,2,2,3,0,13,7,HL,0.04495049504950495,0.015,0.06999999999999999,0.030000000000000002
7,11,22,1,3,0.16,2,4,43,44,52,92,1.9400000000000013,0.5000000000000002,0.12999999999999998,0.08,5,5,3,1,38,14,4,1,5,0,17,7,HL,0.05105263157894737,0.03571428571428571,0.0325,0.08
7,12,23,1,4,0.15,2,6,97,55,98,84,2.1800000000000006,0.15,0.26000000000000006,0.08,6,2,2,3,47,3,10,5,2,0,11,7,HL,0.04638297872340426,0.049999999999999996,0.026000000000000002,0.016
7,12,24,1,7,0.7600000000000005,17,26,87,90,30,92,2.1600000000000015,0.2800000000000001,0.5600000000000003,0.15,20,4,5,2,51,9,16,5,3,0.5,23,7,HL,0.042352941176470586,0.031111111111111114,0.034999999999999996,0.03
7,13,25,1,5,0.23000000000000007,2,9,60,116,110,113,2.5099999999999953,0.4300000000000002,0.17,0.3900000000000002,8,2,3,5,56,7,6,7,6,0.5,16,7,HL,0.044821428571428575,0.06142857142857142,0.028333333333333335,0.05571428571428571
7,13,26,1,1,0.5100000000000002,5,14,28,79,36,68,2.3000000000000016,0.3000000000000001,0.22000000000000006,0.2900000000000001,10,3,3,3,50,7,6,7,5,0,17,7,HL,0.046,0.04285714285714286,0.03666666666666667,0.04142857142857143
7,14,27,1,2,0.4400000000000002,2,12,56,75,27,80,2.98999999999999,0.24000000000000007,0.46000000000000024,0.02,10,2,6,1,61,3,8,1,3,0,15,7,HL,0.04901639344262295,0.07999999999999999,0.057499999999999996,0.02
7,14,28,1,9,0.5500000000000003,2,17,63,72,88,104,2.520000000000002,1.0400000000000007,0.08,0.04,11,9,1,1,60,21,1,1,4,0,13,7,HL,0.042,0.04952380952380952,0.08,0.04
7,15,29,1,1,0.15,3,3,1,116,96,92,6.269999999999914,0.01,0.01,0.01,20,1,1,1,129,1,1,1,5,0,14,7,HL,0.048604651162790696,0.01,0.01,0.01
7,15,30,1,3,1.0300000000000007,18,28,41,38,14,18,3.1499999999999995,0.20000000000000004,0.8900000000000006,0.4200000000000002,20,2,5,7,64,3,21,12,5,0,22,7,HL,0.04921875,0.06666666666666667,0.04238095238095238,0.034999999999999996
7,16,31,1,6,0.26000000000000006,2,9,1,79,59,102,3.6299999999999724,0.03,0.09,0.01,13,1,3,1,74,1,3,1,4,0,15,7,HL,0.04905405405405405,0.03,0.03,0.01
7,16,32,1,10,0.37000000000000016,2,5,19,16,119,67,2.0800000000000014,3.7299999999999645,0.01,0.01,4,18,1,1,42,77,1,1,6,0,18,7,HL,0.049523809523809526,0.048441558441558445,0.01,0.01
7,17,33,1,2,0.20000000000000004,2,7,78,83,84,113,2.2999999999999994,0.3100000000000001,0.25000000000000006,0.03,4,3,2,1,55,7,4,1,3,0.5,20,7,HL,0.04181818181818182,0.04428571428571428,0.06249999999999999,0.03
7,17,34,1,5,0.48000000000000026,2,13,71,38,4,68,2.989999999999991,0.2900000000000001,0.08,0.03,12,2,2,1,64,10,2,1,6,0,19,7,HL,0.04671875,0.029,0.04,0.03
7,18,35,1,10,0.22000000000000006,2,3,17,70,62,21,2.569999999999994,0.48000000000000026,0.19000000000000003,0.060000000000000005,6,2,5,2,55,11,6,3,6,0,20,7,HL,0.04672727272727273,0.04363636363636364,0.03166666666666667,0.02
7,18,36,1,8,0.22000000000000006,2,9,1,48,37,2,2.5099999999999953,0.6200000000000003,0.04,0.22000000000000006,11,5,1,3,57,19,1,4,2,0,22,7,HL,0.044035087719298247,0.03263157894736842,0.04,0.05499999999999999
7,19,37,1,8,0.3100000000000001,2,9,118,42,46,112,2.320000000000001,0.23000000000000007,0.46000000000000024,0.10999999999999999,8,2,6,2,59,3,9,4,2,0,14,7,HL,0.03932203389830508,0.07666666666666666,0.05111111111111111,0.0275
7,19,38,1,4,0.3200000000000001,5,11,61,100,101,99,2.5099999999999976,0.16,0.21000000000000005,0.07,10,2,4,2,58,3,5,3,2,0.5,16,7,HL,0.04327586206896552,0.05333333333333334,0.042,0.023333333333333334
7,20,39,1,4,0.2900000000000001,2,9,105,89,107,71,2.5299999999999963,0.2800000000000001,0.20000000000000004,0.4200000000000002,10,3,2,3,58,8,4,6,2,0,11,7,HL,0.043620689655172414,0.035,0.049999999999999996,0.07
7,20,40,1,8,0.22000000000000006,2,6,13,117,52,50,2.709999999999991,0.08,0.2800000000000001,0.09999999999999999,13,1,5,2,59,2,6,2,2,0,16,7,HL,0.045932203389830506,0.04,0.04666666666666667,0.05
7,21,41,1,9,0.17,2,6,71,67,115,3,2.6199999999999917,0.09,0.4200000000000002,0.05,8,2,2,1,58,2,5,1,4,0,16,7,HL,0.04517241379310345,0.045000000000000005,0.084,0.05
7,21,42,1,4,0.6800000000000004,15,20,103,107,14,100,3.359999999999987,0.3100000000000001,0.7200000000000004,0.02,20,4,6,1,74,6,14,1,2,0.5,18,7,HL,0.04540540540540541,0.051666666666666666,0.05142857142857143,0.02
7,22,43,1,2,0.2800000000000001,2,5,81,10,111,113,2.1700000000000017,0.36000000000000015,0.26000000000000006,0.03,7,5,2,1,44,6,7,1,3,0,13,7,HL,0.04931818181818182,0.06,0.037142857142857144,0.03
7,22,44,1,7,0.7200000000000004,2,22,69,98,91,99,2.9599999999999964,0.6300000000000003,0.07,0.04,12,10,2,1,72,16,2,1,3,0,11,7,HL,0.04111111111111111,0.039375,0.035,0.04
8,1,1,0,5,2.06,2,9,1,3,92,88,14.749999999999774,0.03,0.01,0.01,18,1,1,1,42,1,1,1,6,0,18,7,HL,0.35119047619047633,0.03,0.01,0.01
8,1,2,0,6,1.390000000000001,3,6,112,49,40,75,5.1199999999999655,0.34000000000000014,0.25000000000000006,0.26000000000000006,8,2,1,1,17,3,1,1,4,0,14,7,HL,0.30117647058823543,0.11333333333333334,0.25000000000000006,0.26000000000000006
8,2,3,0,5,1.0800000000000007,2,6,1,8,3,105,3.9999999999999822,0.6500000000000004,1.490000000000001,0.16,7,2,4,2,14,3,5,2,6,0.5,20,7,HL,0.2857142857142858,0.2166666666666667,0.2980000000000001,0.08
8,2,4,0,10,1.410000000000001,3,6,77,16,40,21,5.189999999999964,0.3000000000000001,0.3200000000000001,0.5200000000000002,9,1,2,2,17,1,2,6,6,0,20,7,HL,0.30529411764705894,0.3000000000000001,0.16000000000000003,0.08666666666666667
8,3,5,0,2,0.3900000000000002,4,4,12,75,105,1,7.829999999999886,0.01,0.08,0.02,9,1,2,1,26,1,2,1,3,0,17,7,HL,0.30115384615384616,0.01,0.04,0.02
8,3,6,0,10,0.8400000000000005,2,4,70,46,20,41,3.9799999999999773,1.0500000000000007,0.24000000000000007,0.35000000000000014,5,2,1,2,9,5,1,2,6,0,20,7,HL,0.44222222222222246,0.21000000000000005,0.24000000000000007,0.17500000000000002
8,4,7,0,6,0.6900000000000004,2,3,95,94,103,98,4.939999999999954,0.34000000000000014,0.5600000000000003,0.19000000000000003,8,1,2,1,20,1,2,1,4,0,10,7,HL,0.2470000000000001,0.34000000000000014,0.2800000000000001,0.19000000000000003
8,4,8,0,8,0.9700000000000006,2,5,112,21,120,25,3.53999999999999,2.07,0.15,0.35000000000000014,5,3,1,1,10,8,1,1,2,0,15,7,HL,0.35400000000000015,0.2587500000000001,0.15,0.35000000000000014
8,5,9,0,9,0.5900000000000003,2,3,72,64,69,22,2.9799999999999933,0.8700000000000006,0.46000000000000024,0.5500000000000003,6,2,2,2,12,2,2,3,4,0.5,18,7,HL,0.24833333333333343,0.4350000000000002,0.23000000000000007,0.1833333333333334
8,5,10,0,3,1.8300000000000014,16,19,43,85,5,2,4.999999999999978,4.059999999999958,0.18000000000000002,0.22000000000000006,20,7,3,2,29,11,4,2,5,0,20,7,HL,0.17241379310344832,0.3690909090909093,0.045,0.11000000000000001
8,6,11,0,6,0.6900000000000004,3,4,113,55,109,74,3.8799999999999764,1.0200000000000007,0.4000000000000002,0.23000000000000007,6,2,1,2,15,2,1,2,4,0,11,7,HL,0.25866666666666677,0.5100000000000002,0.4000000000000002,0.11500000000000002
8,6,12,0,1,0.6000000000000003,2,4,25,90,64,34,2.4600000000000017,1.7800000000000014,0.6400000000000003,0.22000000000000006,6,2,2,1,10,4,2,1,5,0,17,7,HL,0.2460000000000001,0.44500000000000023,0.3200000000000001,0.22000000000000006
8,7,13,1,6,0.9600000000000006,5,6,5,107,52,95,4.92999999999996,0.4100000000000002,0.25000000000000006,0.3100000000000001,11,1,2,1,22,1,2,1,4,0,15,7,HL,0.22409090909090917,0.4100000000000002,0.12500000000000003,0.3100000000000001
8,7,14,1,3,0.7800000000000005,2,7,24,117,72,61,4.5399999999999645,0.4400000000000002,0.36000000000000015,0.5600000000000003,7,1,1,2,17,1,1,3,5,0,16,7,HL,0.26705882352941185,0.4400000000000002,0.36000000000000015,0.1866666666666667
8,8,15,1,8,0.11999999999999998,2,2,4,120,76,26,31.290000000002074,0.01,0.01,0.01,20,1,1,1,79,1,1,1,2,0,16,7,HL,0.39607594936708873,0.01,0.01,0.01
8,8,16,1,6,0.8500000000000005,2,8,19,98,102,96,4.479999999999967,1.400000000000001,0.22000000000000006,0.21000000000000005,6,4,1,1,15,6,1,1,4,0,13,7,HL,0.2986666666666668,0.2333333333333334,0.22000000000000006,0.21000000000000005
8,9,17,1,5,0.9100000000000006,3,5,5,57,31,29,2.660000000000002,1.5200000000000011,3.789999999999963,0.5600000000000003,6,2,6,3,13,3,10,3,6,0,20,7,HL,0.20461538461538467,0.5066666666666669,0.37900000000000017,0.1866666666666667
8,9,18,1,9,1.8400000000000014,8,11,72,70,41,80,3.640000000000003,1.370000000000001,1.0600000000000007,0.13999999999999999,11,2,2,1,19,5,3,1,4,0,16,7,HL,0.19157894736842113,0.27400000000000013,0.3533333333333335,0.13999999999999999
8,10,19,1,6,5.3899999999999295,12,23,6,3,53,116,7.029999999999931,0.5800000000000003,0.6500000000000004,0.46000000000000024,15,1,2,1,26,2,3,1,4,0,18,7,HL,0.2703846153846155,0.2900000000000001,0.2166666666666667,0.46000000000000024
8,10,20,1,4,0.6800000000000004,2,3,39,83,81,23,2.700000000000001,2.1799999999999975,0.4100000000000002,0.12999999999999998,3,2,1,1,6,10,1,1,2,0,17,7,HL,0.4500000000000003,0.21800000000000005,0.4100000000000002,0.12999999999999998
8,11,21,1,1,4.699999999999944,5,21,1,33,29,10,6.719999999999946,0.10999999999999999,1.1500000000000008,0.15,8,2,2,1,29,2,4,1,5,0,22,7,HL,0.23172413793103458,0.05500000000000001,0.2875000000000001,0.15
8,11,22,1,7,0.9300000000000006,9,11,22,110,53,13,4.519999999999968,0.4200000000000002,0.6200000000000003,0.6800000000000004,14,2,2,3,24,3,4,4,3,0,18,7,HL,0.1883333333333334,0.14,0.15500000000000003,0.17000000000000004
8,12,23,1,7,0.7300000000000004,2,4,93,88,112,89,2.770000000000001,0.7000000000000004,0.8400000000000005,0.6100000000000003,6,2,2,3,10,2,3,4,3,0.5,20,7,HL,0.2770000000000001,0.35000000000000014,0.2800000000000001,0.15250000000000002
8,12,24,1,2,2.1199999999999988,10,17,108,69,105,8,6.819999999999943,0.49000000000000027,0.08,0.03,16,3,1,1,31,3,1,1,3,0,14,7,HL,0.22000000000000008,0.16333333333333336,0.08,0.03
8,13,25,1,9,0.6700000000000004,10,10,100,45,92,47,7.9799999999998885,0.8900000000000006,0.01,0.060000000000000005,16,3,1,1,26,4,1,1,4,0,15,7,HL,0.3069230769230769,0.2225000000000001,0.01,0.060000000000000005
8,13,26,1,6,1.360000000000001,2,3,81,56,113,80,5.409999999999959,0.23000000000000007,0.4400000000000002,0.9600000000000006,7,2,2,3,20,3,2,7,4,0,12,7,HL,0.27050000000000013,0.07666666666666667,0.22000000000000003,0.13714285714285715
8,14,27,1,2,2.6399999999999877,8,12,55,109,120,77,9.189999999999893,0.4300000000000002,0.5300000000000002,0.11999999999999998,18,2,2,2,32,2,2,2,3,0,11,7,HL,0.28718750000000015,0.21500000000000005,0.2650000000000001,0.06
8,14,28,1,3,1.0800000000000007,9,11,45,63,43,95,2.3000000000000016,2.679999999999987,0.3000000000000001,0.49000000000000027,11,4,1,2,13,8,1,3,5,0,17,7,HL,0.176923076923077,0.33500000000000013,0.3000000000000001,0.16333333333333336
8,15,29,1,8,2.5499999999999896,12,14,117,4,8,81,3.7299999999999907,0.47000000000000025,7.439999999999886,0.01,15,2,9,1,19,4,18,1,2,0,17,7,HL,0.19631578947368428,0.11750000000000001,0.41333333333333355,0.01
8,15,30,1,10,0.6100000000000003,2,7,36,108,70,23,4.279999999999966,1.480000000000001,0.15,0.05,7,4,1,1,19,7,1,1,6,0,17,7,HL,0.22526315789473694,0.2114285714285715,0.15,0.05
8,16,31,1,6,3.6299999999999666,8,17,11,2,98,85,5.919999999999962,0.8900000000000006,0.8900000000000006,0.48000000000000026,12,2,2,1,28,4,3,1,4,0,17,7,HL,0.21142857142857152,0.22250000000000006,0.29666666666666675,0.48000000000000026
8,16,32,1,10,1.2300000000000009,2,7,19,18,14,67,4.889999999999967,1.1400000000000008,2.3299999999999943,0.22000000000000006,6,3,5,1,13,5,6,1,6,0.5,40,7,HL,0.37615384615384634,0.22800000000000006,0.38833333333333353,0.22000000000000006
8,17,33,1,6,0.8700000000000006,2,5,58,73,57,99,1.7900000000000011,2.0300000000000007,0.4100000000000002,0.4400000000000002,4,5,1,2,7,13,1,2,4,0,13,7,HL,0.25571428571428584,0.1561538461538462,0.4100000000000002,0.22000000000000006
8,17,34,1,7,1.2100000000000009,13,16,91,22,32,94,2.520000000000002,2.07,0.4400000000000002,0.7000000000000004,15,4,2,2,19,5,2,2,3,0,17,7,HL,0.13263157894736846,0.4140000000000002,0.22000000000000003,0.35000000000000014
8,18,35,1,2,1.6600000000000013,14,17,115,9,62,33,4.6599999999999815,0.46000000000000024,2.5099999999999905,0.17,17,2,4,2,22,2,6,2,3,0,17,7,HL,0.2118181818181819,0.23000000000000007,0.41833333333333356,0.08499999999999999
8,18,36,1,3,0.8100000000000005,2,5,44,54,18,16,1.9600000000000013,2.9299999999999815,0.25000000000000006,0.20000000000000004,4,5,1,1,7,10,1,1,5,0,21,7,HL,0.28000000000000014,0.29300000000000015,0.25000000000000006,0.20000000000000004
8,19,37,1,2,1.6200000000000012,3,6,11,27,83,59,3.7799999999999994,0.7900000000000005,0.3200000000000001,1.1400000000000008,6,2,1,3,13,2,1,4,3,0,18,7,HL,0.2907692307692309,0.39500000000000024,0.3200000000000001,0.2850000000000001
8,19,38,1,3,1.400000000000001,16,18,43,21,118,90,2.780000000000002,0.9000000000000006,0.5300000000000002,0.7800000000000005,18,1,1,2,22,1,1,2,5,0,16,7,HL,0.1263636363636364,0.9000000000000006,0.5300000000000002,0.39000000000000024
8,20,39,1,8,0.5100000000000002,1,2,68,114,5,37,4.799999999999953,0.24000000000000007,0.9400000000000006,0.25000000000000006,8,2,3,1,15,2,4,1,2,0,17,7,HL,0.3200000000000002,0.12000000000000002,0.23500000000000007,0.25000000000000006
8,20,40,1,6,1.9300000000000015,15,23,85,30,54,49,4.4799999999999915,0.6100000000000003,0.12999999999999998,0.38000000000000017,19,1,1,2,29,1,1,2,4,0,16,7,HL,0.1544827586206897,0.6100000000000003,0.12999999999999998,0.19000000000000003
8,21,41,1,7,0.9100000000000006,3,4,12,92,90,109,3.189999999999996,1.440000000000001,0.23000000000000007,0.5400000000000003,7,2,1,2,8,7,1,3,3,0,14,7,HL,0.3987500000000002,0.2057142857142858,0.23000000000000007,0.18000000000000005
8,21,42,1,9,0.7500000000000004,2,5,70,61,80,72,3.399999999999988,2.299999999999995,0.2700000000000001,0.05,4,4,1,1,12,7,1,1,4,0.5,27,7,HL,0.28333333333333344,0.32857142857142874,0.2700000000000001,0.05
9,1,1,0,4,1.1900000000000008,3,5,103,56,92,104,2.570000000000002,0.6500000000000004,1.7100000000000013,0.5200000000000002,5,2,5,2,7,2,5,2,2,0,11,7,HL,0.3671428571428573,0.3250000000000001,0.34200000000000014,0.26000000000000006
9,1,2,0,8,0.6200000000000003,2,4,84,75,61,36,2.520000000000002,0.7000000000000004,1.1100000000000008,0.2700000000000001,5,2,2,2,9,2,3,2,2,0,15,7,HL,0.28000000000000014,0.3500000000000002,0.37000000000000016,0.13500000000000004
9,2,3,0,6,1.1600000000000008,4,6,40,79,116,48,2.4700000000000015,1.340000000000001,1.1800000000000008,0.5400000000000003,5,2,2,3,7,5,2,3,4,0,15,7,HL,0.35285714285714304,0.2680000000000001,0.5900000000000003,0.18000000000000005
9,2,4,0,9,1.0800000000000007,7,8,90,108,93,87,3.909999999999984,0.2900000000000001,0.4100000000000002,0.2900000000000001,12,1,2,1,14,1,2,1,4,0.5,11,7,HL,0.2792857142857144,0.2900000000000001,0.20500000000000004,0.2900000000000001
9,3,5,0,2,0.8300000000000005,2,3,72,10,84,65,4.539999999999965,0.35000000000000014,0.19000000000000003,0.36000000000000015,9,1,1,1,12,1,1,1,3,0,17,7,HL,0.3783333333333335,0.35000000000000014,0.19000000000000003,0.36000000000000015
9,3,6,0,6,1.6100000000000012,6,11,98,100,41,22,4.089999999999993,0.3900000000000002,0.38000000000000017,0.8600000000000005,11,2,1,2,16,3,1,3,4,0,15,7,HL,0.2556250000000001,0.13000000000000003,0.38000000000000017,0.28666666666666674
9,4,7,0,7,1.0600000000000007,2,7,110,11,6,28,4.359999999999975,0.3900000000000002,0.45000000000000023,0.4400000000000002,7,1,3,2,16,1,5,3,3,0,19,7,HL,0.27250000000000013,0.3900000000000002,0.09000000000000001,0.14666666666666667
9,4,8,0,2,2.020000000000001,6,12,104,107,54,13,2.9300000000000015,2.4099999999999926,1.430000000000001,0.2900000000000001,7,4,2,1,13,5,6,1,3,0,14,7,HL,0.22538461538461546,0.4820000000000002,0.2383333333333334,0.2900000000000001
9,5,9,0,3,1.360000000000001,3,9,6,41,54,59,4.269999999999983,0.6800000000000004,0.3200000000000001,0.36000000000000015,8,3,1,2,18,5,1,2,5,0,19,7,HL,0.2372222222222223,0.136,0.3200000000000001,0.18000000000000002
9,5,10,0,1,0.8500000000000005,2,5,34,74,81,20,3.9099999999999793,0.7200000000000004,1.7000000000000013,0.3000000000000001,6,4,4,1,10,5,6,1,5,0,17,7,HL,0.3910000000000002,0.14400000000000002,0.28333333333333344,0.3000000000000001
9,6,11,0,8,0.9200000000000006,2,5,120,83,41,43,2.4200000000000017,1.6700000000000013,0.38000000000000017,0.3100000000000001,6,3,1,1,11,4,1,1,2,0,15,7,HL,0.22000000000000008,0.4175000000000002,0.38000000000000017,0.3100000000000001
9,6,12,0,9,0.3000000000000001,5,5,103,15,18,105,6.60999999999991,0.4200000000000002,0.11999999999999998,0.22000000000000006,9,3,2,2,15,4,2,2,4,0,16,7,HL,0.44066666666666543,0.10500000000000001,0.060000000000000005,0.11000000000000001
9,7,13,1,7,0.8400000000000005,2,4,92,24,95,90,2.1000000000000014,2.3799999999999932,1.340000000000001,0.13999999999999999,5,6,4,1,8,8,6,1,3,0.5,24,7,HL,0.2625000000000001,0.2975000000000001,0.22333333333333338,0.13999999999999999
9,7,14,1,6,0.5400000000000003,2,3,39,2,75,3,4.249999999999965,0.2700000000000001,0.25000000000000006,0.17,9,1,1,1,15,1,1,1,4,0,20,7,HL,0.28333333333333344,0.2700000000000001,0.25000000000000006,0.17
9,8,15,1,6,1.1800000000000008,2,4,44,42,19,58,2.7500000000000018,1.0400000000000007,1.1100000000000008,0.13999999999999999,5,2,2,2,7,2,3,2,4,0,20,7,HL,0.392857142857143,0.5200000000000002,0.37000000000000016,0.06999999999999999
9,8,16,1,2,1.2100000000000009,13,15,25,5,116,113,6.3599999999999355,1.360000000000001,0.09,0.04,20,3,1,1,30,3,1,1,3,0,15,7,HL,0.21200000000000008,0.4533333333333336,0.09,0.04
9,9,17,1,8,0.6500000000000004,2,4,109,36,93,50,1.660000000000001,1.6900000000000013,1.5300000000000011,0.25000000000000006,4,3,3,1,6,3,5,1,2,0,14,7,HL,0.2766666666666668,0.5633333333333337,0.3060000000000001,0.25000000000000006
9,9,18,1,3,1.1900000000000008,2,9,15,77,83,80,2.490000000000002,1.8700000000000014,0.46000000000000024,0.47000000000000025,4,4,1,2,13,8,1,2,5,0.5,24,7,HL,0.1915384615384616,0.23375000000000007,0.46000000000000024,0.23500000000000004
9,10,19,1,4,0.6100000000000003,2,4,9,35,2,83,3.5599999999999814,0.5400000000000003,0.7100000000000004,0.38000000000000017,6,1,2,2,14,1,3,2,2,0,20,7,HL,0.2542857142857144,0.5400000000000003,0.23666666666666675,0.19000000000000003
9,10,20,1,3,0.6900000000000004,2,3,41,23,18,94,4.589999999999961,0.22000000000000006,0.45000000000000023,0.8800000000000006,9,1,2,2,14,1,2,2,5,0,20,7,HL,0.327857142857143,0.22000000000000006,0.22500000000000003,0.4400000000000002
9,11,21,1,9,0.6500000000000004,2,5,9,69,5,7,3.2599999999999887,0.8100000000000005,0.8200000000000005,0.5600000000000003,6,2,3,2,11,2,5,3,4,0.5,40,7,HL,0.2963636363636365,0.40500000000000014,0.16400000000000006,0.1866666666666667
9,11,22,1,2,0.24000000000000007,2,2,14,120,30,17,10.659999999999823,0.03,0.01,0.02,12,1,1,1,20,1,1,1,3,0,19,7,HL,0.5330000000000004,0.03,0.01,0.02
9,12,23,1,10,0.8200000000000005,12,12,18,68,64,14,6.309999999999928,0.16,0.20000000000000004,1.370000000000001,18,1,1,2,20,1,1,3,6,0,20,7,HL,0.31550000000000017,0.16,0.20000000000000004,0.45666666666666694
9,12,24,1,3,0.7700000000000005,2,5,43,40,75,44,2.0100000000000016,0.6900000000000004,0.5700000000000003,3.759999999999964,4,1,1,7,7,1,1,8,5,0.5,33,7,HL,0.28714285714285726,0.6900000000000004,0.5700000000000003,0.47000000000000025
9,13,25,1,6,1.0300000000000007,11,12,16,15,36,51,2.7500000000000018,52.45999999999813,4.209999999999955,0.01,14,19,6,1,15,86,8,1,4,0,21,7,HL,0.1833333333333334,0.6099999999999998,0.526249999999999,0.01
9,13,26,1,8,0.6400000000000003,2,3,116,110,9,7,1.720000000000001,2.8799999999999826,0.5000000000000002,8.569999999999862,4,7,2,9,5,9,2,18,2,0,16,7,HL,0.3440000000000002,0.3200000000000001,0.2500000000000001,0.4761111111111109
9,14,27,1,1,0.7500000000000004,2,4,21,25,73,67,3.30999999999999,0.46000000000000024,1.9400000000000015,0.5700000000000003,6,2,5,2,10,2,6,2,5,0,18,7,HL,0.3310000000000001,0.23000000000000007,0.3233333333333335,0.2850000000000001
9,14,28,1,6,1.260000000000001,8,10,58,41,10,117,2.1900000000000013,0.9800000000000006,4.329999999999952,0.4000000000000002,10,2,5,2,12,2,8,2,4,0,17,7,HL,0.18250000000000005,0.4900000000000003,0.5412500000000003,0.2
9,15,29,1,4,0.2900000000000001,3,3,1,5,46,40,6.429999999999914,2.619999999999988,0.01,0.01,9,3,1,1,12,3,1,1,2,0,22,7,HL,0.535833333333333,0.8733333333333302,0.01,0.01
9,15,30,1,8,0.21000000000000005,2,2,13,69,28,120,10.679999999999822,0.03,0.04,0.01,13,1,1,1,27,1,1,1,2,0,17,7,HL,0.39555555555555577,0.03,0.04,0.01
9,16,31,1,9,0.5700000000000003,2,3,40,20,21,82,3.5499999999999807,0.9200000000000006,0.4200000000000002,0.19000000000000003,7,1,1,1,10,1,1,1,4,0,20,7,HL,0.35500000000000015,0.9200000000000006,0.4200000000000002,0.19000000000000003
9,16,32,1,5,0.6500000000000004,2,3,10,3,26,53,3.18999999999999,1.8500000000000014,3.4999999999999694,0.5000000000000002,5,5,4,2,9,5,7,2,6,0,21,7,HL,0.3544444444444446,0.37000000000000016,0.5000000000000002,0.25000000000000006
9,17,33,1,8,0.5600000000000003,7,7,109,15,119,113,11.009999999999822,0.47000000000000025,0.6300000000000003,2.249999999999996,17,4,2,6,22,4,2,7,2,0.5,18,7,HL,0.5004545454545455,0.11750000000000002,0.31500000000000017,0.32142857142857156
9,17,34,1,2,0.8900000000000006,9,10,2,103,107,74,8.339999999999886,0.49000000000000027,5.549999999999926,0.34000000000000014,16,3,10,2,23,3,10,2,3,0,13,7,HL,0.3626086956521741,0.16333333333333333,0.5550000000000004,0.17000000000000007
9,18,35,1,1,0.8400000000000005,9,10,75,25,99,14,5.079999999999955,4.289999999999953,0.17,1.490000000000001,16,9,1,3,20,12,1,3,5,0,16,7,HL,0.2540000000000001,0.35750000000000015,0.17,0.496666666666667
9,18,36,1,8,1.2500000000000009,2,6,114,2,47,53,2.580000000000002,1.270000000000001,1.6300000000000012,0.8600000000000005,5,2,3,2,12,4,3,2,2,0,17,7,HL,0.21500000000000005,0.3175000000000001,0.5433333333333337,0.4300000000000002
9,19,37,1,6,1.5600000000000012,13,17,54,49,77,22,2.330000000000002,3.3499999999999726,0.23000000000000007,0.7500000000000004,14,6,1,1,18,8,1,1,4,0,17,7,HL,0.12944444444444447,0.41875000000000023,0.23000000000000007,0.7500000000000004
9,19,38,1,9,0.5200000000000002,2,3,10,2,69,5,3.8799999999999724,0.4100000000000002,1.400000000000001,0.3900000000000002,8,1,4,2,11,1,5,2,4,0.5,40,7,HL,0.3527272727272729,0.4100000000000002,0.28000000000000014,0.19500000000000003
9,20,39,1,9,0.7600000000000005,8,9,61,68,107,87,3.8799999999999777,4.009999999999959,1.310000000000001,2.9699999999999807,13,6,3,2,19,9,3,2,4,0,13,7,HL,0.20421052631578954,0.44555555555555515,0.4366666666666669,1.4849999999999903
9,20,40,1,2,0.7000000000000004,2,4,38,12,80,73,4.459999999999964,0.2800000000000001,0.13999999999999999,0.19000000000000003,7,1,1,1,12,1,1,1,3,0,17,7,HL,0.3716666666666668,0.2800000000000001,0.13999999999999999,0.19000000000000003
9,21,41,1,9,1.2100000000000009,6,9,69,62,66,94,2.2000000000000015,1.2000000000000008,1.2300000000000009,1.0900000000000007,8,3,3,2,11,5,3,5,4,0.5,27,7,HL,0.20000000000000007,0.24000000000000007,0.4100000000000002,0.21800000000000005
9,21,42,1,6,0.6000000000000003,2,4,49,34,14,28,1.510000000000001,3.0199999999999796,0.5300000000000002,0.37000000000000016,4,4,2,1,6,6,3,1,4,0,20,7,HL,0.2516666666666668,0.5033333333333336,0.1766666666666667,0.37000000000000016
10,1,1,0,2,0.3300000000000001,2,2,2,63,118,12,11.30999999999981,0.01,0.01,0.01,13,1,1,1,31,1,1,1,3,0,18,7,HL,0.36483870967741955,0.01,0.01,0.01
10,1,2,0,4,1.2300000000000009,3,7,106,86,94,92,3.230000000000002,0.8100000000000005,0.38000000000000017,1.0700000000000007,7,1,1,3,13,1,1,8,2,0.5,11,7,HL,0.24846153846153857,0.8100000000000005,0.38000000000000017,0.13375000000000004
10,2,3,0,9,0.23000000000000007,2,2,3,91,27,25,12.019999999999794,0.01,0.01,0.01,17,1,1,1,37,1,1,1,4,0,19,7,HL,0.324864864864865,0.01,0.01,0.01
10,2,4,0,10,0.2800000000000001,3,3,84,108,13,49,10.929999999999817,0.8000000000000005,3.2599999999999745,0.01,17,2,4,1,26,2,4,1,6,0,15,7,HL,0.42038461538461563,0.40000000000000024,0.8150000000000005,0.01
10,3,5,0,4,1.0600000000000007,2,6,87,53,100,105,3.689999999999989,0.6300000000000003,0.5100000000000002,0.5800000000000003,6,1,1,3,11,1,1,5,2,0,11,7,HL,0.3354545454545456,0.6300000000000003,0.5100000000000002,0.11600000000000002
10,3,6,0,8,1.290000000000001,9,11,83,63,24,20,4.449999999999978,2.0899999999999994,0.11999999999999998,0.13999999999999999,14,3,1,2,17,4,1,2,2,0,19,7,HL,0.26176470588235307,0.5225000000000003,0.11999999999999998,0.06999999999999999
10,4,7,0,8,0.9600000000000006,2,4,118,114,21,50,3.8099999999999836,0.6200000000000003,0.5600000000000003,0.38000000000000017,6,2,2,2,13,2,3,4,2,0,14,7,HL,0.2930769230769232,0.3100000000000001,0.18666666666666673,0.095
10,4,8,0,3,0.5800000000000003,2,3,107,100,7,42,2.030000000000001,2.3199999999999945,0.8400000000000005,0.17,4,7,2,1,7,10,2,1,5,0,15,7,HL,0.29000000000000015,0.23200000000000007,0.4200000000000002,0.17
10,5,9,0,9,1.500000000000001,2,8,69,96,26,61,2.2600000000000016,1.9200000000000015,0.7200000000000004,0.24000000000000007,4,3,1,1,11,3,1,1,4,0,16,7,HL,0.20545454545454553,0.6400000000000003,0.7200000000000004,0.24000000000000007
10,5,10,0,3,0.5400000000000003,2,4,40,97,51,13,2.759999999999997,1.2000000000000008,0.7600000000000005,0.3100000000000001,6,5,2,1,12,6,2,1,5,0,17,7,HL,0.2300000000000001,0.20000000000000007,0.38000000000000017,0.3100000000000001
10,6,11,0,7,0.5500000000000003,2,3,93,89,66,116,2.1000000000000014,2.149999999999998,3.179999999999976,0.09999999999999999,5,6,5,1,8,6,5,1,3,0,12,7,HL,0.2625000000000001,0.3583333333333335,0.6360000000000005,0.09999999999999999
10,6,12,0,10,0.8100000000000005,3,6,14,15,16,59,17.189999999999763,4.389999999999951,0.01,0.01,19,7,1,1,36,9,1,1,6,0.5,22,7,HL,0.4775000000000002,0.48777777777777803,0.01,0.01
10,7,13,1,4,0.9200000000000006,3,5,64,102,61,73,3.2599999999999945,1.2200000000000009,1.9600000000000015,0.08,8,5,5,1,13,5,7,1,2,0,13,7,HL,0.25076923076923086,0.24400000000000008,0.28000000000000014,0.08
10,7,14,1,7,0.8500000000000005,2,6,89,21,113,94,2.4000000000000017,1.6800000000000013,1.0500000000000007,0.18000000000000002,4,5,1,1,11,6,1,1,3,0,14,7,HL,0.21818181818181825,0.2800000000000001,1.0500000000000007,0.18000000000000002
10,8,15,1,10,0.5900000000000003,3,3,44,51,114,60,9.179999999999861,0.01,0.05,1.7600000000000013,15,1,1,4,20,1,1,5,6,0,15,7,HL,0.45900000000000024,0.01,0.05,0.3520000000000002
10,8,16,1,2,0.6500000000000004,2,5,78,102,100,34,3.799999999999977,2.289999999999995,0.16,0.8100000000000005,8,4,1,2,15,7,1,2,3,0,12,7,HL,0.25333333333333347,0.3271428571428573,0.16,0.40500000000000014
10,9,17,1,4,0.5400000000000003,2,3,107,97,74,104,3.149999999999989,1.1600000000000008,0.3200000000000001,0.4300000000000002,5,2,1,2,9,3,1,2,2,0.5,15,7,HL,0.3500000000000002,0.3866666666666668,0.3200000000000001,0.21500000000000002
10,9,18,1,3,0.6000000000000003,7,7,37,92,43,109,9.769999999999849,0.36000000000000015,0.01,0.060000000000000005,18,2,1,1,29,2,1,1,5,0,15,7,HL,0.3368965517241381,0.18000000000000005,0.01,0.060000000000000005
10,10,19,1,9,0.3900000000000002,2,3,20,17,70,100,4.789999999999951,2.109999999999999,0.38000000000000017,0.19000000000000003,7,4,2,1,17,6,2,1,4,0,18,7,HL,0.28176470588235303,0.35166666666666685,0.19000000000000003,0.19000000000000003
10,10,20,1,6,1.300000000000001,11,15,55,116,1,7,2.2400000000000015,2.5999999999999885,0.8800000000000006,2.4699999999999913,12,4,2,6,16,4,2,6,4,0,18,7,HL,0.14000000000000004,0.6500000000000005,0.4400000000000002,0.4116666666666669
10,11,21,1,2,1.1900000000000008,2,7,74,64,73,113,3.8299999999999885,2.209999999999997,0.11999999999999998,1.1600000000000008,10,4,1,3,16,4,1,3,3,0,12,7,HL,0.2393750000000001,0.5525000000000003,0.11999999999999998,0.3866666666666669
10,11,22,1,7,1.0300000000000007,3,5,102,48,4,44,4.589999999999969,0.8300000000000005,0.7800000000000005,0.5200000000000002,9,1,2,1,16,1,2,1,3,0,18,7,HL,0.2868750000000001,0.8300000000000005,0.3900000000000002,0.5200000000000002
10,12,23,1,3,0.5800000000000003,2,3,42,48,70,71,2.9699999999999935,1.1300000000000008,0.7600000000000005,0.3300000000000001,5,3,3,1,7,6,4,1,5,0,18,7,HL,0.42428571428571454,0.18833333333333335,0.19000000000000006,0.3300000000000001
10,12,24,1,8,0.5900000000000003,2,3,94,85,117,5,4.52999999999996,1.0900000000000007,1.2100000000000009,0.25000000000000006,9,3,3,2,12,4,3,3,2,0,14,7,HL,0.37750000000000017,0.27250000000000013,0.40333333333333354,0.08333333333333333
10,13,25,1,9,0.5200000000000002,2,4,40,66,74,71,3.2599999999999856,0.5100000000000002,1.260000000000001,0.9200000000000006,5,2,2,2,8,2,2,2,4,0,16,7,HL,0.4075000000000002,0.25500000000000006,0.6300000000000004,0.46000000000000024
10,13,26,1,7,0.4000000000000002,2,3,91,112,10,4,3.979999999999968,0.9600000000000006,0.22000000000000006,1.320000000000001,8,4,1,4,12,6,1,4,3,0,17,7,HL,0.33166666666666683,0.16000000000000003,0.22000000000000006,0.3300000000000002
10,14,27,1,8,0.7800000000000005,2,5,117,80,60,55,3.3099999999999907,3.2599999999999745,0.09,0.4200000000000002,5,3,1,1,9,4,1,1,2,0,13,7,HL,0.367777777777778,0.8150000000000005,0.09,0.4200000000000002
10,14,28,1,10,0.9300000000000006,9,10,93,86,23,87,3.6199999999999872,1.1200000000000008,2.020000000000001,0.09,12,2,4,1,14,2,4,1,6,0.5,24,7,HL,0.2585714285714287,0.5600000000000003,0.5050000000000003,0.09
10,15,29,1,2,0.47000000000000025,2,3,78,115,5,77,2.769999999999995,2.1199999999999988,0.3900000000000002,0.09999999999999999,6,4,1,1,12,8,1,1,3,0,14,7,HL,0.23083333333333342,0.2650000000000001,0.3900000000000002,0.09999999999999999
10,15,30,1,10,1.2400000000000009,15,19,24,19,18,22,3.3599999999999994,4.949999999999939,0.8500000000000005,0.10999999999999999,19,9,6,2,25,16,6,2,6,1,72,7,HL,0.13440000000000005,0.3093750000000001,0.1416666666666667,0.055
10,16,31,1,6,1.7500000000000013,2,4,48,56,38,44,4.419999999999988,1.330000000000001,0.9500000000000006,0.35000000000000014,7,3,3,2,9,6,3,2,4,0.5,34,7,HL,0.4911111111111114,0.22166666666666673,0.3166666666666668,0.17500000000000002
10,16,32,1,4,0.6900000000000004,9,9,25,100,84,61,10.909999999999826,0.5700000000000003,0.38000000000000017,1.1500000000000008,20,4,2,2,40,4,2,2,2,0,14,7,HL,0.2727500000000001,0.14250000000000007,0.19000000000000006,0.5750000000000004
10,17,33,1,1,0.4100000000000002,2,3,108,64,102,62,2.5499999999999985,0.6000000000000003,0.5000000000000002,0.38000000000000017,7,1,2,1,10,1,2,1,5,0,12,7,HL,0.2550000000000001,0.6000000000000003,0.25000000000000006,0.38000000000000017
10,17,34,1,8,0.6200000000000003,3,3,1,110,114,11,15.44999999999973,0.7600000000000005,0.01,0.01,20,2,1,1,38,2,1,1,2,0,16,7,HL,0.40657894736842093,0.3800000000000002,0.01,0.01
10,18,35,1,10,0.8400000000000005,5,7,63,22,119,15,4.569999999999965,0.6600000000000004,0.6400000000000003,3.9999999999999587,10,2,3,6,14,2,3,10,6,0,18,7,HL,0.32642857142857157,0.3300000000000001,0.2133333333333334,0.4000000000000002
10,18,36,1,1,0.5300000000000002,2,5,30,29,31,6,2.070000000000001,0.8600000000000005,0.6600000000000004,1.0100000000000007,5,2,3,3,9,5,3,5,5,0.5,36,7,HL,0.23000000000000007,0.17200000000000004,0.22000000000000006,0.20200000000000007
10,19,37,1,7,0.5600000000000003,3,7,64,116,17,92,2.989999999999992,1.0000000000000007,0.7800000000000005,0.11999999999999998,6,2,3,1,12,2,4,1,3,0,15,7,HL,0.2491666666666668,0.5000000000000002,0.19500000000000006,0.11999999999999998
10,19,38,1,1,0.7400000000000004,2,4,108,25,60,54,4.68999999999996,0.17,0.3000000000000001,1.9800000000000015,5,1,2,2,9,1,2,3,5,0,15,7,HL,0.5211111111111114,0.17,0.15000000000000005,0.6600000000000004
10,20,39,1,7,0.46000000000000024,2,4,104,30,97,95,4.609999999999956,0.8100000000000005,0.2900000000000001,0.12999999999999998,10,2,3,2,17,3,3,2,3,0,12,7,HL,0.2711764705882354,0.2700000000000001,0.09666666666666666,0.065
10,20,40,1,2,0.5800000000000003,2,3,21,16,77,119,4.129999999999969,1.8000000000000014,0.10999999999999999,0.22000000000000006,5,2,1,1,8,4,1,1,3,0,17,7,HL,0.5162500000000003,0.45000000000000023,0.10999999999999999,0.22000000000000006
10,21,41,1,5,0.6800000000000004,2,6,36,89,34,4,3.3799999999999866,0.5600000000000003,0.6800000000000004,0.37000000000000016,5,1,1,2,12,1,1,2,6,0,19,7,HL,0.2816666666666668,0.5600000000000003,0.6800000000000004,0.18500000000000003
10,21,42,1,2,0.3100000000000001,3,3,15,52,75,21,6.14999999999992,0.3000000000000001,0.22000000000000006,0.2900000000000001,11,1,2,3,17,1,2,3,3,0,19,7,HL,0.3617647058823531,0.3000000000000001,0.11000000000000001,0.09666666666666666
11,1,1,0,5,0.6600000000000004,2,3,83,50,5,6,6.639999999999917,0.34000000000000014,1.8800000000000014,0.7800000000000005,11,2,3,4,22,2,5,6,6,0,19,7,HL,0.30181818181818193,0.17000000000000004,0.3760000000000002,0.13000000000000003
11,1,2,0,10,0.5800000000000003,3,4,13,14,34,29,3.839999999999975,3.659999999999966,0.24000000000000007,0.24000000000000007,9,5,1,1,18,9,1,1,6,0,22,7,HL,0.2133333333333334,0.4066666666666669,0.24000000000000007,0.24000000000000007
11,2,3,0,4,0.5400000000000003,2,4,48,3,41,101,2.63,1.260000000000001,1.260000000000001,0.7700000000000005,5,3,3,2,9,3,3,4,2,0,18,7,HL,0.2922222222222224,0.4200000000000002,0.42000000000000015,0.19250000000000006
11,2,4,0,10,0.7700000000000005,4,7,15,27,114,35,4.609999999999962,0.9300000000000006,3.749999999999964,0.17,11,3,7,1,22,5,11,1,6,0,18,7,HL,0.20954545454545462,0.18600000000000008,0.34090909090909105,0.17
11,3,5,0,6,0.7900000000000005,2,6,113,109,51,24,5.389999999999947,0.6700000000000004,0.9300000000000006,0.9700000000000006,7,2,3,2,23,2,5,5,4,0,14,7,HL,0.2343478260869566,0.3350000000000002,0.18600000000000003,0.19400000000000003
11,3,6,0,5,1.260000000000001,2,8,73,9,40,38,4.199999999999982,0.6200000000000003,1.2200000000000009,2.289999999999995,7,1,3,3,19,2,7,6,6,0,19,7,HL,0.22105263157894744,0.3100000000000001,0.17428571428571435,0.3816666666666669
11,4,7,0,7,0.9000000000000006,2,6,89,21,90,93,5.9299999999999375,0.38000000000000017,0.2700000000000001,0.5100000000000002,12,2,1,2,29,3,1,4,3,0.5,15,7,HL,0.2044827586206897,0.1266666666666667,0.2700000000000001,0.1275
11,4,8,0,8,0.36000000000000015,2,3,2,46,118,7,27.320000000001414,0.01,0.02,0.01,20,1,2,1,87,1,2,1,2,0,19,7,HL,0.3140229885057472,0.01,0.01,0.01
11,5,9,0,1,0.7100000000000004,4,7,23,62,31,13,6.59999999999992,1.290000000000001,0.4200000000000002,0.19000000000000003,14,1,2,1,27,1,2,1,5,0,21,7,HL,0.24444444444444455,1.290000000000001,0.21000000000000002,0.19000000000000003
11,5,10,0,3,0.5300000000000002,3,6,51,84,110,2,4.409999999999961,0.5200000000000002,1.1100000000000008,0.3300000000000001,10,1,4,1,17,1,7,1,5,0,15,7,HL,0.25941176470588245,0.5200000000000002,0.1585714285714286,0.3300000000000001
11,6,11,0,7,0.4300000000000002,3,4,114,15,90,13,3.9799999999999685,0.7400000000000004,0.49000000000000027,1.1700000000000008,8,3,2,3,20,4,3,6,3,0,17,7,HL,0.19900000000000007,0.18500000000000005,0.16333333333333336,0.19500000000000003
11,6,12,0,2,0.6400000000000003,2,5,77,62,9,75,5.619999999999939,1.0000000000000007,0.3200000000000001,0.6000000000000003,10,2,2,2,27,3,2,2,3,0,16,7,HL,0.2081481481481482,0.3333333333333335,0.16000000000000003,0.3000000000000001
11,7,13,1,7,0.49000000000000027,2,6,23,41,87,89,2.0400000000000014,2.3099999999999947,1.390000000000001,0.9700000000000006,3,5,3,4,7,8,11,7,3,0,17,7,HL,0.2914285714285716,0.2887500000000001,0.1263636363636364,0.13857142857142862
11,7,14,1,9,0.26000000000000006,1,2,75,35,106,80,5.0799999999999415,0.37000000000000016,1.2000000000000008,0.2900000000000001,11,1,4,1,23,1,5,1,4,0,13,7,HL,0.22086956521739137,0.37000000000000016,0.2400000000000001,0.2900000000000001
11,8,15,1,9,0.8000000000000005,8,9,16,68,19,64,3.81999999999998,1.1000000000000008,0.9900000000000007,0.8100000000000005,15,3,3,2,19,4,8,4,4,0,20,7,HL,0.20105263157894743,0.27500000000000013,0.12375000000000003,0.20250000000000004
11,8,16,1,6,0.35000000000000014,2,5,43,80,51,110,3.8499999999999694,2.299999999999995,0.48000000000000026,0.24000000000000007,8,6,2,2,18,11,3,3,4,0,14,7,HL,0.21388888888888896,0.20909090909090916,0.16,0.07999999999999999
11,9,17,1,4,0.8400000000000005,3,6,41,86,42,5,3.9699999999999775,0.8000000000000005,0.9700000000000006,1.7100000000000013,7,2,2,4,18,2,4,7,2,0,19,7,HL,0.22055555555555562,0.40000000000000024,0.24250000000000008,0.24428571428571436
11,9,18,1,1,2.709999999999986,17,27,29,13,113,30,4.1299999999999875,6.539999999999905,0.09999999999999999,0.9000000000000006,20,8,1,3,33,19,1,4,5,0,18,7,HL,0.12515151515151518,0.34421052631578963,0.09999999999999999,0.22500000000000006
11,10,19,1,3,0.7800000000000005,2,6,115,112,76,45,3.1799999999999935,5.679999999999923,0.8100000000000005,0.5100000000000002,8,9,5,2,15,24,6,2,5,0,12,7,HL,0.21200000000000008,0.23666666666666675,0.13500000000000004,0.25500000000000006
11,10,20,1,7,0.4400000000000002,2,3,94,85,89,62,7.129999999999902,0.25000000000000006,1.8000000000000014,0.8500000000000005,15,1,7,3,28,1,12,4,3,0.5,22,7,HL,0.2546428571428572,0.25000000000000006,0.15000000000000005,0.21250000000000008
11,11,21,1,8,0.5000000000000002,4,4,2,48,56,120,10.55999999999983,0.38000000000000017,0.09999999999999999,0.2700000000000001,19,2,1,2,27,2,1,2,2,0,17,7,HL,0.3911111111111113,0.19000000000000003,0.09999999999999999,0.135
11,11,22,1,1,0.36000000000000015,2,3,71,66,31,29,5.7199999999999305,0.6300000000000003,0.26000000000000006,0.6500000000000004,8,1,1,3,15,1,1,5,5,0,18,7,HL,0.3813333333333335,0.6300000000000003,0.26000000000000006,0.13
11,12,23,1,7,0.46000000000000024,3,4,118,55,45,111,4.649999999999955,0.9600000000000006,0.6300000000000003,0.3100000000000001,9,1,2,1,16,1,3,1,3,0,13,7,HL,0.29062500000000013,0.9600000000000006,0.2100000000000001,0.3100000000000001
11,12,24,1,10,1.320000000000001,3,10,17,73,14,84,5.0799999999999645,7.049999999999894,0.09,0.21000000000000005,9,9,2,2,24,24,2,2,6,0,18,7,HL,0.21166666666666673,0.2937500000000001,0.045,0.10499999999999998
11,13,25,1,10,0.8200000000000005,5,7,45,37,23,64,8.839999999999874,0.8100000000000005,0.21000000000000005,3.6699999999999657,18,4,1,9,34,6,1,13,6,0,20,7,HL,0.2600000000000001,0.13500000000000004,0.21000000000000005,0.2823076923076924
11,13,26,1,2,0.8600000000000005,2,5,79,112,75,51,1.8400000000000012,5.279999999999932,1.9200000000000015,0.6900000000000004,4,9,5,3,7,13,7,5,3,0,12,7,HL,0.26285714285714296,0.40615384615384637,0.27428571428571435,0.138
11,14,27,1,1,0.25000000000000006,2,3,32,35,99,77,2.78999999999999,5.149999999999935,2.4699999999999913,1.2000000000000008,8,7,6,8,15,14,11,10,5,0,15,7,HL,0.18600000000000005,0.36785714285714305,0.22454545454545463,0.12000000000000002
11,14,28,1,7,0.5300000000000002,3,6,16,18,113,114,5.2299999999999445,0.7000000000000004,0.47000000000000025,0.4400000000000002,12,2,2,1,27,4,2,1,3,0,16,7,HL,0.19370370370370377,0.17500000000000002,0.2350000000000001,0.4400000000000002
11,15,29,1,9,0.5200000000000002,2,5,68,62,63,88,4.1999999999999655,0.5000000000000002,1.8800000000000014,0.8200000000000005,10,3,6,1,20,3,7,1,4,0.5,27,7,HL,0.21000000000000008,0.16666666666666674,0.2685714285714287,0.8200000000000005
11,15,30,1,3,0.37000000000000016,2,5,44,20,40,47,3.039999999999987,1.460000000000001,0.20000000000000004,0.19000000000000003,6,3,1,1,12,3,1,1,5,0.5,36,7,HL,0.25333333333333347,0.4866666666666669,0.20000000000000004,0.19000000000000003
11,16,31,1,6,0.6500000000000004,2,7,51,29,59,32,4.089999999999971,3.149999999999977,0.8000000000000005,1.300000000000001,8,8,2,5,16,14,2,5,4,0,18,7,HL,0.2556250000000001,0.2250000000000001,0.4000000000000002,0.26000000000000006
11,16,32,1,2,0.4100000000000002,2,5,13,82,80,97,5.449999999999937,0.3200000000000001,0.5100000000000002,2.239999999999996,12,1,2,7,31,1,2,10,3,0,14,7,HL,0.1758064516129033,0.3200000000000001,0.25500000000000006,0.22400000000000006
11,17,33,1,5,0.7200000000000004,2,6,80,31,30,7,5.279999999999948,2.819999999999984,0.6800000000000004,3.559999999999968,9,5,3,6,25,14,3,9,6,0,19,7,HL,0.21120000000000005,0.2014285714285715,0.2266666666666667,0.3955555555555557
11,17,34,1,8,0.4100000000000002,2,4,13,16,110,20,2.709999999999995,1.7300000000000013,0.5000000000000002,0.3000000000000001,4,3,2,1,6,6,2,1,2,0.5,38,7,HL,0.45166666666666694,0.28833333333333344,0.25000000000000006,0.3000000000000001
11,18,35,1,5,0.46000000000000024,2,7,6,4,61,34,6.439999999999917,7.949999999999875,0.4200000000000002,0.060000000000000005,10,13,2,2,23,26,3,2,6,0,21,7,HL,0.28000000000000014,0.3057692307692309,0.14,0.03
11,18,36,1,3,0.18000000000000002,2,4,17,40,20,21,2.389999999999997,2.349999999999994,0.9600000000000006,0.6300000000000003,7,6,3,3,13,13,3,4,5,0.5,41,7,HL,0.1838461538461539,0.18076923076923082,0.3200000000000001,0.15750000000000003
11,19,37,1,1,0.38000000000000017,2,3,36,64,107,35,6.859999999999906,0.8900000000000006,0.47000000000000025,0.3300000000000001,14,2,2,2,27,2,3,3,5,0,16,7,HL,0.2540740740740742,0.4450000000000002,0.1566666666666667,0.11
11,19,38,1,2,0.6500000000000004,2,7,76,80,24,51,2.0800000000000014,1.370000000000001,3.2199999999999753,0.6200000000000003,5,2,8,1,15,4,13,1,3,0,16,7,HL,0.1386666666666667,0.34250000000000014,0.24769230769230777,0.6200000000000003
11,20,39,1,3,0.2700000000000001,2,3,40,47,48,70,2.0400000000000014,0.6800000000000004,0.2800000000000001,1.270000000000001,6,2,1,2,11,2,1,5,5,0.5,34,7,HL,0.1854545454545455,0.34000000000000014,0.2800000000000001,0.25400000000000006
11,20,40,1,7,0.48000000000000026,2,5,57,55,30,31,3.459999999999981,0.6000000000000003,1.6100000000000012,1.5200000000000011,9,1,4,4,17,1,5,7,3,0,18,7,HL,0.20352941176470596,0.6000000000000003,0.3220000000000001,0.2171428571428572
11,21,41,1,4,0.5700000000000003,6,6,13,102,51,34,13.819999999999762,0.03,0.12999999999999998,0.02,20,1,2,1,65,1,2,1,2,0,17,7,HL,0.21261538461538468,0.03,0.06499999999999999,0.02
11,21,42,1,9,0.3200000000000001,2,3,4,65,71,64,12.969999999999775,0.23000000000000007,0.5600000000000003,0.7100000000000004,19,2,2,4,50,2,2,4,4,0.5,30,7,HL,0.25940000000000013,0.11500000000000002,0.28000000000000014,0.17750000000000005
12,1,1,0,5,1.2400000000000009,3,6,10,38,108,43,6.719999999999929,1.380000000000001,0.8500000000000005,0.8200000000000005,7,4,2,3,25,7,3,4,6,0,18,7,HL,0.2688000000000001,0.1971428571428572,0.28333333333333344,0.20500000000000004
12,1,2,0,1,1.410000000000001,6,11,29,113,87,92,9.509999999999874,0.6700000000000004,0.5100000000000002,0.4100000000000002,17,1,2,1,37,1,2,1,5,0,13,7,HL,0.2570270270270271,0.6700000000000004,0.2550000000000001,0.4100000000000002
12,2,3,0,6,0.6800000000000004,2,4,33,57,100,4,6.769999999999915,0.8200000000000005,0.8300000000000005,0.7000000000000004,11,3,2,2,27,3,2,3,4,0,17,7,HL,0.2507407407407408,0.27333333333333343,0.41500000000000015,0.23333333333333342
12,2,4,0,3,0.6500000000000004,2,3,75,114,79,117,4.499999999999963,3.509999999999969,2.3699999999999934,0.5900000000000003,8,5,4,2,17,10,9,2,5,0,10,7,HL,0.2647058823529413,0.35100000000000015,0.2633333333333334,0.2950000000000001
