Subject,Round,Phase,afterbreak,Schema,Schema_RT,Schema_OB,Schema_AS,Cho_1,Cho_2,Cho_3,Cho_4,RT_1,RT_2,RT_3,RT_4,OB_1,OB_2,OB_3,OB_4,AS_1,AS_2,AS_3,AS_4,schema_payoff,AC,performance,breakR,type,dwellmean_1,dwellmean_2,dwellmean_3,dwellmean_4
1,1,1,0,10,0.19000000000000003,2,3,90,28,64,109,0.24000000000000005,0.15,0.04,0.08,4,2,1,1,5,2,1,1,3,0,14,7,Hc,0.048,0.075,0.04,0.08
1,1,2,0,1,0.19000000000000003,2,3,97,80,84,99,0.45000000000000007,0.03,0.09,0.04,3,1,2,1,4,1,2,1,3,0,10,7,Hc,0.11250000000000002,0.03,0.045,0.04
1,2,3,0,7,0.24000000000000007,2,4,23,114,49,60,0.47000000000000014,0.03,0.04,0.07,4,1,1,1,6,1,1,1,6,0,16,7,Hc,0.07833333333333334,0.03,0.04,0.07
1,2,4,0,9,0.25000000000000006,3,6,69,63,12,6,0.36000000000000004,0.12999999999999998,0.05,0.05,5,2,1,1,8,2,1,1,4,0,20,7,Hc,0.045,0.065,0.05,0.05
1,3,5,0,5,0.18000000000000002,2,4,37,63,39,72,0.37000000000000005,0.09,0.09,0.11999999999999998,4,2,2,2,8,2,2,3,5,0,18,7,Hc,0.04625,0.045,0.045,0.04
1,3,6,0,6,0.21000000000000005,2,4,60,10,26,3,0.39000000000000007,0.05,0.09,0.04,3,1,2,1,5,1,3,1,6,0,21,7,Hc,0.078,0.05,0.03,0.04
1,4,7,0,4,0.18000000000000002,2,4,106,8,96,3,0.3,0.08,0.09999999999999999,0.09999999999999999,4,1,1,2,6,1,1,2,2,0,17,7,Hc,0.05,0.08,0.09999999999999999,0.05
1,4,8,0,1,0.22000000000000006,3,5,43,79,113,65,0.4200000000000001,0.01,0.09999999999999999,0.03,5,1,1,1,8,1,1,1,3,0,14,7,Hc,0.0525,0.01,0.09999999999999999,0.03
1,5,9,0,2,0.21000000000000005,2,3,54,11,97,108,0.31000000000000005,0.13999999999999999,0.05,0.08,4,2,1,2,5,2,1,2,4,0,14,7,Hc,0.062,0.07,0.05,0.04
1,5,10,0,9,0.13999999999999999,2,4,67,85,88,72,0.4,0.01,0.07,0.03,4,1,1,1,6,1,1,1,4,0,14,7,Hc,0.06666666666666668,0.01,0.07,0.03
1,6,11,0,8,0.24000000000000007,3,4,12,112,87,38,0.39000000000000007,0.04,0.17,0.09999999999999999,4,1,1,2,5,1,1,2,2,0,16,7,Hc,0.078,0.04,0.17,0.05
1,6,12,0,4,0.19000000000000003,2,5,49,98,75,21,0.4300000000000001,0.02,0.09999999999999999,0.04,5,1,1,1,8,1,1,1,2,0,15,7,Hc,0.05375,0.02,0.09999999999999999,0.04
1,7,13,1,9,0.21000000000000005,2,4,81,64,20,108,0.4600000000000001,0.01,0.07,0.02,3,1,1,1,5,1,1,1,4,0,15,7,Hc,0.09200000000000001,0.01,0.07,0.02
1,7,14,1,2,0.20000000000000004,2,3,117,94,60,109,0.35000000000000003,0.11999999999999998,0.01,0.060000000000000005,3,2,1,1,4,2,1,1,4,0,11,7,Hc,0.0875,0.06,0.01,0.060000000000000005
1,8,15,1,2,0.21000000000000005,3,5,109,57,90,87,0.37000000000000005,0.060000000000000005,0.08,0.04,4,1,1,1,6,1,1,1,4,0,12,7,Hc,0.06166666666666667,0.060000000000000005,0.08,0.04
1,8,16,1,9,0.18000000000000002,4,5,61,64,21,69,0.31,0.060000000000000005,0.08,0.04,6,1,1,1,7,1,1,1,4,0.5,18,7,Hc,0.04428571428571429,0.060000000000000005,0.08,0.04
1,9,17,1,4,0.17,2,3,63,104,68,72,0.36000000000000004,0.04,0.08,0.09,3,1,1,1,4,1,1,1,2,0.5,14,7,Hc,0.09000000000000001,0.04,0.08,0.09
1,9,18,1,6,0.26000000000000006,3,5,7,5,3,53,0.36000000000000004,0.21000000000000005,0.02,0.060000000000000005,5,2,1,1,7,5,1,1,6,0.5,22,7,Hc,0.05142857142857143,0.042,0.02,0.060000000000000005
1,10,19,1,2,0.23000000000000007,2,4,56,40,107,60,0.3400000000000001,0.11999999999999998,0.16,0.02,4,1,2,1,6,1,2,1,4,0,15,7,Hc,0.056666666666666664,0.11999999999999998,0.07999999999999999,0.02
1,10,20,1,3,0.26000000000000006,5,7,31,78,17,20,0.3500000000000001,0.15,0.09,0.060000000000000005,6,1,1,2,8,1,1,2,5,0,20,7,Hc,0.04375,0.15,0.09,0.030000000000000002
1,11,21,1,7,0.20000000000000004,2,6,104,23,66,36,0.4000000000000001,0.04,0.09999999999999999,0.02,3,1,2,1,7,1,2,1,6,0,17,7,Hc,0.05714285714285715,0.04,0.05,0.02
1,11,22,1,5,0.22000000000000006,2,3,42,89,40,93,0.4100000000000001,0.08,0.10999999999999999,0.04,4,1,2,1,5,1,2,1,5,0,16,7,Hc,0.08199999999999999,0.08,0.05500000000000001,0.04
1,12,23,1,7,0.19000000000000003,2,5,14,13,26,81,0.33,0.20000000000000004,0.04,0.060000000000000005,4,2,1,1,7,2,1,1,6,0,20,7,Hc,0.047142857142857146,0.09999999999999999,0.04,0.060000000000000005
1,12,24,1,6,0.22000000000000006,2,4,4,3,10,63,0.4100000000000001,3.279999999999974,0.01,0.04,4,7,1,1,6,9,1,1,6,0.5,22,7,Hc,0.06833333333333333,0.3644444444444446,0.01,0.04
1,13,25,1,5,0.18000000000000002,2,3,38,78,77,58,0.43000000000000005,0.01,0.09,0.11999999999999998,4,1,2,2,7,1,4,2,5,0,15,7,Hc,0.06142857142857143,0.01,0.0225,0.05999999999999999
1,13,26,1,10,0.18000000000000002,2,4,95,34,26,86,0.35000000000000003,0.05,0.08,0.03,4,1,1,1,6,1,1,1,3,0,16,7,Hc,0.058333333333333334,0.05,0.08,0.03
1,14,27,1,1,0.15,2,3,73,75,1,48,0.29,0.08,0.09,0.03,4,1,1,1,5,1,1,1,3,0,17,7,Hc,0.058,0.08,0.09,0.03
1,14,28,1,10,0.25000000000000006,4,6,35,96,21,28,0.45000000000000007,0.23000000000000007,0.02,0.01,5,2,1,1,7,3,1,1,3,0,19,7,Hc,0.0642857142857143,0.07666666666666667,0.02,0.01
1,15,29,1,10,0.17,3,4,95,21,96,110,0.28,0.11999999999999998,0.04,0.05,4,2,1,1,5,2,1,1,3,0,14,7,Hc,0.056,0.06,0.04,0.05
1,15,30,1,3,0.16,2,3,34,35,65,103,0.34,0.02,0.060000000000000005,0.16,4,1,1,1,5,1,1,1,5,0,16,7,Hc,0.068,0.02,0.060000000000000005,0.16
1,16,31,1,4,0.15,2,4,103,6,9,102,0.34,0.060000000000000005,0.17,0.03,4,1,3,1,6,1,4,1,2,0,16,7,Hc,0.056666666666666664,0.060000000000000005,0.0425,0.03
1,16,32,1,3,0.21000000000000005,4,5,36,81,111,32,0.35000000000000003,0.09999999999999999,0.04,0.04,6,2,1,1,7,2,1,1,5,0,15,7,Hc,0.05,0.05,0.04,0.04
1,17,33,1,4,0.15,2,3,97,7,108,103,0.29,0.12999999999999998,0.02,0.03,3,2,1,1,4,2,1,1,2,0.5,12,7,Hc,0.0725,0.06499999999999999,0.02,0.03
1,17,34,1,8,0.15,2,3,63,119,68,115,0.3,0.03,0.07,0.17,3,1,1,2,4,1,1,2,2,0,12,7,Hc,0.075,0.03,0.07,0.085
1,18,35,1,2,0.12999999999999998,2,3,5,92,59,28,2.0200000000000014,0.04,0.01,0.03,7,1,1,1,11,1,1,1,4,0,18,7,Hc,0.1836363636363637,0.04,0.01,0.03
1,18,36,1,1,0.21000000000000005,2,3,77,63,15,67,0.28,0.09,0.15,0.16,4,1,2,2,5,1,2,3,3,0,17,7,Hc,0.056,0.09,0.075,0.05333333333333332
1,19,37,1,5,0.15,2,3,37,42,97,52,0.36000000000000004,0.060000000000000005,0.03,0.34000000000000014,4,2,1,2,5,2,1,2,5,0,16,7,Hc,0.07200000000000001,0.030000000000000002,0.03,0.17000000000000004
1,19,38,1,3,0.22000000000000006,3,4,34,81,69,5,0.5500000000000002,0.17,0.04,0.03,5,2,1,1,6,2,1,1,5,0,18,7,Hc,0.09166666666666669,0.08499999999999999,0.04,0.03
1,20,39,1,10,0.25000000000000006,2,3,88,29,12,103,0.32000000000000006,0.20000000000000004,0.05,0.08,4,1,1,1,7,1,1,1,3,0,16,7,Hc,0.045714285714285714,0.20000000000000004,0.05,0.08
1,20,40,1,5,0.23000000000000007,2,3,48,84,13,17,0.38000000000000006,0.09,0.12999999999999998,0.01,4,1,3,1,5,1,4,1,5,0,20,7,Hc,0.076,0.09,0.0325,0.01
1,21,41,1,5,0.3200000000000001,1,2,39,38,91,56,0.7300000000000003,0.04,0.2700000000000001,0.01,2,1,1,1,3,1,1,1,5,0,17,7,Hc,0.2433333333333334,0.04,0.2700000000000001,0.01
1,21,42,1,9,0.22000000000000006,2,3,61,108,79,77,0.32000000000000006,0.13999999999999999,0.02,0.09,4,1,1,3,5,1,1,3,4,0,12,7,Hc,0.064,0.13999999999999999,0.02,0.03
1,22,43,1,1,0.24000000000000007,2,4,79,8,71,69,0.4200000000000001,0.05,0.07,0.02,4,1,2,1,6,1,2,1,3,0,17,7,Hc,0.06999999999999999,0.05,0.035,0.02
1,22,44,1,5,0.13999999999999999,2,3,41,45,18,95,0.19,0.26000000000000006,0.04,0.03,4,2,1,1,5,3,1,1,5,0,19,7,Hc,0.038,0.08666666666666667,0.04,0.03
2,1,1,0,8,0.5700000000000003,2,4,39,12,70,9,2.6599999999999997,0.2800000000000001,0.26000000000000006,0.15,6,2,2,2,16,3,2,2,2,0,21,7,Hc,0.16625000000000004,0.09333333333333332,0.13,0.07500000000000001
2,1,2,0,7,0.6400000000000003,2,6,51,80,79,73,6.739999999999915,0.01,0.01,0.01,11,1,1,1,25,1,1,1,6,0.5,13,7,Hc,0.2696000000000001,0.01,0.01,0.01
2,2,3,0,8,0.4100000000000002,2,4,116,44,40,23,1.9400000000000013,0.25000000000000006,0.45000000000000023,0.09999999999999999,6,1,3,1,16,1,4,1,2,0,18,7,Hc,0.12125000000000002,0.25000000000000006,0.11249999999999999,0.09999999999999999
2,2,4,0,4,0.7400000000000004,2,7,7,101,105,12,2.3100000000000014,0.24000000000000007,0.18000000000000002,0.22000000000000006,4,2,2,1,9,2,3,1,2,0,16,7,Hc,0.25666666666666677,0.12000000000000002,0.060000000000000005,0.22000000000000006
2,3,5,0,6,0.5300000000000002,2,4,3,65,6,67,2.330000000000002,0.18000000000000002,0.6800000000000004,0.060000000000000005,5,1,3,1,16,1,3,1,6,0,20,7,Hc,0.14562500000000003,0.18000000000000002,0.22666666666666674,0.060000000000000005
2,3,6,0,1,0.5500000000000003,2,5,84,83,76,40,2.2100000000000017,0.2700000000000001,0.08,0.2800000000000001,4,2,1,2,16,2,1,2,3,0.5,14,7,Hc,0.13812500000000003,0.135,0.08,0.13999999999999999
2,4,7,0,10,0.5300000000000002,2,4,95,90,53,56,1.4200000000000008,0.7400000000000004,1.290000000000001,0.12999999999999998,4,2,4,1,8,5,9,1,3,0,14,7,Hc,0.17750000000000005,0.14800000000000002,0.14333333333333334,0.12999999999999998
2,4,8,0,5,0.37000000000000016,2,5,37,13,81,64,1.9100000000000013,1.1100000000000008,0.15,0.060000000000000005,5,2,1,1,19,5,1,1,5,0,18,7,Hc,0.10052631578947369,0.22200000000000006,0.15,0.060000000000000005
2,5,9,0,2,0.6700000000000004,2,5,51,44,45,80,2.540000000000002,0.34000000000000014,0.2900000000000001,0.22000000000000006,5,2,1,2,17,3,1,2,4,0,17,7,Hc,0.14941176470588238,0.11333333333333334,0.2900000000000001,0.10999999999999999
2,5,10,0,3,0.3900000000000002,3,6,25,13,29,17,1.8800000000000012,0.38000000000000017,0.19000000000000003,0.23000000000000007,5,2,2,1,16,3,2,1,5,0,22,7,Hc,0.11750000000000001,0.1266666666666667,0.095,0.23000000000000007
2,6,11,0,2,0.38000000000000017,2,4,60,116,22,39,2.1800000000000015,0.16,0.38000000000000017,0.05,4,1,2,1,14,1,3,1,4,0,17,7,Hc,0.15571428571428575,0.16,0.1266666666666667,0.05
2,6,12,0,1,0.34000000000000014,2,3,73,84,3,64,1.660000000000001,0.5400000000000003,0.20000000000000004,0.20000000000000004,4,2,1,2,13,4,1,2,3,0,16,7,Hc,0.12769230769230772,0.135,0.20000000000000004,0.09999999999999999
2,7,13,1,4,0.46000000000000024,2,5,99,108,107,3,1.4300000000000008,3.0199999999999796,7.939999999999875,2.9299999999999815,4,6,16,13,11,13,27,21,2,0.5,12,7,Hc,0.13000000000000003,0.2323076923076924,0.2940740740740742,0.13952380952380955
2,7,14,1,7,0.15,2,2,15,22,45,39,1.8700000000000012,0.48000000000000026,0.47000000000000025,0.05,4,2,2,1,15,3,4,1,6,0,22,7,Hc,0.12466666666666669,0.16000000000000003,0.11750000000000001,0.05
2,8,15,1,3,0.34000000000000014,2,4,36,117,29,52,1.590000000000001,0.4100000000000002,0.17,0.26000000000000006,4,1,2,2,10,1,2,3,5,0,16,7,Hc,0.15900000000000003,0.4100000000000002,0.085,0.08666666666666666
2,8,16,1,4,0.18000000000000002,2,2,13,81,61,47,6.519999999999909,0.04,0.01,0.01,13,1,1,1,35,1,1,1,2,0,18,7,Hc,0.18628571428571433,0.04,0.01,0.01
2,9,17,1,2,0.6800000000000004,2,4,53,20,100,45,1.8700000000000012,0.7500000000000004,0.2800000000000001,0.23000000000000007,4,1,1,2,14,1,1,2,4,0,17,7,Hc,0.1335714285714286,0.7500000000000004,0.2800000000000001,0.11499999999999999
2,9,18,1,6,0.3900000000000002,2,6,11,71,85,67,1.5000000000000009,0.9000000000000006,0.2800000000000001,1.0800000000000007,7,2,2,2,14,3,3,2,6,0,17,7,Hc,0.10714285714285716,0.30000000000000016,0.09333333333333335,0.5400000000000004
2,10,19,1,5,0.6500000000000004,2,5,41,39,111,90,1.4400000000000008,1.5100000000000011,0.7300000000000004,0.09,4,3,3,1,11,6,3,1,5,0,15,7,Hc,0.13090909090909092,0.25166666666666676,0.24333333333333346,0.09
2,10,20,1,4,0.8600000000000005,2,7,98,72,102,108,1.720000000000001,2.669999999999987,0.01,0.01,4,5,1,1,15,12,1,1,2,0.5,10,7,Hc,0.11466666666666668,0.22250000000000006,0.01,0.01
2,11,21,1,8,0.8300000000000005,2,6,110,113,40,41,2.3200000000000016,0.3200000000000001,0.5600000000000003,0.060000000000000005,5,1,3,1,18,2,4,1,2,0,14,7,Hc,0.12888888888888891,0.16000000000000003,0.14000000000000004,0.060000000000000005
2,11,22,1,2,0.37000000000000016,2,5,60,95,55,90,1.650000000000001,0.7500000000000004,0.6200000000000003,0.7800000000000005,4,2,4,5,13,4,4,7,4,0,14,7,Hc,0.12692307692307694,0.18750000000000006,0.15500000000000005,0.11142857142857145
2,12,23,1,9,0.34000000000000014,2,6,66,65,37,10,1.640000000000001,0.35000000000000014,0.11999999999999998,0.6800000000000004,4,2,1,3,12,2,1,5,4,0,19,7,Hc,0.1366666666666667,0.17500000000000004,0.11999999999999998,0.136
2,12,24,1,3,0.8800000000000006,2,6,33,116,50,59,1.8600000000000012,0.5300000000000002,0.5400000000000003,0.4400000000000002,4,2,2,2,12,4,3,2,5,0,15,7,Hc,0.15500000000000003,0.1325,0.18000000000000005,0.22000000000000006
2,13,25,1,1,0.35000000000000014,2,4,114,109,5,117,2.1200000000000014,0.26000000000000006,0.46000000000000024,0.04,5,1,2,1,8,1,4,1,3,0.5,12,7,Hc,0.2650000000000001,0.26000000000000006,0.11499999999999999,0.04
2,13,26,1,7,0.6700000000000004,3,5,21,18,61,47,2.0600000000000014,0.4200000000000002,0.20000000000000004,0.16,5,2,2,2,11,3,3,2,6,0,21,7,Hc,0.1872727272727273,0.14,0.06666666666666667,0.07999999999999999
2,14,27,1,6,0.5900000000000003,3,6,5,109,28,119,1.650000000000001,0.48000000000000026,2.299999999999995,0.5300000000000002,5,2,6,1,14,3,16,1,6,0,15,7,Hc,0.11785714285714288,0.16000000000000003,0.14375000000000004,0.5300000000000002
2,14,28,1,5,0.9400000000000006,4,8,13,103,63,38,3.409999999999992,0.08,0.3200000000000001,0.060000000000000005,11,2,2,2,23,2,2,3,5,0,17,7,Hc,0.14826086956521742,0.04,0.16000000000000003,0.02
2,15,29,1,6,0.4000000000000002,2,6,12,3,115,32,1.9300000000000013,2.0400000000000005,0.03,0.01,6,4,1,1,12,5,1,1,6,0,19,7,Hc,0.16083333333333338,0.40800000000000025,0.03,0.01
2,15,30,1,4,0.2900000000000001,2,3,99,24,102,62,1.0200000000000005,1.6400000000000012,0.060000000000000005,0.12999999999999998,4,2,1,2,7,10,1,2,2,0,14,7,Hc,0.14571428571428577,0.16400000000000003,0.060000000000000005,0.065
2,16,31,1,2,0.4300000000000002,2,4,99,49,9,8,1.5000000000000009,0.6200000000000003,0.3300000000000001,1.270000000000001,4,2,2,5,6,5,2,5,4,0,18,7,Hc,0.2500000000000001,0.12400000000000001,0.16500000000000004,0.2540000000000001
2,16,32,1,10,0.7400000000000004,6,9,68,94,118,113,4.139999999999972,0.01,0.2800000000000001,0.12999999999999998,10,1,2,2,20,1,2,2,3,0,11,7,Hc,0.20700000000000007,0.01,0.14000000000000004,0.06499999999999999
2,17,33,1,1,0.8100000000000005,2,6,81,74,4,107,1.2900000000000007,1.0100000000000007,0.5900000000000003,0.5600000000000003,3,2,2,2,7,8,5,6,3,0,14,7,Hc,0.18428571428571433,0.12625000000000003,0.11800000000000001,0.09333333333333335
2,17,34,1,8,0.5800000000000003,2,5,116,66,110,67,2.370000000000002,0.19000000000000003,0.3200000000000001,0.11999999999999998,4,2,2,1,15,4,4,1,2,0,12,7,Hc,0.15800000000000003,0.0475,0.08,0.11999999999999998
2,18,35,1,5,0.8000000000000005,5,8,68,9,62,45,4.089999999999974,0.3000000000000001,0.02,0.23000000000000007,10,2,1,3,16,2,1,3,5,0,19,7,Hc,0.25562500000000016,0.15000000000000005,0.02,0.07666666666666666
2,18,36,1,7,3.4899999999999696,3,18,53,22,34,55,4.51999999999997,0.37000000000000016,2.7999999999999843,0.13999999999999999,5,1,5,1,23,1,15,1,6,0,19,7,Hc,0.19652173913043486,0.37000000000000016,0.1866666666666667,0.13999999999999999
2,19,37,1,2,0.35000000000000014,2,4,52,91,87,89,1.2700000000000007,0.9200000000000006,0.49000000000000027,0.13999999999999999,5,4,2,1,8,7,2,1,4,0.5,13,7,Hc,0.15875000000000003,0.13142857142857148,0.24500000000000008,0.13999999999999999
2,19,38,1,7,0.49000000000000027,3,6,19,13,22,74,1.590000000000001,0.8300000000000005,0.7300000000000004,0.08,5,3,2,1,14,7,2,1,6,0.5,21,7,Hc,0.11357142857142859,0.11857142857142859,0.3650000000000002,0.08
2,20,39,1,5,0.3300000000000001,4,6,53,40,56,83,1.4200000000000008,0.17,0.9900000000000007,0.13999999999999999,6,1,2,2,11,1,7,3,5,0,16,7,Hc,0.12909090909090912,0.17,0.14142857142857143,0.04666666666666667
2,20,40,1,9,0.46000000000000024,3,5,70,17,72,93,1.2900000000000007,0.7700000000000005,0.7200000000000004,0.35000000000000014,5,2,3,2,11,3,3,2,4,0,17,7,Hc,0.11727272727272729,0.25666666666666677,0.24000000000000007,0.17500000000000004
2,21,41,1,6,0.4000000000000002,3,4,8,72,2,69,1.660000000000001,0.9200000000000006,0.11999999999999998,0.3100000000000001,7,7,2,5,12,9,2,5,6,0,20,7,Hc,0.13833333333333336,0.10222222222222223,0.06,0.062000000000000006
2,21,42,1,3,0.23000000000000007,2,2,16,53,85,24,6.169999999999918,0.3300000000000001,0.01,0.01,12,2,1,1,44,2,1,1,5,0,19,7,Hc,0.14022727272727276,0.16500000000000006,0.01,0.01
2,22,43,1,1,0.2900000000000001,2,5,82,6,12,84,1.0300000000000005,1.2000000000000008,0.2700000000000001,0.9600000000000006,3,3,2,6,6,10,3,6,3,0,18,7,Hc,0.17166666666666675,0.12000000000000001,0.09,0.16000000000000006
2,22,44,1,10,0.2700000000000001,3,3,95,17,22,119,1.4900000000000009,1.0800000000000007,0.2700000000000001,0.5900000000000003,5,4,2,5,10,8,3,7,3,0,17,7,Hc,0.14900000000000005,0.135,0.09,0.08428571428571428
3,1,1,0,3,0.37000000000000016,2,3,90,70,6,95,1.9500000000000013,0.03,0.04,0.16,4,1,1,1,6,1,1,1,5,0,16,7,Hc,0.3250000000000002,0.03,0.04,0.16
3,1,2,0,8,0.2700000000000001,2,3,111,52,110,13,0.7800000000000002,0.38000000000000017,0.13999999999999999,0.13999999999999999,3,1,1,1,4,1,1,1,2,0,14,7,Hc,0.19500000000000006,0.38000000000000017,0.13999999999999999,0.13999999999999999
3,2,3,0,2,0.4000000000000002,2,3,48,112,40,22,1.610000000000001,0.12999999999999998,0.10999999999999999,0.05,5,2,2,1,6,2,2,1,4,0,18,7,Hc,0.2683333333333334,0.06499999999999999,0.05500000000000001,0.05
3,2,4,0,4,0.3000000000000001,3,4,100,87,106,33,1.2100000000000006,0.25000000000000006,0.07,0.07,5,1,1,1,6,1,1,1,2,0,12,7,Hc,0.20166666666666674,0.25000000000000006,0.07,0.07
3,3,5,0,6,0.3200000000000001,2,3,60,3,96,1,1.1100000000000005,0.09999999999999999,0.48000000000000026,0.45000000000000023,3,1,1,2,4,1,1,2,6,0,19,7,Hc,0.27750000000000014,0.09999999999999999,0.48000000000000026,0.22500000000000012
3,3,6,0,1,0.4200000000000002,2,3,76,99,105,83,0.7900000000000004,0.9300000000000006,2.3699999999999934,3.4399999999999706,3,3,3,2,4,3,3,3,3,0,10,7,Hc,0.19750000000000006,0.31000000000000016,0.7900000000000006,1.1466666666666574
3,4,7,0,8,0.34000000000000014,2,3,81,117,112,74,1.2900000000000007,1.7300000000000013,0.01,0.02,4,2,1,1,5,3,1,1,2,0,10,7,Hc,0.2580000000000001,0.5766666666666671,0.01,0.02
3,4,8,0,5,0.35000000000000014,3,5,44,91,102,107,0.8900000000000003,0.6900000000000004,1.420000000000001,0.01,5,2,2,1,7,2,2,1,5,0,12,7,Hc,0.12714285714285717,0.34500000000000014,0.7100000000000005,0.01
3,5,9,0,4,0.3100000000000001,2,3,10,29,106,59,1.2600000000000007,0.4000000000000002,0.07,0.38000000000000017,5,1,1,1,7,1,1,1,2,0,17,7,Hc,0.18000000000000005,0.4000000000000002,0.07,0.38000000000000017
3,5,10,0,7,0.12999999999999998,2,2,15,16,119,89,0.6900000000000003,0.5700000000000003,0.09999999999999999,0.21000000000000005,3,2,1,2,3,2,1,2,6,0,17,7,Hc,0.2300000000000001,0.2850000000000001,0.09999999999999999,0.10500000000000002
3,6,11,0,4,0.19000000000000003,3,3,1,6,71,88,16.049999999999706,0.01,0.01,0.01,13,1,1,1,17,1,1,1,2,0,19,7,Hc,0.9441176470588205,0.01,0.01,0.01
3,6,12,0,8,0.3200000000000001,2,3,113,81,109,13,0.8200000000000003,0.47000000000000025,0.15,0.09999999999999999,4,2,1,1,5,2,1,1,2,0,13,7,Hc,0.16400000000000006,0.23500000000000004,0.15,0.09999999999999999
3,7,13,1,5,0.26000000000000006,2,3,45,71,68,72,0.7600000000000002,0.47000000000000025,0.2800000000000001,0.18000000000000002,3,1,1,1,4,1,1,1,5,0.5,17,7,Hc,0.19000000000000006,0.47000000000000025,0.2800000000000001,0.18000000000000002
3,7,14,1,8,0.35000000000000014,2,3,109,117,27,56,1.0700000000000005,0.21000000000000005,0.3000000000000001,0.08,3,1,2,1,4,1,2,1,2,0,13,7,Hc,0.2675000000000001,0.21000000000000005,0.15000000000000002,0.08
3,8,15,1,8,0.2700000000000001,2,3,89,7,115,92,1.2900000000000007,0.3900000000000002,0.01,0.02,4,1,1,1,5,1,1,1,2,0,14,7,Hc,0.2580000000000001,0.3900000000000002,0.01,0.02
3,8,16,1,4,0.47000000000000025,2,3,24,36,59,32,1.0700000000000005,0.8500000000000005,0.10999999999999999,0.07,3,3,1,1,4,3,1,1,2,0,20,7,Hc,0.26750000000000007,0.28333333333333344,0.10999999999999999,0.07
3,9,17,1,2,0.35000000000000014,2,3,54,41,101,75,1.0500000000000005,0.4100000000000002,0.09999999999999999,0.10999999999999999,3,2,1,1,4,2,1,1,4,0,14,7,Hc,0.2625000000000001,0.20500000000000007,0.09999999999999999,0.10999999999999999
3,9,18,1,6,0.3100000000000001,2,3,112,72,28,86,1.1100000000000005,0.46000000000000024,0.13999999999999999,0.25000000000000006,3,1,1,2,4,1,1,2,6,0,14,7,Hc,0.27750000000000014,0.46000000000000024,0.13999999999999999,0.12500000000000003
3,10,19,1,8,0.3000000000000001,2,3,55,40,87,85,1.4200000000000008,0.22000000000000006,0.05,0.13999999999999999,5,1,1,1,7,1,1,1,2,0,15,7,Hc,0.2028571428571429,0.22000000000000006,0.05,0.13999999999999999
3,10,20,1,9,0.3100000000000001,2,3,31,82,36,65,0.9200000000000004,0.2700000000000001,0.12999999999999998,0.02,3,2,1,1,4,2,1,1,4,0,17,7,Hc,0.23000000000000007,0.135,0.12999999999999998,0.02
3,11,21,1,6,0.3900000000000002,2,3,46,57,53,37,1.4700000000000009,0.20000000000000004,0.05,0.09999999999999999,3,1,1,1,4,1,1,1,6,0,18,7,Hc,0.36750000000000016,0.20000000000000004,0.05,0.09999999999999999
3,11,22,1,9,0.20000000000000004,1,2,71,15,29,88,0.8700000000000004,0.4000000000000002,0.07,0.18000000000000002,4,2,1,2,6,2,1,2,4,0,18,7,Hc,0.14500000000000002,0.20000000000000004,0.07,0.09
3,12,23,1,4,0.3100000000000001,2,3,99,108,27,2,0.7300000000000003,0.38000000000000017,0.21000000000000005,1.350000000000001,3,1,2,3,4,1,2,3,2,0,15,7,Hc,0.18250000000000005,0.38000000000000017,0.10499999999999998,0.4500000000000003
3,12,24,1,8,0.2800000000000001,4,5,15,17,118,38,29.12000000000171,7.769999999999879,0.01,0.01,18,12,1,1,37,16,1,1,2,0,19,7,Hc,0.7870270270270271,0.48562500000000025,0.01,0.01
3,13,25,1,4,0.3200000000000001,2,4,103,57,29,10,0.9500000000000004,0.45000000000000023,0.23000000000000007,0.11999999999999998,4,1,3,1,6,1,3,1,2,0,17,7,Hc,0.15833333333333338,0.45000000000000023,0.07666666666666666,0.11999999999999998
3,13,26,1,10,0.16,3,3,88,92,113,15,0.6000000000000002,0.5200000000000002,2.7299999999999858,1.6800000000000013,4,3,4,3,4,4,6,3,3,0,14,7,Hc,0.15000000000000005,0.13000000000000003,0.4550000000000003,0.5600000000000004
3,14,27,1,2,0.38000000000000017,4,5,24,15,20,55,1.0700000000000005,0.2700000000000001,0.26000000000000006,0.09999999999999999,6,1,2,1,8,1,3,1,4,0.5,22,7,Hc,0.13375000000000004,0.2700000000000001,0.08666666666666667,0.09999999999999999
3,14,28,1,1,0.2800000000000001,2,4,75,108,106,105,0.8400000000000003,0.5600000000000003,0.11999999999999998,0.08,4,2,1,1,6,2,1,1,3,0.5,9,7,Hc,0.14000000000000004,0.2800000000000001,0.11999999999999998,0.08
3,15,29,1,3,0.49000000000000027,13,13,36,57,58,96,1.0700000000000005,2.489999999999991,0.09999999999999999,0.24000000000000007,15,4,1,2,16,4,1,2,5,0,16,7,Hc,0.066875,0.622499999999999,0.09999999999999999,0.12000000000000004
3,15,30,1,9,0.20000000000000004,1,2,8,72,66,64,1.1300000000000006,0.19000000000000003,0.04,0.07,3,2,1,1,4,2,1,1,4,0.5,18,7,Hc,0.28250000000000014,0.095,0.04,0.07
3,16,31,1,2,0.36000000000000015,2,3,92,49,46,85,1.4800000000000009,0.11999999999999998,1.1400000000000008,0.02,4,1,2,1,5,1,2,1,4,0,15,7,Hc,0.29600000000000015,0.11999999999999998,0.5700000000000004,0.02
3,16,32,1,8,0.12999999999999998,2,2,3,6,77,118,6.669999999999905,0.01,0.09,0.01,9,1,1,1,12,1,1,1,2,0,17,7,Hc,0.5558333333333331,0.01,0.09,0.01
3,17,33,1,2,0.48000000000000026,1,2,91,58,60,18,1.4800000000000009,0.24000000000000007,0.12999999999999998,0.16,4,3,1,1,5,3,1,1,4,0,17,7,Hc,0.2960000000000001,0.08,0.12999999999999998,0.16
3,17,34,1,3,0.6200000000000003,17,18,26,11,75,29,1.4200000000000008,0.2900000000000001,0.07,0.09,19,2,1,1,21,2,1,1,5,0,19,7,Hc,0.06761904761904763,0.14500000000000002,0.07,0.09
3,18,35,1,1,0.5000000000000002,11,11,48,65,47,78,1.0400000000000005,0.6900000000000004,0.6000000000000003,1.8900000000000015,12,2,2,4,12,2,2,4,3,0,17,7,Hc,0.08666666666666668,0.34500000000000014,0.30000000000000016,0.47250000000000025
3,18,36,1,10,0.3900000000000002,2,4,91,6,8,98,0.7700000000000004,0.49000000000000027,0.19000000000000003,0.6600000000000004,3,1,1,2,5,1,1,2,3,0,17,7,Hc,0.15400000000000003,0.49000000000000027,0.19000000000000003,0.3300000000000001
3,19,37,1,2,0.3000000000000001,2,3,55,102,85,48,0.9000000000000004,0.6300000000000003,0.060000000000000005,0.07,4,2,1,1,5,2,1,1,4,0,14,7,Hc,0.18000000000000005,0.3150000000000001,0.060000000000000005,0.07
3,19,38,1,1,0.6900000000000004,19,20,82,11,112,6,1.0000000000000004,0.9100000000000006,5.5299999999999265,0.01,20,3,10,1,22,3,13,1,3,0,17,7,Hc,0.045454545454545456,0.30333333333333345,0.42538461538461564,0.01
3,20,39,1,2,0.3200000000000001,2,3,50,60,57,94,0.8800000000000003,0.47000000000000025,0.13999999999999999,0.09,4,2,1,1,5,4,1,1,4,0.5,15,7,Hc,0.17600000000000005,0.11750000000000001,0.13999999999999999,0.09
3,20,40,1,5,0.46000000000000024,2,3,105,102,101,72,1.620000000000001,0.09,0.10999999999999999,0.18000000000000002,4,1,1,1,6,1,1,1,5,0.5,10,7,Hc,0.2700000000000001,0.09,0.10999999999999999,0.18000000000000002
3,21,41,1,2,0.3200000000000001,3,3,97,103,107,104,9.649999999999846,1.2200000000000009,1.1700000000000008,14.879999999999727,15,4,2,14,19,4,2,27,4,1,24,7,Hc,0.5078947368421054,0.30500000000000016,0.5850000000000004,0.551111111111111
3,21,42,1,9,0.25000000000000006,2,3,17,109,20,72,28.98000000000169,0.01,0.04,0.01,20,1,1,1,52,1,1,1,4,0,18,7,Hc,0.5573076923076923,0.01,0.04,0.01
4,1,1,0,4,0.17,2,3,105,62,32,94,0.5100000000000001,0.2700000000000001,0.11999999999999998,0.2700000000000001,3,1,1,1,4,1,1,1,2,0,14,7,Hc,0.12750000000000003,0.2700000000000001,0.11999999999999998,0.2700000000000001
4,1,2,0,1,0.18000000000000002,2,3,110,59,9,116,0.8100000000000004,0.16,0.05,0.09999999999999999,4,1,1,2,5,1,1,2,3,0,14,7,Hc,0.16200000000000006,0.16,0.05,0.05
4,2,3,0,2,0.21000000000000005,2,5,117,55,91,46,0.8900000000000005,0.05,0.15,0.48000000000000026,5,1,1,3,8,1,1,3,4,0,14,7,Hc,0.11125000000000002,0.05,0.15,0.16000000000000003
4,2,4,0,7,0.13999999999999999,2,3,21,13,27,100,0.45000000000000007,6.739999999999901,0.01,0.10999999999999999,4,10,1,2,5,14,1,2,6,0,19,7,Hc,0.09000000000000001,0.4814285714285717,0.01,0.05499999999999999
4,3,5,0,1,0.15,2,3,75,36,107,80,0.4,0.5500000000000003,0.10999999999999999,0.02,4,3,1,1,5,4,1,1,3,0,13,7,Hc,0.08000000000000002,0.1375,0.10999999999999999,0.02
4,3,6,0,7,0.13999999999999999,1,2,15,19,13,95,0.5300000000000001,0.26000000000000006,7.019999999999895,0.01,2,2,13,1,3,2,17,1,6,0.5,21,7,Hc,0.17666666666666672,0.13000000000000003,0.4129411764705885,0.01
4,4,7,0,4,0.35000000000000014,5,7,21,24,17,65,0.8100000000000004,0.19000000000000003,9.729999999999837,0.07,6,1,14,1,8,1,21,1,2,0.5,22,7,Hc,0.10125000000000003,0.19000000000000003,0.4633333333333336,0.07
4,4,8,0,3,0.22000000000000006,2,3,25,56,33,110,0.6100000000000002,0.12999999999999998,0.09,0.19000000000000003,3,1,1,1,4,1,1,1,5,0,16,7,Hc,0.15250000000000005,0.12999999999999998,0.09,0.19000000000000003
4,5,9,0,1,0.19000000000000003,2,3,17,67,112,14,1.590000000000001,0.01,0.6700000000000004,0.02,4,1,2,1,5,1,2,1,3,0,18,7,Hc,0.3180000000000002,0.01,0.33500000000000013,0.02
4,5,10,0,2,0.3900000000000002,2,3,4,10,39,50,1.1500000000000006,0.34000000000000014,0.03,0.01,3,1,1,1,4,1,1,1,4,0,21,7,Hc,0.28750000000000014,0.34000000000000014,0.03,0.01
4,6,11,0,2,0.24000000000000007,2,3,58,54,118,95,0.6100000000000002,0.26000000000000006,0.07,0.18000000000000002,4,1,1,2,5,1,1,2,4,0,13,7,Hc,0.12200000000000003,0.26000000000000006,0.07,0.09000000000000001
4,6,12,0,9,0.3900000000000002,3,4,102,4,71,68,0.6900000000000003,0.5100000000000002,0.5700000000000003,0.03,4,1,2,1,5,1,2,1,4,0,16,7,Hc,0.13800000000000004,0.5100000000000002,0.28500000000000014,0.03
4,7,13,1,5,0.23000000000000007,3,4,38,41,57,23,0.5800000000000002,0.08,1.1700000000000008,0.08,6,1,3,1,7,1,3,1,5,0,20,7,Hc,0.08285714285714287,0.08,0.39000000000000024,0.08
4,7,14,1,9,4.109999999999957,11,21,10,6,66,116,6.249999999999956,0.6200000000000003,1.450000000000001,2.149999999999998,14,3,3,3,24,3,3,3,4,0,18,7,Hc,0.2604166666666668,0.20666666666666675,0.4833333333333336,0.7166666666666671
4,8,15,1,9,0.3200000000000001,2,4,78,65,119,22,0.8100000000000004,0.060000000000000005,0.07,0.15,4,1,1,1,6,1,1,1,4,0,15,7,Hc,0.13500000000000004,0.060000000000000005,0.07,0.15
4,8,16,1,6,0.38000000000000017,2,3,100,12,2,4,0.6600000000000003,0.2900000000000001,0.26000000000000006,4.739999999999943,3,1,1,2,4,1,1,2,6,0.5,20,7,Hc,0.16500000000000004,0.2900000000000001,0.26000000000000006,2.3699999999999717
4,9,17,1,1,10.98999999999981,12,26,118,62,78,61,11.00999999999981,0.01,0.01,0.01,13,1,1,1,27,1,1,1,3,0,13,7,Hc,0.407777777777778,0.01,0.01,0.01
4,9,18,1,10,1.5500000000000012,4,7,1,29,104,49,2.9300000000000024,0.01,0.01,0.01,11,1,1,1,15,1,1,1,3,0,17,7,Hc,0.19533333333333341,0.01,0.01,0.01
4,10,19,1,1,0.13999999999999999,2,3,118,81,74,116,0.6600000000000003,0.10999999999999999,0.05,0.03,4,1,1,1,6,1,1,1,3,0,10,7,Hc,0.11000000000000001,0.10999999999999999,0.05,0.03
4,10,20,1,3,0.3900000000000002,3,3,5,51,34,57,20.78000000000039,0.02,0.01,0.01,20,1,1,1,43,1,1,1,5,0,19,7,Hc,0.48325581395348866,0.02,0.01,0.01
4,11,21,1,4,0.08,2,3,50,30,28,98,2.189999999999999,0.7200000000000004,0.2700000000000001,0.01,4,2,2,1,8,2,2,1,2,0,16,7,Hc,0.27375000000000016,0.3600000000000002,0.13500000000000004,0.01
4,11,22,1,8,0.11999999999999998,2,4,66,119,23,117,0.5000000000000001,6.999999999999895,2.399999999999993,0.07,3,8,4,1,5,9,6,1,2,0,14,7,Hc,0.10000000000000003,0.7777777777777783,0.40000000000000024,0.07
4,12,23,1,2,0.13999999999999999,2,3,54,101,12,55,0.5800000000000002,0.07,0.09999999999999999,0.11999999999999998,4,1,1,1,5,1,1,1,4,0,16,7,Hc,0.11600000000000003,0.07,0.09999999999999999,0.11999999999999998
4,12,24,1,5,0.3200000000000001,3,5,48,94,116,42,0.6600000000000003,0.10999999999999999,1.9100000000000015,0.01,4,1,4,1,6,1,5,1,5,0,15,7,Hc,0.11000000000000003,0.10999999999999999,0.38200000000000023,0.01
4,13,25,1,8,0.4000000000000002,4,5,12,119,2,1,0.7800000000000004,0.7800000000000005,0.04,0.01,7,3,1,1,8,3,1,1,2,0.5,20,7,Hc,0.09750000000000002,0.2600000000000001,0.04,0.01
4,13,26,1,7,0.09,2,3,23,20,105,33,0.31000000000000005,1.1100000000000008,0.04,1.0800000000000007,3,3,1,3,4,3,1,3,6,0,19,7,Hc,0.07750000000000001,0.3700000000000002,0.04,0.36000000000000015
4,14,27,1,4,0.04,2,3,99,49,107,104,0.16999999999999998,1.370000000000001,0.01,0.7300000000000004,3,4,1,2,4,4,1,2,2,0.5,10,7,Hc,0.042499999999999996,0.3425000000000002,0.01,0.3650000000000002
4,14,28,1,3,0.10999999999999999,2,2,13,25,117,34,1.9200000000000013,0.01,0.01,0.01,7,1,1,1,7,1,1,1,5,0,18,7,Hc,0.2742857142857144,0.01,0.01,0.01
4,15,29,1,10,0.19000000000000003,3,4,51,53,93,57,0.6700000000000003,0.5800000000000003,0.01,0.01,4,2,1,1,5,2,1,1,3,0.5,15,7,Hc,0.13400000000000004,0.29000000000000015,0.01,0.01
4,15,30,1,9,0.15,2,3,73,67,62,104,0.9600000000000005,0.03,0.04,0.01,6,1,1,1,7,1,1,1,4,0,13,7,Hc,0.13714285714285718,0.03,0.04,0.01
4,16,31,1,9,0.45000000000000023,5,6,62,95,71,13,1.710000000000001,0.01,0.01,0.04,8,1,1,2,9,1,1,2,4,0,17,7,Hc,0.1900000000000001,0.01,0.01,0.02
4,16,32,1,4,0.09999999999999999,2,3,45,52,59,42,0.6100000000000002,0.07,0.6800000000000004,0.01,3,1,3,1,4,1,3,1,2,0,18,7,Hc,0.15250000000000005,0.07,0.22666666666666677,0.01
4,17,33,1,1,0.26000000000000006,2,3,52,45,42,78,0.7000000000000003,0.09999999999999999,0.12999999999999998,0.09999999999999999,4,1,1,1,5,1,1,1,3,0,17,7,Hc,0.14000000000000004,0.09999999999999999,0.12999999999999998,0.09999999999999999
4,17,34,1,10,1.7200000000000013,3,5,15,28,27,89,2.4300000000000015,0.03,0.5900000000000003,0.01,6,1,2,1,8,1,3,1,3,0,19,7,Hc,0.30375000000000013,0.03,0.19666666666666674,0.01
4,18,35,1,3,0.25000000000000006,2,3,55,33,57,110,0.5200000000000001,0.3000000000000001,0.04,0.05,4,2,1,1,6,2,1,1,5,0,15,7,Hc,0.08666666666666666,0.15000000000000002,0.04,0.05
4,18,36,1,10,0.2700000000000001,2,3,103,101,72,63,0.5300000000000001,0.10999999999999999,2.4699999999999913,0.01,3,2,3,1,4,2,3,1,3,0,12,7,Hc,0.1325,0.05499999999999999,0.8233333333333317,0.01
4,19,37,1,4,0.13999999999999999,1,2,3,57,81,51,0.6100000000000002,0.060000000000000005,0.08,0.060000000000000005,2,1,1,1,3,1,1,1,2,0,17,7,Hc,0.20333333333333342,0.060000000000000005,0.08,0.060000000000000005
4,19,38,1,7,3.659999999999966,6,14,109,120,115,65,5.699999999999966,2.429999999999992,1.1300000000000008,1.9400000000000015,9,4,5,5,17,4,5,7,6,0.5,10,7,Hc,0.335294117647059,0.6075000000000004,0.2260000000000001,0.27714285714285725
4,20,39,1,2,0.10999999999999999,2,2,1,43,79,54,15.669999999999712,0.05,0.2800000000000001,0.36000000000000015,16,1,2,2,28,1,2,2,4,0,18,7,Hc,0.5596428571428574,0.05,0.14000000000000004,0.18000000000000008
4,20,40,1,3,1.5700000000000012,5,7,61,70,30,100,2.370000000000002,0.03,0.03,0.01,7,1,1,1,9,1,1,1,5,0,15,7,Hc,0.2633333333333335,0.03,0.03,0.01
4,21,41,1,5,0.9700000000000006,4,4,2,91,40,7,10.58999999999984,0.02,0.01,0.03,19,1,1,1,30,1,1,1,5,0,20,7,Hc,0.3530000000000002,0.02,0.01,0.03
4,21,42,1,3,5.079999999999936,9,15,52,57,58,50,5.089999999999936,0.2900000000000001,0.47000000000000025,0.02,10,1,3,1,16,1,3,1,5,1,48,7,Hc,0.31812500000000016,0.2900000000000001,0.15666666666666673,0.02
4,22,43,1,3,0.7900000000000005,4,4,2,86,115,89,10.849999999999831,0.01,0.01,0.02,13,1,1,2,15,1,1,2,5,0,14,7,Hc,0.7233333333333333,0.01,0.01,0.01
4,22,44,1,4,1.310000000000001,4,8,16,62,40,41,1.530000000000001,0.3900000000000002,0.01,0.11999999999999998,5,2,1,1,9,2,1,1,2,0,20,7,Hc,0.17000000000000007,0.19500000000000003,0.01,0.11999999999999998
5,1,1,0,6,0.45000000000000023,2,3,4,2,118,64,1.0400000000000005,6.259999999999911,0.01,1.280000000000001,4,9,1,2,5,13,1,2,6,0,18,7,Hc,0.20800000000000005,0.4815384615384613,0.01,0.6400000000000005
5,1,2,0,1,0.19000000000000003,2,2,13,51,78,15,5.219999999999938,0.01,0.01,0.01,5,1,1,1,7,1,1,1,3,0,19,7,Hc,0.7457142857142801,0.01,0.01,0.01
5,2,3,0,1,0.3300000000000001,2,3,30,84,17,34,0.9700000000000004,0.12999999999999998,0.17,0.09999999999999999,3,1,1,1,4,1,1,1,3,0,19,7,Hc,0.2425000000000001,0.12999999999999998,0.17,0.09999999999999999
5,2,4,0,9,0.4100000000000002,2,6,72,68,7,1,1.0200000000000005,0.13999999999999999,0.22000000000000006,0.11999999999999998,3,1,1,1,7,1,1,1,4,0,20,7,Hc,0.14571428571428577,0.13999999999999999,0.22000000000000006,0.11999999999999998
5,3,5,0,10,0.2800000000000001,2,5,4,88,32,30,0.8300000000000003,0.12999999999999998,0.26000000000000006,0.07,3,1,1,1,6,1,1,1,3,0,19,7,Hc,0.13833333333333336,0.12999999999999998,0.26000000000000006,0.07
5,3,6,0,1,0.3300000000000001,2,3,82,77,24,79,0.7700000000000004,0.4400000000000002,0.16,0.08,4,2,2,1,5,2,2,1,3,0.5,15,7,Hc,0.15400000000000003,0.22000000000000006,0.07999999999999999,0.08
5,4,7,0,3,0.18000000000000002,2,2,1,82,76,67,7.169999999999895,0.02,0.01,0.01,12,1,1,1,19,1,1,1,5,0,16,7,Hc,0.3773684210526318,0.02,0.01,0.01
5,4,8,0,7,0.3100000000000001,2,4,55,110,24,92,0.9100000000000004,0.5200000000000002,0.05,0.4300000000000002,3,2,1,2,5,2,1,2,6,0,15,7,Hc,0.18200000000000005,0.26000000000000006,0.05,0.21500000000000008
5,5,9,0,7,0.3200000000000001,2,4,104,82,40,13,1.2600000000000007,0.26000000000000006,0.04,0.04,3,2,1,1,5,2,1,1,6,0,16,7,Hc,0.2520000000000001,0.13,0.04,0.04
5,5,10,0,10,0.35000000000000014,3,4,91,4,36,116,0.7200000000000003,0.48000000000000026,0.18000000000000002,0.11999999999999998,5,1,1,2,7,1,1,2,3,0,16,7,Hc,0.10285714285714287,0.48000000000000026,0.18000000000000002,0.060000000000000005
5,6,11,0,8,0.3200000000000001,2,3,114,120,67,34,1.0800000000000005,0.26000000000000006,0.16,0.07,4,2,2,1,5,2,2,1,2,0,13,7,Hc,0.21600000000000008,0.13000000000000003,0.07999999999999999,0.07
5,6,12,0,5,0.5600000000000003,12,12,46,76,99,81,0.9100000000000004,0.8700000000000006,0.5400000000000003,0.20000000000000004,13,2,2,2,13,4,2,2,5,0,13,7,Hc,0.07,0.21750000000000008,0.27000000000000013,0.1
5,7,13,1,5,0.38000000000000017,2,3,88,45,41,87,1.0000000000000004,0.15,0.17,0.08,3,1,1,1,4,1,1,1,5,0,16,7,Hc,0.2500000000000001,0.15,0.17,0.08
5,7,14,1,3,0.38000000000000017,2,4,77,27,18,13,0.9800000000000004,0.13999999999999999,0.24000000000000007,0.19000000000000003,3,1,2,1,5,1,2,1,5,0,20,7,Hc,0.19600000000000006,0.13999999999999999,0.12,0.19000000000000003
5,8,15,1,8,0.37000000000000016,2,4,71,115,74,81,0.8000000000000004,0.20000000000000004,0.4000000000000002,0.04,3,1,2,1,5,2,3,1,2,0,12,7,Hc,0.16000000000000003,0.1,0.13333333333333333,0.04
5,8,16,1,2,0.5100000000000002,2,5,105,59,57,91,1.2600000000000007,0.23000000000000007,0.02,0.10999999999999999,3,2,1,1,6,2,1,1,4,0,13,7,Hc,0.21000000000000008,0.115,0.02,0.10999999999999999
5,9,17,1,3,0.35000000000000014,2,3,76,25,118,74,1.0200000000000005,0.09,0.24000000000000007,0.16,4,1,1,2,6,1,1,2,5,0,13,7,Hc,0.17000000000000004,0.09,0.24000000000000007,0.08
5,9,18,1,10,0.3200000000000001,2,3,90,43,6,95,1.1300000000000006,0.09999999999999999,0.5000000000000002,0.02,4,1,1,1,5,1,1,1,3,0,17,7,Hc,0.22600000000000006,0.09999999999999999,0.5000000000000002,0.02
5,10,19,1,5,0.3300000000000001,2,3,47,109,5,110,1.0400000000000005,0.08,0.20000000000000004,0.17,4,1,1,1,5,1,1,1,5,0,15,7,Hc,0.20800000000000007,0.08,0.20000000000000004,0.17
5,10,20,1,10,0.15,2,2,13,89,53,90,14.219999999999745,0.01,0.01,0.01,10,1,1,1,16,1,1,1,3,0,16,7,Hc,0.8887499999999976,0.01,0.01,0.01
5,11,21,1,8,0.3000000000000001,2,3,112,54,119,114,0.7900000000000004,0.37000000000000016,0.08,0.09999999999999999,4,2,1,1,5,3,1,1,2,0.5,10,7,Hc,0.15800000000000003,0.12333333333333334,0.08,0.09999999999999999
5,11,22,1,7,0.6900000000000004,19,21,24,14,97,104,1.1000000000000005,0.3000000000000001,4.289999999999953,0.6600000000000004,20,1,9,2,22,1,10,2,6,0,16,7,Hc,0.05000000000000001,0.3000000000000001,0.4290000000000002,0.3300000000000001
5,12,23,1,5,0.38000000000000017,2,5,48,37,73,120,0.8700000000000004,0.09999999999999999,0.36000000000000015,0.22000000000000006,3,1,1,1,6,1,1,2,5,0,15,7,Hc,0.14500000000000005,0.09999999999999999,0.36000000000000015,0.11000000000000001
5,12,24,1,4,0.37000000000000016,2,3,95,49,87,98,1.2100000000000006,0.11999999999999998,0.17,0.02,3,1,1,1,4,1,1,1,2,0,12,7,Hc,0.30250000000000016,0.11999999999999998,0.17,0.02
5,13,25,1,9,0.35000000000000014,2,3,15,64,47,108,1.0700000000000005,0.07,0.4300000000000002,0.03,3,1,2,1,4,1,2,1,4,0,17,7,Hc,0.2675000000000001,0.07,0.21500000000000008,0.03
5,13,26,1,2,0.17,2,2,4,115,49,55,12.60999999999978,0.01,0.01,0.01,15,1,1,1,19,1,1,1,4,0,16,7,Hc,0.6636842105263141,0.01,0.01,0.01
5,14,27,1,8,0.26000000000000006,4,4,13,23,15,45,3.2399999999999807,0.01,7.3599999999998875,0.01,13,1,9,1,16,1,11,1,2,0.5,23,7,Hc,0.2025000000000001,0.01,0.6690909090909076,0.01
5,14,28,1,9,0.34000000000000014,2,5,83,108,64,80,1.0300000000000005,0.22000000000000006,0.04,0.20000000000000004,3,2,1,1,6,2,1,1,4,0,12,7,Hc,0.17166666666666675,0.11,0.04,0.20000000000000004
5,15,29,1,10,0.3200000000000001,2,3,85,87,58,4,0.8200000000000003,0.11999999999999998,0.22000000000000006,0.17,4,1,1,2,6,1,1,2,3,0,16,7,Hc,0.1366666666666667,0.11999999999999998,0.22000000000000006,0.08499999999999999
5,15,30,1,1,0.3200000000000001,2,3,75,81,97,41,0.7900000000000004,0.19000000000000003,0.22000000000000006,0.21000000000000005,3,1,1,1,4,1,1,1,3,0,13,7,Hc,0.19750000000000006,0.19000000000000003,0.22000000000000006,0.21000000000000005
5,16,31,1,9,0.7800000000000005,14,14,70,26,32,36,1.0500000000000005,2.9299999999999815,0.12999999999999998,0.01,15,3,1,1,15,3,1,1,4,0.5,19,7,Hc,0.07,0.976666666666664,0.12999999999999998,0.01
5,16,32,1,2,0.35000000000000014,2,3,58,39,89,109,0.6700000000000003,0.5000000000000002,0.26000000000000006,0.25000000000000006,4,1,1,1,5,1,1,1,4,0,14,7,Hc,0.13400000000000004,0.5000000000000002,0.26000000000000006,0.25000000000000006
5,17,33,1,7,0.37000000000000016,3,4,13,19,59,45,0.8000000000000004,0.2800000000000001,0.25000000000000006,0.11999999999999998,5,1,2,1,6,1,2,1,6,0,21,7,Hc,0.13333333333333336,0.2800000000000001,0.12500000000000003,0.11999999999999998
5,17,34,1,10,0.3100000000000001,2,4,96,86,62,92,0.7300000000000003,0.36000000000000015,0.2700000000000001,0.05,4,2,2,1,7,2,2,1,3,0.5,13,7,Hc,0.10428571428571429,0.18000000000000002,0.13500000000000004,0.05
5,18,35,1,5,0.3000000000000001,2,3,38,37,7,69,0.8300000000000003,0.16,1.490000000000001,0.12999999999999998,3,1,4,1,4,1,4,1,5,0,20,7,Hc,0.20750000000000005,0.16,0.3725000000000002,0.12999999999999998
5,18,36,1,4,0.3000000000000001,2,3,104,59,89,106,1.1300000000000006,0.07,0.060000000000000005,0.08,4,1,1,1,7,1,1,1,2,0,11,7,Hc,0.16142857142857145,0.07,0.060000000000000005,0.08
5,19,37,1,6,0.3900000000000002,2,3,3,2,108,54,1.1400000000000006,19.230000000000206,0.01,0.02,4,16,1,1,7,27,1,1,6,0,18,7,Hc,0.1628571428571429,0.7122222222222214,0.01,0.02
5,19,38,1,5,0.36000000000000015,2,3,71,47,42,17,1.3800000000000008,0.07,0.07,0.24000000000000007,5,1,1,2,6,1,1,2,5,0,20,7,Hc,0.23000000000000007,0.07,0.07,0.12000000000000001
5,20,39,1,10,0.36000000000000015,2,4,93,85,52,17,0.6100000000000002,0.2900000000000001,0.5000000000000002,0.12999999999999998,4,1,2,1,6,2,3,1,3,0,16,7,Hc,0.10166666666666667,0.14500000000000002,0.16666666666666669,0.12999999999999998
5,20,40,1,5,0.5100000000000002,2,4,45,12,105,7,1.0700000000000005,0.09,0.3000000000000001,0.09999999999999999,4,1,1,1,8,1,1,1,5,0,19,7,Hc,0.13375,0.09,0.3000000000000001,0.09999999999999999
5,21,41,1,4,0.34000000000000014,2,3,100,44,59,16,0.9700000000000004,0.12999999999999998,0.2800000000000001,0.15,4,1,1,1,5,1,1,1,2,0,17,7,Hc,0.19400000000000006,0.12999999999999998,0.2800000000000001,0.15
5,21,42,1,8,0.2700000000000001,2,3,111,64,3,1,0.5400000000000001,0.5300000000000002,0.10999999999999999,0.09,3,1,1,1,4,1,1,1,2,0,18,7,Hc,0.135,0.5300000000000002,0.10999999999999999,0.09
5,22,43,1,4,0.35000000000000014,2,3,98,52,1,32,0.6700000000000003,0.34000000000000014,0.19000000000000003,0.8800000000000006,4,1,1,2,5,1,1,2,2,0,17,7,Hc,0.13400000000000004,0.34000000000000014,0.19000000000000003,0.4400000000000002
5,22,44,1,7,0.3200000000000001,2,3,120,70,24,113,3.0399999999999863,0.01,0.01,2.4699999999999913,4,1,1,6,5,1,1,6,6,0,14,7,Hc,0.6079999999999973,0.01,0.01,0.4116666666666669
6,1,1,0,7,0.23000000000000007,2,3,24,17,71,30,0.5500000000000002,0.05,0.07,0.060000000000000005,4,1,1,1,5,1,1,1,6,0,21,7,Hc,0.11000000000000001,0.05,0.07,0.060000000000000005
6,1,2,0,2,0.26000000000000006,4,5,47,12,8,102,0.5900000000000002,0.08,1.430000000000001,0.2800000000000001,5,1,5,1,6,1,5,1,4,0,19,7,Hc,0.09833333333333336,0.08,0.28600000000000014,0.2800000000000001
6,2,3,0,1,0.10999999999999999,2,3,5,99,8,70,1.640000000000001,0.01,0.01,0.01,4,1,1,1,5,1,1,1,3,0,18,7,Hc,0.32800000000000024,0.01,0.01,0.01
6,2,4,0,10,0.15,2,3,89,86,24,60,0.37000000000000005,0.07,0.12999999999999998,0.05,3,1,1,1,4,1,1,1,3,0,16,7,Hc,0.09250000000000001,0.07,0.12999999999999998,0.05
6,3,5,0,2,0.22000000000000006,2,4,83,57,51,5,0.5800000000000002,0.07,0.07,0.03,3,1,1,1,5,1,1,1,4,0,17,7,Hc,0.11600000000000003,0.07,0.07,0.03
6,3,6,0,4,0.16,2,4,103,106,47,89,0.5000000000000001,0.02,0.13999999999999999,0.15,4,1,1,1,6,1,1,1,2,0,12,7,Hc,0.08333333333333334,0.02,0.13999999999999999,0.15
6,4,7,0,5,0.2800000000000001,6,7,42,73,75,68,0.5700000000000002,0.08,0.09999999999999999,0.05,8,1,1,1,9,1,1,1,5,0,15,7,Hc,0.06333333333333334,0.08,0.09999999999999999,0.05
6,4,8,0,10,0.19000000000000003,2,3,58,87,95,51,0.4900000000000001,0.04,0.08,0.060000000000000005,4,1,1,1,6,1,1,1,3,0,14,7,Hc,0.08166666666666668,0.04,0.08,0.060000000000000005
6,5,9,0,6,0.22000000000000006,8,8,12,90,5,86,0.7400000000000003,0.6400000000000003,0.13999999999999999,0.01,10,2,1,1,11,2,1,1,6,0,18,7,Hc,0.06727272727272728,0.3200000000000002,0.13999999999999999,0.01
6,5,10,0,3,0.24000000000000007,2,3,30,16,82,23,0.6300000000000002,0.05,0.02,0.09,4,1,1,1,5,1,1,1,5,0,20,7,Hc,0.12600000000000003,0.05,0.02,0.09
6,6,11,0,1,0.19000000000000003,2,3,81,22,83,17,0.44000000000000006,0.17,0.02,0.060000000000000005,3,2,1,1,4,2,1,1,3,0,18,7,Hc,0.11000000000000001,0.08499999999999999,0.02,0.060000000000000005
6,6,12,0,2,0.22000000000000006,2,3,55,60,111,85,0.5000000000000001,0.09,0.09999999999999999,0.07,3,1,1,1,4,1,1,1,4,0,13,7,Hc,0.12500000000000003,0.09,0.09999999999999999,0.07
6,7,13,1,5,0.12999999999999998,2,3,108,61,23,43,0.5800000000000002,0.20000000000000004,1.8600000000000014,2.07,3,3,2,3,4,3,4,3,5,0,17,7,Hc,0.14500000000000007,0.06666666666666667,0.4650000000000003,0.6900000000000005
6,7,14,1,8,0.16,2,3,110,114,52,50,0.5100000000000001,0.03,0.09,0.05,4,1,1,1,5,1,1,1,2,0,12,7,Hc,0.10200000000000001,0.03,0.09,0.05
6,8,15,1,5,0.19000000000000003,2,3,39,2,53,114,0.37000000000000005,2.6599999999999873,0.09,0.9700000000000006,3,4,2,2,4,4,2,2,5,0,17,7,Hc,0.09250000000000001,0.6650000000000004,0.045,0.4850000000000003
6,8,16,1,3,0.2800000000000001,9,10,34,77,25,106,0.5500000000000002,0.19000000000000003,2.99999999999998,0.01,10,2,3,1,11,2,4,1,5,0,15,7,Hc,0.05000000000000001,0.095,0.7500000000000006,0.01
6,9,17,1,10,0.15,2,3,102,93,50,96,0.5800000000000002,0.02,0.05,0.03,3,1,1,1,4,1,1,1,3,0,12,7,Hc,0.14500000000000005,0.02,0.05,0.03
6,9,18,1,9,0.17,2,4,64,74,61,73,0.42000000000000004,0.13999999999999999,1.7200000000000013,0.01,4,1,3,1,6,1,3,1,4,0,14,7,Hc,0.07,0.13999999999999999,0.5733333333333337,0.01
6,10,19,1,4,0.16,2,3,97,99,40,83,0.4000000000000001,0.08,0.11999999999999998,0.05,3,1,1,1,4,1,1,1,2,0,12,7,Hc,0.10000000000000002,0.08,0.11999999999999998,0.05
6,10,20,1,8,0.2800000000000001,11,11,120,34,64,32,0.43000000000000005,2.06,0.01,3.2199999999999753,12,4,1,4,12,6,1,4,2,0,16,7,Hc,0.035833333333333335,0.3433333333333335,0.01,0.8049999999999997
6,11,21,1,2,0.18000000000000002,2,3,115,53,95,92,0.5700000000000002,0.03,0.17,0.04,3,1,1,1,4,1,1,1,4,0,12,7,Hc,0.14250000000000004,0.03,0.17,0.04
6,11,22,1,5,0.10999999999999999,3,3,5,47,82,102,21.260000000000506,0.01,0.02,0.01,20,1,2,1,45,1,2,1,5,0,16,7,Hc,0.47244444444444467,0.01,0.01,0.01
6,12,23,1,4,0.21000000000000005,3,4,99,25,31,22,0.5500000000000002,1.7600000000000013,1.270000000000001,0.8700000000000006,5,2,2,3,6,3,2,6,2,0,18,7,Hc,0.09166666666666667,0.5866666666666671,0.6350000000000005,0.14500000000000002
6,12,24,1,5,0.17,2,3,42,5,4,95,0.5900000000000002,0.08,1.7100000000000013,0.01,4,1,3,1,5,1,3,1,5,0,20,7,Hc,0.11800000000000002,0.08,0.5700000000000004,0.01
6,13,25,1,1,0.15,1,2,83,112,67,24,0.5500000000000002,0.09999999999999999,0.05,0.3200000000000001,3,1,1,2,4,1,1,2,3,0,15,7,Hc,0.13750000000000004,0.09999999999999999,0.05,0.16000000000000006
6,13,26,1,4,0.46000000000000024,14,16,103,49,106,97,0.6200000000000002,0.4100000000000002,0.02,0.6000000000000003,15,2,1,2,17,2,1,2,2,0.5,10,7,Hc,0.036470588235294116,0.2050000000000001,0.02,0.30000000000000016
6,14,27,1,10,0.20000000000000004,2,4,2,85,4,63,0.5000000000000001,0.09,0.07,0.060000000000000005,3,1,1,1,5,1,1,1,3,0,19,7,Hc,0.10000000000000002,0.09,0.07,0.060000000000000005
6,14,28,1,7,0.38000000000000017,9,12,98,17,16,52,0.5300000000000001,0.13999999999999999,0.060000000000000005,0.10999999999999999,10,1,1,1,13,1,1,1,6,0,18,7,Hc,0.040769230769230766,0.13999999999999999,0.060000000000000005,0.10999999999999999
6,15,29,1,7,0.16,2,4,19,17,75,24,0.36000000000000004,3.2499999999999747,0.01,0.01,3,6,1,1,5,7,1,1,6,0.5,21,7,Hc,0.07200000000000001,0.4642857142857145,0.01,0.01
6,15,30,1,10,0.18000000000000002,2,3,5,87,86,32,0.4600000000000001,0.07,0.08,0.05,3,1,1,1,4,1,1,1,3,0,17,7,Hc,0.11500000000000002,0.07,0.08,0.05
6,16,31,1,9,0.17,2,3,68,66,82,44,0.42000000000000004,0.35000000000000014,0.17,0.01,4,2,1,1,5,3,1,1,4,0,16,7,Hc,0.08399999999999999,0.11666666666666671,0.17,0.01
6,16,32,1,7,0.18000000000000002,2,3,101,24,103,18,0.5600000000000002,0.02,0.2700000000000001,0.01,3,1,2,1,4,1,2,1,6,0,16,7,Hc,0.14000000000000004,0.02,0.13500000000000004,0.01
6,17,33,1,1,0.3300000000000001,4,5,74,5,58,36,0.6400000000000002,0.04,0.10999999999999999,0.09999999999999999,6,1,1,1,7,1,1,1,3,0,18,7,Hc,0.09142857142857143,0.04,0.10999999999999999,0.09999999999999999
6,17,34,1,5,0.15,2,3,44,42,103,18,0.36000000000000004,0.07,0.35000000000000014,0.01,3,1,2,1,4,1,2,1,5,0,18,7,Hc,0.09000000000000001,0.07,0.17500000000000007,0.01
6,18,35,1,4,0.17,2,3,106,103,66,61,0.45000000000000007,0.09,0.18000000000000002,0.04,3,1,1,1,4,1,1,1,2,0,12,7,Hc,0.11250000000000002,0.09,0.18000000000000002,0.04
6,18,36,1,10,0.17,4,4,92,110,117,113,0.42000000000000004,0.2800000000000001,4.199999999999955,0.01,5,2,8,1,5,2,11,1,3,0.5,9,7,Hc,0.084,0.14,0.381818181818182,0.01
6,19,37,1,10,0.18000000000000002,2,3,59,88,118,35,0.5300000000000001,0.03,0.11999999999999998,0.11999999999999998,3,1,1,1,4,1,1,1,3,0,14,7,Hc,0.13250000000000003,0.03,0.11999999999999998,0.11999999999999998
6,19,38,1,6,0.21000000000000005,8,8,2,12,9,43,0.6300000000000002,0.02,0.04,0.13999999999999999,10,1,1,3,11,1,1,3,6,0.5,23,7,Hc,0.05727272727272728,0.02,0.04,0.04666666666666666
6,20,39,1,9,0.19000000000000003,2,3,64,104,38,16,0.45000000000000007,0.2900000000000001,0.35000000000000014,0.01,4,1,3,1,5,1,3,1,4,0,17,7,Hc,0.09000000000000001,0.2900000000000001,0.11666666666666667,0.01
6,20,40,1,2,0.16,1,2,95,51,26,31,0.5300000000000001,0.05,0.12999999999999998,0.23000000000000007,2,1,2,1,3,1,2,1,4,0,17,7,Hc,0.17666666666666672,0.05,0.065,0.23000000000000007
6,21,41,1,1,0.3200000000000001,10,11,75,76,7,57,0.6000000000000002,0.19000000000000003,0.02,0.07,12,2,1,2,13,2,1,2,3,0,16,7,Hc,0.046153846153846156,0.095,0.02,0.035
6,21,42,1,10,0.17,2,4,96,109,36,66,0.4000000000000001,0.13999999999999999,0.13999999999999999,0.12999999999999998,4,1,1,1,6,1,1,1,3,0,14,7,Hc,0.06666666666666668,0.13999999999999999,0.13999999999999999,0.12999999999999998
6,22,43,1,5,0.11999999999999998,2,3,39,45,90,68,0.35000000000000003,0.07,0.12999999999999998,0.060000000000000005,3,1,1,1,4,1,1,1,5,0,17,7,Hc,0.08750000000000002,0.07,0.12999999999999998,0.060000000000000005
6,22,44,1,1,0.18000000000000002,2,3,77,12,81,73,0.44000000000000006,0.11999999999999998,0.03,0.03,4,2,1,1,7,2,1,1,3,0.5,15,7,Hc,0.06285714285714286,0.06,0.03,0.03
7,1,1,0,3,0.13999999999999999,2,2,25,29,113,28,0.5500000000000002,0.07,0.22000000000000006,0.24000000000000007,4,1,3,2,7,1,4,2,5,0.5,17,7,Hc,0.07857142857142856,0.07,0.055,0.12000000000000004
7,1,2,0,5,0.13999999999999999,2,3,47,73,71,106,0.4600000000000001,0.12999999999999998,0.07,0.09,4,1,1,1,5,1,1,1,5,0,14,7,Hc,0.092,0.12999999999999998,0.07,0.09
7,2,3,0,2,0.08,2,2,57,59,53,38,0.4600000000000002,0.060000000000000005,0.09,0.05,4,1,1,2,7,1,1,2,4,0.5,17,7,Hc,0.06571428571428571,0.060000000000000005,0.09,0.025
7,2,4,0,6,0.10999999999999999,2,3,9,6,33,36,0.5400000000000003,1.6800000000000013,0.01,0.02,4,9,1,1,5,17,1,1,6,0,22,7,Hc,0.10800000000000001,0.09882352941176471,0.01,0.02
7,3,5,0,10,0.11999999999999998,2,4,92,93,108,71,0.4500000000000001,0.03,0.13999999999999999,0.04,4,1,1,1,8,1,1,1,3,0,12,7,Hc,0.05625,0.03,0.13999999999999999,0.04
7,3,6,0,7,0.08,2,2,13,19,32,80,0.6900000000000003,0.02,0.02,0.09999999999999999,4,1,1,2,7,1,1,2,6,0,20,7,Hc,0.09857142857142857,0.02,0.02,0.05
7,4,7,0,9,0.09,2,2,69,70,116,90,0.43000000000000016,0.08,0.16,0.060000000000000005,4,1,1,1,4,1,1,1,4,0,13,7,Hc,0.10750000000000003,0.08,0.16,0.060000000000000005
7,4,8,0,5,0.09999999999999999,2,6,56,42,83,50,0.5400000000000003,0.060000000000000005,0.04,0.09,4,1,1,1,11,1,1,1,5,0,16,7,Hc,0.049090909090909095,0.060000000000000005,0.04,0.09
7,5,9,0,10,0.12999999999999998,3,4,89,69,88,110,0.5400000000000001,0.24000000000000007,0.01,0.03,5,2,1,1,8,2,1,1,3,0,12,7,Hc,0.06750000000000002,0.12000000000000002,0.01,0.03
7,5,10,0,2,0.08,2,3,50,35,104,26,0.4600000000000002,0.19000000000000003,0.04,0.060000000000000005,4,2,1,1,9,2,1,1,4,0,16,7,Hc,0.051111111111111114,0.095,0.04,0.060000000000000005
7,6,11,0,9,0.13999999999999999,3,3,61,71,33,117,0.5800000000000002,0.01,0.25000000000000006,0.15,5,1,3,1,7,1,4,1,4,0,15,7,Hc,0.08285714285714287,0.01,0.0625,0.15
7,6,12,0,10,0.13999999999999999,2,4,91,48,38,107,0.5900000000000002,0.060000000000000005,0.10999999999999999,0.05,4,1,1,2,8,1,1,3,3,0,15,7,Hc,0.07375,0.060000000000000005,0.10999999999999999,0.016666666666666666
7,7,13,1,6,0.09,2,3,10,107,100,49,0.31000000000000005,0.3200000000000001,0.13999999999999999,0.01,4,2,2,1,5,2,2,1,6,0,14,7,Hc,0.062000000000000006,0.16,0.06999999999999999,0.01
7,7,14,1,8,0.07,2,5,114,113,13,71,0.4800000000000002,0.060000000000000005,0.11999999999999998,0.05,4,1,1,1,9,1,1,1,2,0,14,7,Hc,0.053333333333333344,0.060000000000000005,0.11999999999999998,0.05
7,8,15,1,2,0.18000000000000002,4,5,52,115,50,77,0.5000000000000001,0.2900000000000001,0.2900000000000001,0.05,6,2,2,1,7,3,2,1,4,0,13,7,Hc,0.07142857142857144,0.09666666666666666,0.14500000000000005,0.05
7,8,16,1,9,0.18000000000000002,4,4,1,86,72,96,11.949999999999793,0.02,0.01,0.01,20,2,1,1,94,2,1,1,4,0,16,7,Hc,0.12712765957446812,0.01,0.01,0.01
7,9,17,1,4,0.24000000000000007,5,6,97,106,93,94,0.6600000000000003,0.01,0.09,0.03,8,1,3,1,11,1,3,1,2,0,10,7,Hc,0.06,0.01,0.03,0.03
7,9,18,1,1,0.08,2,2,78,84,52,54,0.3700000000000001,0.060000000000000005,0.15,0.08,4,1,1,2,7,1,1,2,3,0,14,7,Hc,0.05285714285714286,0.060000000000000005,0.15,0.04
7,10,19,1,9,0.18000000000000002,6,6,67,71,77,107,0.5800000000000002,0.01,0.09,0.09,8,1,1,2,11,1,1,2,4,0,13,7,Hc,0.052727272727272734,0.01,0.09,0.045000000000000005
7,10,20,1,6,0.08,2,3,12,7,111,87,0.3700000000000001,0.08,0.16,0.24000000000000007,4,1,2,2,6,1,3,2,6,0,17,7,Hc,0.06166666666666667,0.08,0.05333333333333334,0.12000000000000004
7,11,21,1,1,0.08,2,2,79,26,25,114,0.4900000000000002,0.2900000000000001,0.04,0.09,4,3,1,2,5,3,1,2,3,0,15,7,Hc,0.09800000000000002,0.09666666666666666,0.04,0.045
7,11,22,1,10,0.22000000000000006,2,3,45,85,99,57,0.6700000000000003,0.060000000000000005,0.04,0.15,5,1,1,2,8,1,1,2,3,0,14,7,Hc,0.08374999999999999,0.060000000000000005,0.04,0.07499999999999998
7,12,23,1,9,0.16,2,3,63,29,107,84,0.41000000000000003,0.20000000000000004,0.08,0.01,4,2,2,1,9,2,2,1,4,0,14,7,Hc,0.04555555555555556,0.1,0.04,0.01
7,12,24,1,8,0.20000000000000004,4,5,48,114,51,19,0.6400000000000002,0.05,0.22000000000000006,0.060000000000000005,6,1,2,2,10,1,3,2,2,0,17,7,Hc,0.064,0.05,0.07333333333333333,0.03
7,13,25,1,3,0.18000000000000002,2,3,33,35,105,6,0.5500000000000002,0.04,0.07,0.05,4,1,1,1,5,1,1,1,5,0,18,7,Hc,0.11000000000000001,0.04,0.07,0.05
7,13,26,1,7,0.25000000000000006,7,7,19,14,42,16,0.5100000000000001,0.12999999999999998,0.12999999999999998,0.03,9,1,2,1,10,2,3,1,6,0.5,23,7,Hc,0.051,0.065,0.043333333333333335,0.03
7,14,27,1,6,0.15,3,3,3,10,68,108,0.8400000000000004,0.01,0.02,0.01,5,1,1,1,10,1,1,1,6,0,18,7,Hc,0.08400000000000002,0.01,0.02,0.01
7,14,28,1,8,0.15,2,5,110,13,74,118,0.7400000000000003,1.5700000000000012,0.01,0.01,4,5,1,1,9,6,1,1,2,0,13,7,Hc,0.08222222222222224,0.26166666666666677,0.01,0.01
7,15,29,1,7,0.13999999999999999,2,3,43,24,45,17,0.5500000000000002,0.12999999999999998,0.03,1.2400000000000009,4,2,1,4,8,3,1,9,6,0,22,7,Hc,0.06875,0.043333333333333335,0.03,0.13777777777777783
7,15,30,1,1,0.16,2,4,78,62,80,71,0.4900000000000001,0.22000000000000006,0.03,0.060000000000000005,4,2,1,2,6,2,1,2,3,0,14,7,Hc,0.08166666666666668,0.11000000000000001,0.03,0.030000000000000002
7,16,31,1,3,0.21000000000000005,4,5,34,82,110,8,0.6200000000000002,0.09,0.02,0.09999999999999999,6,2,1,1,13,2,1,1,5,0,16,7,Hc,0.047692307692307694,0.045,0.02,0.09999999999999999
7,16,32,1,10,0.20000000000000004,2,3,91,43,93,107,0.4400000000000001,0.17,0.08,0.02,4,2,2,1,5,3,3,1,3,0,13,7,Hc,0.08800000000000001,0.056666666666666664,0.02666666666666667,0.02
7,17,33,1,1,0.18000000000000002,2,3,31,100,74,101,0.4600000000000001,0.12999999999999998,0.04,0.03,3,2,1,1,4,2,1,1,3,0,12,7,Hc,0.11500000000000002,0.065,0.04,0.03
7,17,34,1,8,0.11999999999999998,2,2,116,109,51,58,0.46000000000000013,0.08,0.18000000000000002,0.05,4,1,1,1,4,1,1,1,2,0,12,7,Hc,0.115,0.08,0.18000000000000002,0.05
7,18,35,1,2,0.18000000000000002,3,4,103,60,51,101,0.45000000000000007,0.13999999999999999,0.05,0.05,4,2,1,1,5,3,1,1,4,0,12,7,Hc,0.09000000000000001,0.04666666666666667,0.05,0.05
7,18,36,1,6,0.10999999999999999,2,4,2,1,79,81,0.39000000000000007,2.4499999999999917,0.01,0.01,4,11,1,1,8,17,1,1,6,0,18,7,Hc,0.04875,0.14411764705882354,0.01,0.01
7,19,37,1,8,0.10999999999999999,2,3,58,117,22,13,0.6400000000000002,0.01,0.21000000000000005,0.01,4,1,3,1,8,1,3,1,2,0,18,7,Hc,0.08000000000000002,0.01,0.06999999999999999,0.01
7,19,38,1,4,0.24000000000000007,3,4,102,80,107,34,0.6900000000000003,0.08,0.04,0.02,4,2,1,1,5,2,1,1,2,0,12,7,Hc,0.13800000000000004,0.04,0.04,0.02
7,20,39,1,2,0.13999999999999999,2,5,54,59,35,34,0.41000000000000003,0.13999999999999999,0.3300000000000001,0.05,4,2,2,2,9,3,2,2,4,0,18,7,Hc,0.04555555555555555,0.04666666666666667,0.16500000000000004,0.025
7,20,40,1,8,0.15,4,4,111,113,38,20,0.4600000000000001,0.09,0.07,0.03,6,1,2,1,10,1,2,1,2,0,15,7,Hc,0.046000000000000006,0.09,0.035,0.03
7,21,41,1,10,0.10999999999999999,2,3,88,19,87,110,0.36000000000000004,0.23000000000000007,0.05,0.04,5,2,1,1,7,2,1,1,3,0,14,7,Hc,0.051428571428571435,0.115,0.05,0.04
7,21,42,1,2,0.19000000000000003,4,4,51,2,58,108,0.6100000000000002,0.46000000000000024,0.01,0.01,6,2,1,1,7,2,1,1,4,0,16,7,Hc,0.08714285714285716,0.23000000000000012,0.01,0.01
7,22,43,1,4,0.20000000000000004,3,4,36,108,52,98,0.6100000000000002,0.11999999999999998,0.09,0.02,5,2,2,1,7,2,2,1,2,0,13,7,Hc,0.08714285714285716,0.06,0.045,0.02
7,22,44,1,6,0.11999999999999998,2,3,8,12,5,77,0.39000000000000007,0.13999999999999999,2.52999999999999,0.05,4,1,12,2,5,1,24,2,6,0.5,21,7,Hc,0.07800000000000001,0.13999999999999999,0.10541666666666669,0.025
8,1,1,0,9,0.24000000000000007,2,6,65,99,46,93,0.7200000000000003,0.35000000000000014,0.07,0.03,4,2,2,1,12,8,2,1,4,0,14,7,Hc,0.060000000000000005,0.04375,0.035,0.03
8,1,2,0,1,0.25000000000000006,4,5,75,60,82,59,0.7100000000000003,0.17,0.11999999999999998,0.17,6,2,2,2,15,2,3,2,3,0,14,7,Hc,0.04733333333333333,0.08499999999999999,0.04,0.08499999999999999
8,2,3,0,10,0.17,6,6,95,92,8,58,0.5700000000000002,0.02,0.16,0.09999999999999999,8,1,2,2,12,1,5,4,3,0,16,7,Hc,0.0475,0.02,0.032,0.025
8,2,4,0,7,0.2700000000000001,2,8,72,17,48,14,0.7400000000000003,0.03,0.22000000000000006,0.01,4,1,2,1,15,1,5,1,6,0,21,7,Hc,0.04933333333333333,0.03,0.044,0.01
8,3,5,0,1,0.13999999999999999,2,4,81,80,105,97,0.9400000000000005,0.12999999999999998,0.09,0.13999999999999999,4,2,2,2,14,2,2,4,3,0,10,7,Hc,0.06714285714285714,0.065,0.045000000000000005,0.035
8,3,6,0,10,0.20000000000000004,4,8,92,5,38,110,0.5800000000000002,0.16,0.22000000000000006,0.07,7,1,2,2,14,1,4,3,3,0,16,7,Hc,0.041428571428571426,0.16,0.055,0.02333333333333333
8,4,7,0,8,0.19000000000000003,2,6,120,63,61,75,0.6000000000000002,0.23000000000000007,0.01,0.22000000000000006,4,2,1,2,12,7,1,5,2,0,13,7,Hc,0.05,0.032857142857142856,0.01,0.044
8,4,8,0,10,0.22000000000000006,2,6,87,102,94,34,0.6600000000000003,0.12999999999999998,0.11999999999999998,0.060000000000000005,4,2,2,2,12,3,2,3,3,0,13,7,Hc,0.055,0.04333333333333333,0.06,0.02
8,5,9,0,7,0.20000000000000004,2,5,23,47,81,45,0.5900000000000002,0.20000000000000004,0.08,0.060000000000000005,4,2,1,1,13,5,1,2,6,0,19,7,Hc,0.045384615384615384,0.04,0.08,0.03
8,5,10,0,4,0.26000000000000006,8,9,100,97,12,98,0.6800000000000003,0.11999999999999998,0.15,0.11999999999999998,10,1,2,2,12,1,4,3,2,0.5,12,7,Hc,0.05666666666666667,0.11999999999999998,0.0375,0.039999999999999994
8,6,11,0,4,0.15,5,6,101,62,38,9,0.18,0.5200000000000002,0.07,0.13999999999999999,6,2,2,2,7,7,3,4,2,0,17,7,Hc,0.025714285714285714,0.07428571428571429,0.023333333333333334,0.035
8,6,12,0,8,0.15,2,5,117,58,21,33,0.5000000000000001,0.3000000000000001,0.3200000000000001,0.05,4,2,2,2,10,6,3,2,2,0,17,7,Hc,0.05000000000000001,0.05,0.10666666666666669,0.025
8,7,13,1,6,0.25000000000000006,2,4,8,117,2,112,0.7600000000000002,0.46000000000000024,0.8500000000000005,0.060000000000000005,4,2,5,2,12,7,11,2,6,0,16,7,Hc,0.06333333333333334,0.06571428571428571,0.07727272727272728,0.030000000000000002
8,7,14,1,10,0.23000000000000007,10,10,88,85,101,92,0.5400000000000001,0.22000000000000006,0.49000000000000027,0.15,12,2,2,2,13,5,2,3,3,0.5,11,7,Hc,0.041538461538461545,0.044,0.2450000000000001,0.05
8,8,15,1,10,0.18000000000000002,2,4,85,62,65,68,0.6300000000000002,0.18000000000000002,0.04,0.08,4,2,1,2,12,5,1,3,3,0.5,15,7,Hc,0.052500000000000005,0.036000000000000004,0.04,0.02666666666666667
8,8,16,1,5,0.25000000000000006,2,6,100,55,2,101,0.6800000000000003,0.2800000000000001,0.07,0.07,6,2,2,1,11,4,2,1,5,0,14,7,Hc,0.06181818181818183,0.06999999999999999,0.035,0.07
8,9,17,1,1,0.22000000000000006,2,5,82,99,80,79,0.6100000000000002,0.36000000000000015,0.8800000000000006,0.09999999999999999,4,3,3,2,13,6,8,2,3,0.5,11,7,Hc,0.04692307692307692,0.060000000000000005,0.11,0.05
8,9,18,1,7,0.10999999999999999,3,3,15,19,16,96,0.5600000000000003,0.02,0.11999999999999998,0.17,5,1,2,2,12,1,3,3,6,0.5,21,7,Hc,0.04666666666666666,0.02,0.04,0.05666666666666667
8,10,19,1,8,0.20000000000000004,5,5,109,116,24,65,0.5500000000000002,0.09999999999999999,0.21000000000000005,0.03,7,1,2,1,16,1,6,1,2,0,14,7,Hc,0.034375,0.09999999999999999,0.035,0.03
8,10,20,1,2,0.18000000000000002,2,5,54,53,90,87,0.5200000000000001,0.25000000000000006,0.09999999999999999,0.18000000000000002,4,2,1,5,9,3,1,5,4,0,14,7,Hc,0.05777777777777778,0.08333333333333334,0.09999999999999999,0.036000000000000004
8,11,21,1,4,0.17,2,6,99,100,39,38,0.5900000000000002,0.01,0.2700000000000001,0.05,4,1,3,1,11,1,9,1,2,0,14,7,Hc,0.053636363636363635,0.01,0.030000000000000002,0.05
8,11,22,1,6,0.25000000000000006,8,8,9,12,7,118,0.6600000000000003,0.02,1.0900000000000007,0.07,10,1,6,2,19,1,15,2,6,0.5,20,7,Hc,0.034736842105263156,0.02,0.07266666666666667,0.035
8,12,23,1,4,0.16,3,6,108,70,45,43,0.5100000000000001,0.20000000000000004,0.10999999999999999,0.09,5,2,2,2,11,3,3,2,2,0,16,7,Hc,0.046363636363636364,0.06666666666666667,0.03666666666666667,0.045000000000000005
8,12,24,1,7,0.16,2,3,22,50,115,17,0.6000000000000002,0.2700000000000001,0.02,0.13999999999999999,4,2,1,3,9,4,1,3,6,0,18,7,Hc,0.06666666666666667,0.06749999999999999,0.02,0.04666666666666666
8,13,25,1,1,0.2800000000000001,6,8,81,15,30,107,0.6500000000000002,0.3300000000000001,0.4300000000000002,0.01,8,2,2,1,17,4,4,1,3,0,16,7,Hc,0.03823529411764706,0.08250000000000002,0.10750000000000001,0.01
8,13,26,1,5,0.15,2,3,46,1,57,7,0.6100000000000002,0.25000000000000006,0.34000000000000014,0.13999999999999999,4,2,5,3,9,3,5,4,5,0,21,7,Hc,0.06777777777777778,0.08333333333333331,0.068,0.035
8,14,27,1,5,0.22000000000000006,3,9,41,69,61,3,0.6900000000000003,0.18000000000000002,0.19000000000000003,0.16,5,2,2,2,14,2,5,3,5,0,19,7,Hc,0.04928571428571429,0.09,0.038,0.05333333333333334
8,14,28,1,4,0.21000000000000005,2,4,99,23,57,52,0.5900000000000002,0.20000000000000004,0.02,0.16,4,2,1,2,9,4,1,3,2,0,16,7,Hc,0.06555555555555556,0.049999999999999996,0.02,0.05333333333333334
8,15,29,1,7,0.20000000000000004,2,5,17,115,116,42,0.7500000000000003,1.2300000000000009,0.6300000000000003,0.09,4,8,6,2,17,21,8,2,6,0,15,7,Hc,0.044117647058823525,0.05857142857142857,0.07875,0.045000000000000005
8,15,30,1,1,0.15,3,5,82,80,57,81,0.5700000000000002,0.01,0.19000000000000003,0.09,5,1,2,2,14,1,3,3,3,0.5,13,7,Hc,0.04071428571428571,0.01,0.06333333333333334,0.030000000000000002
8,16,31,1,10,0.22000000000000006,2,6,96,45,54,39,0.6000000000000002,0.24000000000000007,0.09999999999999999,0.19000000000000003,5,2,2,2,12,3,3,3,3,0,17,7,Hc,0.05,0.08000000000000002,0.03333333333333333,0.06333333333333332
8,16,32,1,3,0.23000000000000007,7,7,32,26,97,106,0.6500000000000002,0.060000000000000005,0.3900000000000002,0.09999999999999999,9,1,4,2,18,1,5,3,5,0,14,7,Hc,0.036111111111111115,0.060000000000000005,0.078,0.03333333333333333
8,17,33,1,1,0.11999999999999998,2,5,83,13,28,15,0.5400000000000001,0.3000000000000001,0.01,0.09,4,4,1,1,13,8,1,1,3,0,20,7,Hc,0.041538461538461545,0.0375,0.01,0.09
8,17,34,1,6,0.21000000000000005,2,6,4,118,60,3,0.4900000000000001,1.1800000000000008,0.08,0.03,4,3,2,1,8,16,2,1,6,0,18,7,Hc,0.061250000000000006,0.07375000000000001,0.04,0.03
8,18,35,1,7,0.2900000000000001,8,9,15,21,90,109,0.7000000000000003,0.01,0.4100000000000002,0.16,10,1,4,2,13,1,11,2,6,0,17,7,Hc,0.05384615384615385,0.01,0.03727272727272727,0.07999999999999999
8,18,36,1,4,0.15,2,3,102,108,52,47,0.5100000000000001,0.09999999999999999,0.17,0.11999999999999998,4,1,2,2,7,1,3,2,2,0,13,7,Hc,0.07285714285714286,0.09999999999999999,0.056666666666666664,0.06
8,19,37,1,4,0.17,3,3,105,22,44,49,0.21000000000000002,0.48000000000000026,0.13999999999999999,0.3200000000000001,4,2,2,2,4,3,4,2,2,0,17,7,Hc,0.0525,0.16,0.035,0.16000000000000003
8,19,38,1,9,0.25000000000000006,7,8,63,69,4,32,0.7200000000000003,0.02,0.20000000000000004,0.18000000000000002,10,1,2,3,21,1,5,4,4,0,19,7,Hc,0.03428571428571429,0.02,0.039999999999999994,0.045
8,20,39,1,9,0.20000000000000004,7,7,71,62,61,34,0.6600000000000003,0.05,0.09,0.37000000000000016,9,1,1,4,16,1,1,6,4,0.5,17,7,Hc,0.04125,0.05,0.09,0.061666666666666675
8,20,40,1,4,0.18000000000000002,2,3,108,99,89,40,0.5500000000000002,0.25000000000000006,0.09999999999999999,0.10999999999999999,4,2,2,2,11,4,3,2,2,0,12,7,Hc,0.05,0.0625,0.03333333333333333,0.05499999999999999
8,21,41,1,8,0.13999999999999999,2,4,113,117,46,57,0.5100000000000001,0.23000000000000007,0.01,0.16,4,2,1,2,10,5,1,5,2,0,13,7,Hc,0.051000000000000004,0.046,0.01,0.032
8,21,42,1,3,0.21000000000000005,5,5,30,34,17,13,0.6700000000000003,0.16,0.8100000000000005,0.04,7,2,9,2,13,3,12,2,5,0,22,7,Hc,0.05153846153846154,0.05333333333333333,0.0675,0.02
8,22,43,1,4,0.25000000000000006,7,7,108,100,103,33,0.6200000000000002,0.01,0.11999999999999998,0.5800000000000003,9,1,2,4,16,1,3,7,2,0.5,11,7,Hc,0.03875,0.01,0.039999999999999994,0.08285714285714287
8,22,44,1,7,0.26000000000000006,4,5,24,43,44,15,0.5600000000000002,0.16,0.07,0.22000000000000006,6,2,1,2,8,3,1,4,6,0,22,7,Hc,0.07,0.05333333333333333,0.07,0.055
9,1,1,0,5,0.5000000000000002,2,6,22,119,21,44,3.6499999999999773,0.5900000000000003,0.21000000000000005,0.04,11,2,2,1,36,6,4,1,5,0,19,7,Hc,0.1013888888888889,0.09833333333333334,0.0525,0.04
9,1,2,0,9,0.24000000000000007,2,4,6,64,34,10,6.639999999999908,0.01,0.01,0.060000000000000005,10,1,1,2,80,1,1,2,4,0,21,7,Hc,0.083,0.01,0.01,0.03
9,2,3,0,6,0.8000000000000005,2,11,1,4,69,120,3.209999999999993,9.14999999999985,0.02,0.02,5,19,2,1,45,95,2,1,6,0,18,7,Hc,0.07133333333333333,0.09631578947368422,0.01,0.02
9,2,4,0,2,0.37000000000000016,3,7,53,41,106,54,3.3599999999999803,1.0800000000000007,0.18000000000000002,0.07,7,2,1,2,38,13,1,2,4,0,15,7,Hc,0.08842105263157896,0.08307692307692308,0.18000000000000002,0.035
9,3,5,0,10,0.5100000000000002,2,6,92,21,91,64,3.799999999999974,0.6400000000000003,0.07,0.24000000000000007,8,4,2,2,43,9,2,4,3,0,16,7,Hc,0.08837209302325583,0.07111111111111111,0.035,0.06
9,3,6,0,1,1.0200000000000007,2,12,83,58,44,50,3.4699999999999926,0.7700000000000005,0.3900000000000002,0.23000000000000007,5,3,2,2,46,13,4,3,3,0,16,7,Hc,0.07543478260869566,0.05923076923076923,0.09749999999999999,0.07666666666666666
9,4,7,0,9,0.9300000000000006,2,12,71,1,77,70,6.77999999999992,0.03,0.01,0.02,11,2,1,1,79,2,1,1,4,0,17,7,Hc,0.08582278481012659,0.015,0.01,0.02
9,4,8,0,7,0.37000000000000016,2,5,14,95,21,43,3.1599999999999846,0.8800000000000006,0.19000000000000003,0.08,8,2,2,1,39,14,2,1,6,0,20,7,Hc,0.08102564102564104,0.06285714285714286,0.095,0.08
9,5,9,0,4,0.6400000000000003,2,13,97,71,102,62,2.9099999999999957,0.7500000000000004,0.16,0.37000000000000016,6,3,3,3,43,7,3,3,2,0,12,7,Hc,0.06767441860465116,0.10714285714285715,0.05333333333333333,0.12333333333333336
9,5,10,0,2,0.8500000000000005,2,15,38,23,44,14,3.7099999999999835,0.6600000000000004,0.08,0.12999999999999998,6,2,1,1,51,11,1,2,4,0,22,7,Hc,0.0727450980392157,0.06,0.08,0.06499999999999999
9,6,11,0,2,0.6900000000000004,2,10,18,56,13,57,4.079999999999972,0.21000000000000005,3.00999999999998,0.07,9,3,5,2,55,4,33,2,4,0,20,7,Hc,0.07418181818181818,0.0525,0.09121212121212122,0.035
9,6,12,0,10,0.3000000000000001,2,5,1,85,8,93,8.259999999999875,0.01,0.01,0.01,15,1,1,1,114,1,1,1,3,0,18,7,Hc,0.0724561403508772,0.01,0.01,0.01
9,7,13,1,7,0.7700000000000005,2,13,39,15,42,55,3.549999999999985,0.3000000000000001,0.46000000000000024,1.0400000000000007,9,2,2,4,48,4,8,13,6,0,20,7,Hc,0.07395833333333333,0.075,0.057499999999999996,0.08000000000000002
9,7,14,1,1,0.4100000000000002,2,6,76,82,68,3,2.629999999999997,0.38000000000000017,0.5700000000000003,0.11999999999999998,5,2,2,1,36,4,7,2,3,0,16,7,Hc,0.07305555555555557,0.09500000000000001,0.08142857142857145,0.06
9,8,15,1,7,0.9600000000000006,2,21,22,105,43,37,2.600000000000002,2.6599999999999873,0.22000000000000006,0.03,4,5,2,1,41,34,3,1,6,0,18,7,Hc,0.06341463414634146,0.07823529411764707,0.07333333333333333,0.03
9,8,16,1,3,0.6600000000000004,2,14,25,94,55,54,2.450000000000002,1.9600000000000015,0.21000000000000005,0.16,4,4,2,3,30,26,4,3,5,0,16,7,Hc,0.08166666666666667,0.07538461538461538,0.0525,0.05333333333333333
9,9,17,1,10,1.0200000000000007,2,16,36,95,3,90,3.929999999999983,0.3300000000000001,0.2900000000000001,0.17,5,2,4,2,53,3,6,2,3,0,17,7,Hc,0.07415094339622641,0.11,0.04833333333333333,0.08499999999999999
9,9,18,1,5,0.7600000000000005,7,12,47,42,44,106,3.8299999999999788,0.47000000000000025,0.20000000000000004,0.09,12,2,2,1,44,4,4,1,5,0.5,17,7,Hc,0.08704545454545455,0.1175,0.05,0.09
9,10,19,1,4,0.9000000000000006,3,12,98,28,95,29,4.0099999999999785,0.22000000000000006,0.18000000000000002,0.18000000000000002,5,2,3,2,60,3,3,3,2,0,15,7,Hc,0.06683333333333333,0.07333333333333333,0.06,0.06
9,10,20,1,7,0.26000000000000006,2,3,13,45,14,16,7.629999999999887,0.01,0.01,0.12999999999999998,13,1,1,3,100,1,1,3,6,0.5,23,7,Hc,0.0763,0.01,0.01,0.043333333333333335
9,11,21,1,9,0.48000000000000026,2,7,67,69,30,64,2.609999999999999,0.9100000000000006,0.2800000000000001,0.21000000000000005,9,2,2,2,39,9,3,2,4,0.5,17,7,Hc,0.06692307692307692,0.10111111111111112,0.09333333333333335,0.10499999999999998
9,11,22,1,5,1.420000000000001,2,20,1,47,46,41,4.389999999999982,0.6800000000000004,0.35000000000000014,0.34000000000000014,9,2,3,4,49,6,7,5,5,0.5,21,7,Hc,0.08959183673469388,0.11333333333333334,0.05,0.068
9,12,23,1,6,0.6700000000000004,2,8,11,51,53,41,3.9399999999999746,0.6400000000000003,0.3200000000000001,0.3100000000000001,4,4,3,4,56,8,3,7,6,0,19,7,Hc,0.07035714285714287,0.08,0.10666666666666669,0.04428571428571429
9,12,24,1,3,0.5300000000000002,3,7,30,31,36,19,3.169999999999988,0.6000000000000003,0.4200000000000002,0.12999999999999998,6,3,3,2,51,5,5,2,5,0.5,21,7,Hc,0.06215686274509804,0.12000000000000001,0.08400000000000002,0.06499999999999999
9,13,25,1,3,0.6600000000000004,2,10,36,29,19,27,3.879999999999976,0.03,0.4200000000000002,0.19000000000000003,4,1,6,2,67,1,9,4,5,0.5,21,7,Hc,0.05791044776119403,0.03,0.04666666666666667,0.0475
9,13,26,1,1,0.7700000000000005,3,11,82,108,51,10,4.379999999999967,0.34000000000000014,0.2700000000000001,0.09,7,2,3,2,58,3,4,2,3,0,15,7,Hc,0.07551724137931035,0.11333333333333334,0.06749999999999999,0.045
9,14,27,1,10,0.3300000000000001,2,6,96,88,93,87,2.9699999999999878,0.5200000000000002,0.3100000000000001,0.08,10,6,3,2,46,10,8,3,3,1,36,7,Hc,0.06456521739130436,0.052,0.03875,0.02666666666666667
9,14,28,1,7,0.6700000000000004,2,12,57,31,50,16,3.7199999999999793,0.3000000000000001,0.20000000000000004,0.09999999999999999,6,2,2,1,35,2,4,2,6,0,19,7,Hc,0.1062857142857143,0.15,0.05,0.05
9,15,29,1,1,0.6900000000000004,4,15,81,56,60,19,2.560000000000002,1.0200000000000007,0.24000000000000007,0.3200000000000001,8,4,2,2,33,11,3,3,3,0,17,7,Hc,0.07757575757575759,0.09272727272727273,0.08,0.10666666666666667
9,15,30,1,10,0.4300000000000002,2,6,89,30,35,33,2.739999999999995,0.8400000000000005,0.12999999999999998,0.9700000000000006,5,3,1,4,31,11,2,17,3,0.5,18,7,Hc,0.08838709677419355,0.07636363636363636,0.065,0.057058823529411766
9,16,31,1,5,0.7700000000000005,2,16,41,45,108,40,3.6399999999999832,0.6200000000000003,0.47000000000000025,0.9800000000000006,6,4,3,8,62,11,6,13,5,0.5,17,7,Hc,0.05870967741935484,0.056363636363636366,0.07833333333333332,0.0753846153846154
9,16,32,1,3,0.9300000000000006,2,15,35,29,5,7,3.0000000000000004,1.0600000000000007,0.45000000000000023,0.23000000000000007,4,2,2,2,47,13,6,7,5,0,22,7,Hc,0.06382978723404256,0.08153846153846155,0.075,0.032857142857142856
9,17,33,1,3,0.6800000000000004,3,11,29,34,54,52,2.560000000000002,0.8800000000000006,0.8800000000000006,0.2800000000000001,5,3,5,4,37,15,15,5,5,0,18,7,Hc,0.06918918918918919,0.058666666666666666,0.058666666666666666,0.056
9,17,34,1,9,0.8800000000000006,2,16,65,72,12,2,2.740000000000002,1.0700000000000007,0.5600000000000003,0.09,5,2,2,1,43,13,5,2,4,0,20,7,Hc,0.06372093023255815,0.0823076923076923,0.11199999999999999,0.045
9,18,35,1,9,0.9000000000000006,2,9,28,29,66,63,3.5899999999999874,0.8200000000000005,0.09999999999999999,0.23000000000000007,11,2,1,4,38,14,1,6,4,0,18,7,Hc,0.09447368421052632,0.058571428571428566,0.09999999999999999,0.03833333333333334
9,18,36,1,6,1.270000000000001,2,15,51,10,3,2,5.009999999999965,0.26000000000000006,1.1100000000000008,0.6900000000000004,11,2,5,5,55,5,13,9,6,0.5,22,7,Hc,0.0910909090909091,0.052000000000000005,0.08538461538461538,0.07666666666666666
9,19,37,1,10,0.36000000000000015,2,4,92,57,59,53,3.37999999999998,0.15,0.26000000000000006,0.6400000000000003,6,2,2,4,42,2,6,9,3,0.5,15,7,Hc,0.08047619047619048,0.075,0.043333333333333335,0.07111111111111111
9,19,38,1,1,0.47000000000000025,2,9,78,84,38,42,2.3600000000000017,0.6100000000000003,1.440000000000001,0.16,4,4,5,2,37,11,19,2,3,0,16,7,Hc,0.06378378378378378,0.05545454545454545,0.07578947368421053,0.08
9,20,39,1,2,0.17,2,6,15,90,93,102,7.139999999999896,0.05,0.09,0.01,19,2,1,1,95,2,1,1,4,0,14,7,Hc,0.07515789473684212,0.025,0.09,0.01
9,20,40,1,8,0.8800000000000006,3,15,109,112,77,68,2.9699999999999998,0.47000000000000025,0.5300000000000002,0.2800000000000001,8,3,2,2,43,8,7,7,2,0,11,7,Hc,0.06906976744186047,0.058750000000000004,0.07571428571428572,0.04
9,21,41,1,4,0.5400000000000003,2,8,98,103,84,80,3.1299999999999892,1.1900000000000008,0.20000000000000004,0.05,7,8,2,1,50,21,3,1,2,0,10,7,Hc,0.0626,0.05666666666666667,0.06666666666666667,0.05
9,21,42,1,8,0.3200000000000001,4,7,68,96,111,90,7.449999999999893,0.19000000000000003,0.01,0.01,14,3,1,1,94,3,1,1,2,0,12,7,Hc,0.07925531914893617,0.06333333333333332,0.01,0.01
10,1,1,0,1,0.21000000000000005,2,3,80,40,53,79,0.6800000000000003,0.20000000000000004,0.07,0.07,4,2,1,1,5,2,1,1,3,0,15,7,Hc,0.136,0.1,0.07,0.07
10,1,2,0,9,0.35000000000000014,6,7,69,92,22,101,0.7900000000000004,0.5100000000000002,0.02,0.07,7,1,1,1,8,1,1,1,4,0,15,7,Hc,0.09875000000000003,0.5100000000000002,0.02,0.07
10,2,3,0,9,0.22000000000000006,2,2,69,74,106,79,0.7000000000000003,0.22000000000000006,0.15,0.04,3,1,2,1,3,1,2,1,4,0,12,7,Hc,0.23333333333333342,0.22000000000000006,0.075,0.04
10,2,4,0,2,0.16,2,2,3,86,9,116,48.92999999999886,0.01,0.02,0.01,20,1,1,1,77,1,1,1,4,0,17,7,Hc,0.6354545454545456,0.01,0.02,0.01
10,3,5,0,5,0.24000000000000007,2,3,44,80,9,78,0.7000000000000003,0.22000000000000006,0.08,0.08,4,1,1,1,5,1,1,1,5,0,17,7,Hc,0.14,0.22000000000000006,0.08,0.08
10,3,6,0,3,0.18000000000000002,2,2,34,27,69,91,0.7400000000000003,0.11999999999999998,0.2800000000000001,0.060000000000000005,4,1,2,1,4,1,2,1,5,0,17,7,Hc,0.18500000000000003,0.11999999999999998,0.14,0.060000000000000005
10,4,7,0,10,0.07,1,2,93,89,113,6,0.4500000000000002,0.18000000000000002,0.20000000000000004,0.05,3,1,1,1,4,1,1,1,3,0,14,7,Hc,0.11250000000000003,0.18000000000000002,0.20000000000000004,0.05
10,4,8,0,5,0.24000000000000007,2,3,57,101,53,41,0.6700000000000003,0.34000000000000014,0.05,0.07,3,1,1,1,4,1,1,1,5,0,15,7,Hc,0.16750000000000004,0.34000000000000014,0.05,0.07
10,5,9,0,4,0.3200000000000001,6,7,102,100,28,59,0.8500000000000003,0.09999999999999999,0.15,0.05,8,1,1,1,11,1,1,1,2,0,13,7,Hc,0.07727272727272727,0.09999999999999999,0.15,0.05
10,5,10,0,8,0.17,2,3,46,68,40,82,0.8900000000000005,0.11999999999999998,0.5700000000000003,0.04,4,1,2,1,5,1,2,1,2,0,17,7,Hc,0.17800000000000007,0.11999999999999998,0.28500000000000014,0.04
10,6,11,0,3,0.09999999999999999,2,2,1,57,86,52,12.439999999999781,0.01,0.01,0.01,19,1,1,1,27,1,1,1,5,0,17,7,Hc,0.46074074074074084,0.01,0.01,0.01
10,6,12,0,9,0.20000000000000004,4,4,64,45,37,16,0.6700000000000003,0.2900000000000001,0.07,0.060000000000000005,6,2,1,1,6,2,1,1,4,0,20,7,Hc,0.1116666666666667,0.14500000000000002,0.07,0.060000000000000005
10,7,13,1,5,0.18000000000000002,4,4,43,75,41,116,0.6800000000000003,0.16,0.10999999999999999,0.08,6,1,2,1,7,1,2,1,5,0,15,7,Hc,0.09714285714285714,0.16,0.05499999999999999,0.08
10,7,14,1,4,0.17,2,2,97,31,54,60,0.5300000000000001,0.4000000000000002,0.060000000000000005,0.05,3,2,1,1,3,2,1,1,2,0,15,7,Hc,0.17666666666666672,0.2,0.060000000000000005,0.05
10,8,15,1,10,0.15,2,2,93,111,96,30,0.6000000000000002,0.2700000000000001,0.19000000000000003,0.060000000000000005,3,2,2,1,3,2,2,1,3,0,13,7,Hc,0.20000000000000007,0.135,0.095,0.060000000000000005
10,8,16,1,7,0.21000000000000005,2,3,82,78,105,19,0.6500000000000002,0.5100000000000002,0.11999999999999998,0.02,3,3,1,1,4,5,1,1,6,0,14,7,Hc,0.16250000000000006,0.10200000000000002,0.11999999999999998,0.02
10,9,17,1,7,0.3300000000000001,6,6,55,23,57,92,0.9600000000000004,0.05,0.04,0.09999999999999999,8,1,1,1,8,1,1,1,6,0,17,7,Hc,0.12000000000000002,0.05,0.04,0.09999999999999999
10,9,18,1,6,0.16,3,3,8,5,84,27,0.4800000000000001,4.389999999999951,0.060000000000000005,0.01,4,7,1,1,4,10,1,1,6,0,20,7,Hc,0.12000000000000004,0.4390000000000002,0.060000000000000005,0.01
10,10,19,1,1,0.20000000000000004,2,3,12,62,84,7,0.8400000000000004,0.09999999999999999,0.060000000000000005,0.03,4,1,1,1,5,1,1,1,3,0,19,7,Hc,0.16800000000000004,0.09999999999999999,0.060000000000000005,0.03
10,10,20,1,2,0.24000000000000007,2,3,89,21,94,19,0.6600000000000003,0.2900000000000001,0.060000000000000005,0.05,4,1,1,1,5,1,1,1,4,0,18,7,Hc,0.13200000000000003,0.2900000000000001,0.060000000000000005,0.05
10,11,21,1,1,0.16,2,2,77,31,58,60,0.5300000000000001,0.3000000000000001,0.09,0.07,3,2,1,1,3,2,1,1,3,0,16,7,Hc,0.17666666666666672,0.15000000000000002,0.09,0.07
10,11,22,1,9,0.18000000000000002,2,3,114,72,110,86,0.7500000000000003,0.2900000000000001,0.04,0.04,3,2,1,1,4,2,1,1,4,0,11,7,Hc,0.18750000000000008,0.14500000000000002,0.04,0.04
10,12,23,1,6,0.17,2,3,7,114,50,5,0.44000000000000006,0.4000000000000002,0.08,0.05,4,1,1,1,5,1,1,1,6,0,18,7,Hc,0.08800000000000002,0.4000000000000002,0.08,0.05
10,12,24,1,4,0.37000000000000016,8,8,104,69,18,100,0.7600000000000003,0.3300000000000001,0.13999999999999999,0.02,9,2,1,1,9,2,1,1,2,0,14,7,Hc,0.08444444444444446,0.165,0.13999999999999999,0.02
10,13,25,1,5,0.23000000000000007,4,4,39,85,51,41,0.5700000000000002,0.2800000000000001,1.5700000000000012,0.3100000000000001,5,1,3,2,5,1,3,2,5,0,17,7,Hc,0.11400000000000003,0.2800000000000001,0.5233333333333337,0.15500000000000005
10,13,26,1,3,0.2800000000000001,6,6,34,29,117,81,0.8200000000000003,0.09999999999999999,0.34000000000000014,0.17,8,1,1,1,9,1,1,1,5,0,15,7,Hc,0.09111111111111111,0.09999999999999999,0.34000000000000014,0.17
10,14,27,1,4,0.20000000000000004,2,3,102,1,92,8,0.4600000000000001,0.2900000000000001,0.10999999999999999,1.1900000000000008,4,1,1,2,5,1,1,2,2,0,17,7,Hc,0.092,0.2900000000000001,0.10999999999999999,0.5950000000000004
10,14,28,1,7,0.15,2,3,49,36,17,119,0.6900000000000003,0.24000000000000007,0.09999999999999999,0.08,3,2,2,1,4,2,2,1,6,0,17,7,Hc,0.17250000000000007,0.12,0.05,0.08
10,15,29,1,7,0.17,2,3,64,24,114,118,0.8800000000000004,0.07,0.3900000000000002,3.0199999999999796,3,1,3,4,4,1,3,4,6,0,14,7,Hc,0.2200000000000001,0.07,0.13,0.7550000000000006
10,15,30,1,6,0.18000000000000002,2,2,2,33,56,101,0.4600000000000001,0.3300000000000001,0.11999999999999998,0.11999999999999998,3,1,1,1,3,1,1,1,6,0,17,7,Hc,0.15333333333333335,0.3300000000000001,0.11999999999999998,0.11999999999999998
10,16,31,1,9,0.19000000000000003,2,3,64,25,61,105,0.5500000000000002,0.38000000000000017,0.01,0.09999999999999999,3,2,1,1,4,2,1,1,4,0,15,7,Hc,0.13750000000000004,0.19000000000000006,0.01,0.09999999999999999
10,16,32,1,2,0.12999999999999998,2,2,16,57,23,120,16.289999999999726,0.01,0.01,0.01,16,1,1,1,20,1,1,1,4,0,18,7,Hc,0.8144999999999987,0.01,0.01,0.01
10,17,33,1,3,0.09999999999999999,2,3,25,20,119,69,0.5600000000000003,1.430000000000001,0.09999999999999999,0.05,4,3,1,1,5,3,1,1,5,0,17,7,Hc,0.11200000000000002,0.4766666666666669,0.09999999999999999,0.05
10,17,34,1,6,0.04,2,2,12,9,10,2,0.41000000000000014,0.09999999999999999,0.08,54.17999999999779,3,1,1,16,3,1,1,63,6,1,72,7,Hc,0.13666666666666671,0.09999999999999999,0.08,0.8599999999999989
10,18,35,1,6,0.09,2,2,2,5,107,25,0.5000000000000002,0.10999999999999999,0.16,0.09,4,1,2,1,4,1,2,1,6,0,19,7,Hc,0.12500000000000003,0.10999999999999999,0.07999999999999999,0.09
10,18,36,1,5,0.21000000000000005,2,3,21,47,23,112,0.7800000000000004,0.19000000000000003,0.09999999999999999,0.060000000000000005,3,1,1,1,4,1,1,1,5,0,19,7,Hc,0.19500000000000006,0.19000000000000003,0.09999999999999999,0.060000000000000005
10,19,37,1,5,0.12999999999999998,2,3,47,110,112,55,0.7100000000000003,0.2800000000000001,0.060000000000000005,0.08,4,1,1,1,5,1,1,1,5,0,13,7,Hc,0.14200000000000004,0.2800000000000001,0.060000000000000005,0.08
10,19,38,1,6,0.13999999999999999,2,3,83,32,66,76,0.8800000000000004,0.11999999999999998,0.10999999999999999,0.7900000000000005,3,1,1,2,4,1,1,2,6,0,15,7,Hc,0.2200000000000001,0.11999999999999998,0.10999999999999999,0.39500000000000024
10,20,39,1,3,0.20000000000000004,2,2,19,27,22,98,13.51999999999976,0.01,0.01,0.01,10,1,1,1,13,1,1,1,5,0,19,7,Hc,1.0399999999999963,0.01,0.01,0.01
10,20,40,1,9,0.4100000000000002,2,3,70,64,76,114,1.0800000000000005,2.4099999999999926,0.04,0.02,3,2,1,1,4,2,1,1,4,0,13,7,Hc,0.27000000000000013,1.204999999999997,0.04,0.02
10,21,41,1,3,0.36000000000000015,2,3,35,120,1,112,0.7300000000000003,1.1900000000000008,0.01,0.01,4,2,1,1,5,2,1,1,5,0,15,7,Hc,0.14600000000000002,0.5950000000000004,0.01,0.01
10,21,42,1,10,0.15,2,3,95,51,23,60,0.5300000000000001,0.2700000000000001,1.1000000000000008,0.01,3,1,2,1,4,1,3,1,3,0,17,7,Hc,0.13250000000000003,0.2700000000000001,0.3666666666666668,0.01
11,1,1,0,2,0.2700000000000001,2,4,53,17,56,14,0.5400000000000001,0.13999999999999999,0.12999999999999998,0.04,3,2,1,1,5,2,1,1,4,0,20,7,Hc,0.10800000000000001,0.06999999999999999,0.12999999999999998,0.04
11,1,2,0,9,0.24000000000000007,2,3,29,72,2,28,0.6700000000000003,0.01,0.060000000000000005,0.05,4,1,1,1,10,1,1,1,4,0,20,7,Hc,0.06699999999999999,0.01,0.060000000000000005,0.05
11,2,3,0,3,0.25000000000000006,2,3,36,33,8,10,0.5200000000000001,0.09,0.08,0.09,4,1,1,2,5,1,1,2,5,0,22,7,Hc,0.104,0.09,0.08,0.045
11,2,4,0,7,0.21000000000000005,2,3,15,41,62,23,0.4700000000000001,0.18000000000000002,0.060000000000000005,0.23000000000000007,4,1,1,2,5,1,1,2,6,0,21,7,Hc,0.09399999999999999,0.18000000000000002,0.060000000000000005,0.11500000000000002
11,3,5,0,1,0.10999999999999999,2,2,14,66,16,73,20.740000000000425,0.03,0.01,0.01,20,2,1,1,46,2,1,1,3,0,19,7,Hc,0.4508695652173916,0.015,0.01,0.01
11,3,6,0,10,0.13999999999999999,1,2,48,45,7,42,0.44000000000000006,0.12999999999999998,0.09,0.04,2,2,1,1,3,2,1,1,3,0.5,21,7,Hc,0.1466666666666667,0.06499999999999999,0.09,0.04
11,4,7,0,3,0.23000000000000007,2,3,33,25,75,104,0.5100000000000001,0.08,0.17,0.09999999999999999,4,1,1,1,5,1,1,1,5,0,15,7,Hc,0.10200000000000001,0.08,0.17,0.09999999999999999
11,4,8,0,8,0.25000000000000006,7,7,114,115,90,38,0.4900000000000001,0.8200000000000005,0.01,0.19000000000000003,8,3,1,2,8,4,1,2,2,0,12,7,Hc,0.06125000000000001,0.2050000000000001,0.01,0.09500000000000001
11,5,9,0,2,0.18000000000000002,2,3,51,49,99,103,0.38000000000000006,0.07,0.16,0.19000000000000003,3,1,1,1,4,1,1,1,4,0,12,7,Hc,0.09500000000000001,0.07,0.16,0.19000000000000003
11,5,10,0,1,0.37000000000000016,7,8,78,47,77,37,0.6700000000000003,0.09,0.09,0.05,8,1,1,1,9,1,1,1,3,0,16,7,Hc,0.07444444444444445,0.09,0.09,0.05
11,6,11,0,2,0.16,1,2,59,38,73,97,0.4700000000000001,0.11999999999999998,0.12999999999999998,0.16,3,1,1,1,4,1,1,1,4,0,14,7,Hc,0.11750000000000002,0.11999999999999998,0.12999999999999998,0.16
11,6,12,0,8,0.23000000000000007,5,5,112,62,72,71,0.4200000000000001,1.410000000000001,0.01,0.03,6,4,1,1,6,5,1,1,2,0.5,14,7,Hc,0.07,0.28200000000000014,0.01,0.03
11,7,13,1,2,0.19000000000000003,2,3,53,111,91,56,0.4100000000000001,0.23000000000000007,0.09,0.060000000000000005,4,1,1,2,5,1,1,2,4,0,13,7,Hc,0.08199999999999999,0.23000000000000007,0.09,0.03
11,7,14,1,5,0.23000000000000007,4,5,48,44,15,77,0.4800000000000001,0.08,0.19000000000000003,0.04,5,1,2,1,6,2,2,1,5,0,19,7,Hc,0.08000000000000002,0.04,0.095,0.04
11,8,15,1,4,0.12999999999999998,2,2,14,44,69,41,7.229999999999893,0.01,0.02,0.01,13,1,1,1,17,1,1,1,2,0,20,7,Hc,0.42529411764705904,0.01,0.02,0.01
11,8,16,1,10,0.22000000000000006,2,3,95,116,4,89,0.5100000000000001,0.25000000000000006,0.03,0.05,3,2,1,2,4,2,1,2,3,0,14,7,Hc,0.12750000000000003,0.125,0.03,0.025
11,9,17,1,7,0.3900000000000002,11,12,14,22,32,13,0.6200000000000002,2.3599999999999937,0.36000000000000015,0.9200000000000006,12,6,2,4,13,7,2,5,6,0.5,23,7,Hc,0.0476923076923077,0.3371428571428573,0.18000000000000005,0.18400000000000005
11,9,18,1,5,0.24000000000000007,5,6,46,45,70,6,0.38000000000000006,0.11999999999999998,2.010000000000001,0.01,6,1,2,1,7,1,2,1,5,0,20,7,Hc,0.054285714285714284,0.11999999999999998,1.0050000000000006,0.01
11,10,19,1,7,0.3200000000000001,10,10,14,22,70,92,0.6100000000000002,0.11999999999999998,0.10999999999999999,0.04,11,1,1,1,11,1,1,1,6,0,19,7,Hc,0.055454545454545465,0.11999999999999998,0.10999999999999999,0.04
11,10,20,1,3,3.9999999999999587,11,21,35,119,109,34,4.839999999999959,0.03,0.01,0.01,14,1,1,1,24,1,1,1,5,0,14,7,Hc,0.20166666666666674,0.03,0.01,0.01
11,11,21,1,9,0.26000000000000006,2,5,61,8,91,40,0.4700000000000001,0.20000000000000004,0.07,0.04,4,1,1,1,7,1,1,1,4,0,18,7,Hc,0.06714285714285714,0.20000000000000004,0.07,0.04
11,11,22,1,2,0.26000000000000006,7,7,56,13,78,76,0.4600000000000001,3.7399999999999642,0.05,0.09999999999999999,8,9,1,1,8,10,1,1,4,0,16,7,Hc,0.0575,0.37400000000000017,0.05,0.09999999999999999
11,12,23,1,10,0.2700000000000001,2,3,42,93,60,86,0.5400000000000001,0.15,0.060000000000000005,0.04,3,1,1,1,4,1,1,1,3,0,15,7,Hc,0.135,0.15,0.060000000000000005,0.04
11,12,24,1,9,0.20000000000000004,2,4,20,16,72,22,0.5200000000000001,0.26000000000000006,0.02,0.04,3,2,1,1,5,3,1,1,4,0.5,22,7,Hc,0.10400000000000002,0.08666666666666666,0.02,0.04
11,13,25,1,6,0.22000000000000006,2,4,84,76,12,54,0.6400000000000002,0.060000000000000005,0.03,0.38000000000000017,4,1,1,2,6,1,1,2,6,0,16,7,Hc,0.10666666666666667,0.060000000000000005,0.03,0.19000000000000009
11,13,26,1,3,0.15,2,3,25,21,27,88,0.32,0.3100000000000001,0.03,0.19000000000000003,3,2,1,2,4,2,1,3,5,0,19,7,Hc,0.08,0.15500000000000003,0.03,0.06333333333333334
11,14,27,1,5,0.4300000000000002,8,8,83,23,74,44,1.650000000000001,0.01,0.01,0.13999999999999999,11,1,1,2,11,1,1,2,5,0,17,7,Hc,0.15000000000000008,0.01,0.01,0.07
11,14,28,1,10,0.8000000000000005,5,6,95,32,29,10,0.9400000000000005,0.2700000000000001,0.13999999999999999,0.07,7,1,1,2,8,1,1,2,3,0,19,7,Hc,0.11750000000000003,0.2700000000000001,0.13999999999999999,0.035
11,15,29,1,9,0.18000000000000002,2,3,44,105,3,72,0.5400000000000001,0.25000000000000006,0.01,0.02,3,1,1,1,4,1,1,1,4,0,17,7,Hc,0.13500000000000004,0.25000000000000006,0.01,0.02
11,15,30,1,10,0.15,3,3,14,19,111,56,1.2900000000000007,0.02,0.01,0.01,7,1,1,1,8,1,1,1,3,0,18,7,Hc,0.16125000000000003,0.02,0.01,0.01
11,16,31,1,9,0.17,2,3,64,78,31,81,0.38000000000000006,0.3000000000000001,0.15,0.02,5,2,1,1,7,2,1,1,4,0,15,7,Hc,0.054285714285714284,0.15,0.15,0.02
11,16,32,1,8,0.26000000000000006,4,5,119,54,8,47,0.41000000000000003,0.4400000000000002,0.02,0.02,5,3,1,1,6,3,1,1,2,0,17,7,Hc,0.06833333333333333,0.14666666666666672,0.02,0.02
11,17,33,1,3,0.18000000000000002,2,4,25,26,1,6,0.45000000000000007,0.09,0.15,0.09999999999999999,4,1,2,2,6,1,2,2,5,0,22,7,Hc,0.075,0.09,0.07499999999999998,0.05
11,17,34,1,4,0.37000000000000016,8,9,70,105,21,73,0.5300000000000001,0.13999999999999999,0.25000000000000006,0.02,9,1,2,1,10,1,2,1,2,0,15,7,Hc,0.053,0.13999999999999999,0.125,0.02
11,18,35,1,5,0.4000000000000002,12,13,44,47,90,21,0.6500000000000002,2.4999999999999907,0.6200000000000003,0.7600000000000005,14,4,4,3,15,5,4,3,5,0,19,7,Hc,0.043333333333333335,0.5,0.15500000000000003,0.25333333333333347
11,18,36,1,1,0.22000000000000006,2,4,11,6,101,69,0.6000000000000002,0.26000000000000006,0.02,0.02,3,2,1,1,5,2,1,1,3,0,18,7,Hc,0.12000000000000004,0.13,0.02,0.02
11,19,37,1,10,0.19000000000000003,2,3,89,107,88,104,0.4000000000000001,0.17,0.08,0.03,4,1,1,1,5,1,1,1,3,0,10,7,Hc,0.08,0.17,0.08,0.03
11,19,38,1,8,0.19000000000000003,2,3,34,68,76,109,0.5700000000000002,0.08,1.2500000000000009,0.01,3,1,3,1,4,1,4,1,2,0,14,7,Hc,0.14250000000000004,0.08,0.31250000000000017,0.01
11,20,39,1,10,0.34000000000000014,2,4,22,91,68,109,0.7500000000000003,0.11999999999999998,0.060000000000000005,0.03,3,1,1,1,5,1,1,1,3,0,15,7,Hc,0.15000000000000005,0.11999999999999998,0.060000000000000005,0.03
11,20,40,1,6,0.3200000000000001,10,12,58,3,51,101,0.5600000000000002,0.09999999999999999,1.490000000000001,0.9200000000000006,12,1,5,4,15,1,5,4,6,0,16,7,Hc,0.037333333333333336,0.09999999999999999,0.29800000000000015,0.23000000000000007
11,21,41,1,4,0.26000000000000006,2,3,6,55,38,91,0.6100000000000002,0.060000000000000005,0.18000000000000002,0.02,3,1,1,1,4,1,1,1,2,0,18,7,Hc,0.15250000000000002,0.060000000000000005,0.18000000000000002,0.02
11,21,42,1,7,0.26000000000000006,4,5,29,25,109,15,0.6100000000000002,0.18000000000000002,0.02,0.04,5,1,1,1,6,1,1,1,6,0,18,7,Hc,0.1016666666666667,0.18000000000000002,0.02,0.04
11,22,43,1,6,0.16,2,3,72,62,34,76,0.4800000000000001,1.270000000000001,0.01,0.09999999999999999,4,4,1,1,5,6,1,1,6,0,16,7,Hc,0.09600000000000002,0.21166666666666675,0.01,0.09999999999999999
11,22,44,1,5,0.20000000000000004,2,3,39,48,59,17,0.39000000000000007,0.16,0.12999999999999998,0.04,3,2,2,1,4,3,2,1,5,0,20,7,Hc,0.0975,0.05333333333333333,0.06499999999999999,0.04
12,1,1,0,8,0.7200000000000004,2,29,117,113,29,32,2.889999999999998,0.6800000000000004,0.47000000000000025,0.25000000000000006,4,2,2,3,93,28,13,10,2,0,14,7,Hc,0.0310752688172043,0.024285714285714285,0.036153846153846154,0.025
12,1,2,0,4,0.4000000000000002,2,10,100,102,1,6,3.229999999999984,0.5300000000000002,0.13999999999999999,0.2700000000000001,4,2,2,3,112,21,3,8,2,0,16,7,Hc,0.028839285714285713,0.02523809523809524,0.04666666666666666,0.03375
12,2,3,0,5,0.36000000000000015,2,11,39,44,19,64,2.959999999999989,0.3900000000000002,0.7300000000000004,0.2800000000000001,4,2,2,3,96,17,22,10,5,0,20,7,Hc,0.030833333333333334,0.022941176470588236,0.03318181818181818,0.028
12,2,4,0,10,0.46000000000000024,2,19,91,51,3,60,2.9799999999999907,0.6000000000000003,0.5300000000000002,0.24000000000000007,5,2,3,3,115,21,19,15,3,0,17,7,Hc,0.02591304347826087,0.02857142857142857,0.027894736842105264,0.016
12,3,5,0,4,0.47000000000000025,2,18,104,98,102,63,2.969999999999991,0.6300000000000003,0.3900000000000002,0.5500000000000003,8,5,4,2,92,26,18,21,2,0.5,10,7,Hc,0.03228260869565217,0.024230769230769233,0.021666666666666667,0.02619047619047619
12,3,6,0,6,0.6000000000000003,2,20,7,25,1,56,2.849999999999996,0.6900000000000004,2.859999999999983,0.01,4,2,9,1,102,25,112,1,6,0,21,7,Hc,0.027941176470588237,0.0276,0.025535714285714287,0.01
12,4,7,0,5,0.5900000000000003,2,24,48,72,82,15,3.039999999999992,1.9700000000000015,0.3100000000000001,0.05,7,5,4,2,114,52,12,2,5,0,18,7,Hc,0.02666666666666667,0.037884615384615385,0.025833333333333333,0.025
12,4,8,0,10,0.7500000000000004,4,29,90,95,60,5,3.1399999999999935,0.6700000000000004,0.3100000000000001,0.2700000000000001,6,2,2,2,101,19,14,11,3,0,16,7,Hc,0.03108910891089109,0.035263157894736843,0.022142857142857145,0.024545454545454547
12,5,9,0,8,0.25000000000000006,2,11,116,5,109,111,2.6599999999999926,0.3000000000000001,0.10999999999999999,0.26000000000000006,7,3,2,2,105,11,2,9,2,0.5,12,7,Hc,0.025333333333333333,0.027272727272727275,0.055,0.028888888888888888
12,5,10,0,4,0.46000000000000024,2,17,101,17,95,66,3.01999999999999,0.6300000000000003,0.16,0.12999999999999998,4,2,2,2,91,19,5,6,2,0,15,7,Hc,0.033186813186813185,0.03315789473684211,0.032,0.021666666666666667
12,6,11,0,8,0.48000000000000026,2,17,114,118,88,5,2.6799999999999975,0.5400000000000003,0.5800000000000003,0.12999999999999998,5,2,5,2,100,21,21,7,2,0,13,7,Hc,0.0268,0.025714285714285714,0.02761904761904762,0.018571428571428572
12,6,12,0,1,0.36000000000000015,2,13,84,75,80,13,2.569999999999997,0.8200000000000005,0.4300000000000002,0.2900000000000001,7,4,3,2,86,20,16,6,3,0.5,15,7,Hc,0.02988372093023256,0.041,0.026875,0.04833333333333333
12,7,13,1,3,0.5400000000000003,2,24,32,1,62,34,2.5900000000000007,1.1200000000000008,0.11999999999999998,0.46000000000000024,5,2,2,5,90,47,3,15,5,0,20,7,Hc,0.028777777777777777,0.023829787234042554,0.04,0.030666666666666665
12,7,14,1,10,0.6500000000000004,2,23,90,94,20,92,3.1299999999999915,0.8600000000000005,0.25000000000000006,0.4400000000000002,4,2,2,8,96,31,8,16,3,0.5,15,7,Hc,0.03260416666666667,0.027741935483870966,0.03125,0.0275
12,8,15,1,7,0.4400000000000002,3,17,18,17,19,22,2.9699999999999904,3.1299999999999772,0.01,0.09999999999999999,11,15,1,3,92,109,1,3,6,1,72,7,Hc,0.03228260869565217,0.02871559633027523,0.01,0.03333333333333333
12,8,16,1,5,0.5800000000000003,2,23,43,5,2,75,3.1599999999999895,0.11999999999999998,0.7700000000000005,0.01,5,2,3,1,100,3,27,1,5,0,20,7,Hc,0.0316,0.04,0.02851851851851852,0.01
12,9,17,1,3,0.23000000000000007,2,12,32,34,75,84,2.799999999999989,0.23000000000000007,0.4300000000000002,0.19000000000000003,4,2,4,4,97,5,12,7,5,0,16,7,Hc,0.0288659793814433,0.046000000000000006,0.035833333333333335,0.027142857142857142
12,9,18,1,8,0.3200000000000001,3,14,113,116,110,120,2.7499999999999925,0.4300000000000002,0.07,0.35000000000000014,5,2,1,5,87,21,1,13,2,1,24,7,Hc,0.031609195402298854,0.020476190476190478,0.07,0.026923076923076925
12,10,19,1,10,0.48000000000000026,2,18,88,89,93,1,2.5500000000000003,0.5900000000000003,0.20000000000000004,0.7800000000000005,4,2,3,9,80,24,9,20,3,0.5,15,7,Hc,0.031875,0.024583333333333332,0.022222222222222223,0.039
12,10,20,1,8,0.26000000000000006,2,11,116,117,25,34,2.3000000000000007,0.5800000000000003,0.22000000000000006,0.16,4,4,2,2,72,19,7,2,2,0,14,7,Hc,0.03194444444444444,0.030526315789473683,0.03142857142857143,0.08
12,11,21,1,4,0.7000000000000004,2,24,98,29,34,27,2.879999999999998,0.26000000000000006,0.07,0.22000000000000006,5,3,1,3,95,8,1,5,2,0.5,17,7,Hc,0.030315789473684213,0.0325,0.07,0.044000000000000004
12,11,22,1,1,0.3300000000000001,3,10,73,11,76,4,2.1200000000000014,0.7900000000000005,0.08,0.37000000000000016,5,2,2,4,60,25,4,16,3,0,18,7,Hc,0.035333333333333335,0.0316,0.02,0.023125
12,12,23,1,2,0.48000000000000026,2,14,58,54,49,27,2.6199999999999988,0.6600000000000004,0.45000000000000023,0.2700000000000001,8,3,4,4,86,20,16,8,4,0.5,17,7,Hc,0.030465116279069768,0.033,0.028125,0.033749999999999995
12,12,24,1,5,0.2900000000000001,4,9,6,114,113,96,5.959999999999924,0.03,0.02,0.02,15,2,1,2,208,2,1,2,5,0,13,7,Hc,0.028653846153846155,0.015,0.02,0.01
12,13,25,1,5,0.5900000000000003,2,29,48,4,10,39,3.2099999999999884,1.0300000000000007,0.2700000000000001,0.08,5,8,4,2,111,34,8,5,5,0,22,7,Hc,0.02891891891891892,0.030294117647058822,0.033749999999999995,0.016
12,13,26,1,7,0.7600000000000005,3,28,14,100,21,24,3.2399999999999913,0.7100000000000004,0.07,0.5000000000000002,5,3,1,3,106,15,1,13,6,0.5,20,7,Hc,0.030566037735849056,0.04733333333333334,0.07,0.038461538461538464
12,14,27,1,8,0.5400000000000003,2,19,116,115,45,120,3.2499999999999867,0.16,0.4300000000000002,0.3200000000000001,10,2,9,6,103,3,15,10,2,0.5,11,7,Hc,0.03155339805825243,0.05333333333333334,0.028666666666666667,0.032
12,14,28,1,9,0.35000000000000014,2,19,63,12,35,66,2.6699999999999946,0.6000000000000003,0.19000000000000003,0.26000000000000006,5,2,2,3,95,21,6,12,4,0,19,7,Hc,0.028105263157894737,0.02857142857142857,0.03166666666666667,0.021666666666666667
12,15,29,1,10,0.47000000000000025,2,14,93,87,115,30,2.909999999999992,0.46000000000000024,0.5100000000000002,0.07,4,4,4,2,86,15,19,2,3,0,13,7,Hc,0.03383720930232558,0.030666666666666665,0.026842105263157896,0.035
12,15,30,1,7,0.5300000000000002,2,22,16,15,23,42,2.5300000000000016,3.3099999999999734,0.01,0.02,5,13,1,1,86,113,1,1,6,0.5,23,7,Hc,0.02941860465116279,0.02929203539823009,0.01,0.02
12,16,31,1,5,0.3900000000000002,2,15,37,100,6,5,3.3799999999999804,0.5600000000000003,0.07,1.360000000000001,4,3,1,8,119,25,1,43,5,0,19,7,Hc,0.028403361344537817,0.0224,0.07,0.03162790697674419
12,16,32,1,3,0.5000000000000002,5,17,32,120,110,25,2.8499999999999943,0.8000000000000005,0.19000000000000003,0.07,7,2,2,2,93,30,9,4,5,0,14,7,Hc,0.03064516129032258,0.02666666666666667,0.021111111111111112,0.0175
12,17,33,1,2,0.18000000000000002,4,10,54,56,59,4,2.4699999999999953,0.09,0.5300000000000002,0.5000000000000002,6,2,8,6,90,4,17,23,4,0.5,18,7,Hc,0.027444444444444445,0.0225,0.031176470588235295,0.021739130434782608
12,17,34,1,4,0.7300000000000004,2,20,100,98,40,71,3.659999999999982,0.11999999999999998,0.17,0.6500000000000004,4,2,2,3,123,5,6,17,2,0,13,7,Hc,0.029756097560975612,0.024,0.028333333333333335,0.03823529411764706
12,18,35,1,2,0.5400000000000003,3,19,49,115,91,58,3.049999999999991,1.1300000000000008,0.10999999999999999,0.01,5,4,2,1,104,42,5,1,4,0,13,7,Hc,0.029326923076923077,0.026904761904761907,0.022000000000000002,0.01
12,18,36,1,1,0.8200000000000005,3,34,75,65,84,37,2.3200000000000016,0.7900000000000005,0.5200000000000002,0.37000000000000016,5,2,2,3,86,23,14,9,3,0,15,7,Hc,0.026976744186046512,0.03434782608695652,0.037142857142857144,0.04111111111111111
12,19,37,1,1,0.5400000000000003,6,14,48,60,115,46,3.329999999999985,0.48000000000000026,0.16,0.13999999999999999,10,2,2,2,98,16,7,4,3,0,16,7,Hc,0.03397959183673469,0.03,0.022857142857142857,0.035
12,19,38,1,9,0.8900000000000006,2,27,30,2,7,67,3.219999999999995,0.9500000000000006,0.45000000000000023,0.13999999999999999,10,2,5,3,99,36,16,8,4,0,21,7,Hc,0.032525252525252527,0.02638888888888889,0.028125,0.0175
12,20,39,1,10,0.4400000000000002,2,17,85,54,93,51,3.0699999999999883,0.48000000000000026,0.12999999999999998,0.37000000000000016,4,3,2,6,94,22,7,15,3,0,14,7,Hc,0.03265957446808511,0.02181818181818182,0.018571428571428572,0.024666666666666667
12,20,40,1,6,0.6200000000000003,2,26,6,5,1,73,3.359999999999986,0.2800000000000001,2.4099999999999926,0.20000000000000004,4,2,8,2,112,12,83,6,6,0.5,21,7,Hc,0.03,0.023333333333333334,0.029036144578313255,0.03333333333333333
12,21,41,1,10,0.7700000000000005,3,34,87,1,7,115,3.559999999999985,1.2100000000000009,0.04,0.11999999999999998,7,2,1,2,124,45,1,2,3,0,17,7,Hc,0.02870967741935484,0.02688888888888889,0.04,0.05999999999999999
12,21,42,1,5,0.5700000000000003,2,19,41,54,51,81,2.600000000000001,0.6100000000000003,0.11999999999999998,0.18000000000000002,5,2,2,3,95,21,3,7,5,0,16,7,Hc,0.02736842105263158,0.029047619047619048,0.04,0.025714285714285714
13,1,1,0,7,0.8900000000000006,2,7,74,104,99,14,4.309999999999972,0.4000000000000002,0.3000000000000001,0.01,13,4,2,1,31,4,2,1,6,0,13,7,Hc,0.13903225806451616,0.10000000000000003,0.15000000000000005,0.01
13,1,2,0,10,0.4300000000000002,2,4,93,3,70,92,1.2000000000000006,0.5200000000000002,0.24000000000000007,0.18000000000000002,4,2,1,2,8,4,1,2,3,0,16,7,Hc,0.15000000000000002,0.13000000000000003,0.24000000000000007,0.09
13,2,3,0,1,0.6900000000000004,2,9,75,103,33,52,1.650000000000001,0.7600000000000005,0.10999999999999999,0.17,5,2,1,2,17,3,1,3,3,0,14,7,Hc,0.09705882352941178,0.2533333333333334,0.10999999999999999,0.056666666666666664
13,2,4,0,10,0.7900000000000005,2,9,87,45,69,61,1.2400000000000007,1.0700000000000007,0.26000000000000006,0.13999999999999999,4,2,2,2,11,2,2,3,3,0,16,7,Hc,0.11272727272727275,0.5350000000000003,0.12999999999999998,0.04666666666666666
13,3,5,0,10,0.5900000000000003,2,5,39,58,102,45,2.3000000000000016,0.15,0.21000000000000005,0.05,6,2,2,1,14,2,2,1,3,0,16,7,Hc,0.1642857142857143,0.075,0.10499999999999998,0.05
13,3,6,0,3,0.6100000000000003,2,3,61,76,84,64,1.8500000000000012,0.11999999999999998,0.3100000000000001,0.2700000000000001,4,1,1,3,8,1,1,4,5,0,14,7,Hc,0.2312500000000001,0.11999999999999998,0.3100000000000001,0.0675
13,4,7,0,7,0.7500000000000004,2,6,59,26,89,21,2.7100000000000017,0.35000000000000014,1.260000000000001,0.5900000000000003,8,3,4,4,20,3,5,4,6,0,18,7,Hc,0.13550000000000004,0.11666666666666667,0.2520000000000001,0.14750000000000005
13,4,8,0,1,0.7800000000000005,2,10,102,43,71,12,2.330000000000002,0.5600000000000003,0.08,0.21000000000000005,6,3,1,2,21,3,1,2,3,0,17,7,Hc,0.11095238095238097,0.18666666666666673,0.08,0.10500000000000001
13,5,9,0,10,0.7000000000000004,2,10,89,92,11,94,1.740000000000001,0.37000000000000016,0.23000000000000007,0.09999999999999999,5,2,1,1,17,3,1,1,3,0.5,15,7,Hc,0.1023529411764706,0.12333333333333336,0.23000000000000007,0.09999999999999999
