Subject,Round,Phase,afterbreak,Schema,Schema_RT,Schema_OB,Schema_AS,Cho_1,Cho_2,Cho_3,Cho_4,RT_1,RT_2,RT_3,RT_4,OB_1,OB_2,OB_3,OB_4,AS_1,AS_2,AS_3,AS_4,schema_payoff,AC,performance,breakR,type,dwellmean_1,dwellmean_2,dwellmean_3,dwellmean_4
1,1,1,0,7,0.4200000000000002,2,7,13,83,14,51,9.599999999999849,0.9000000000000006,0.19000000000000003,1.1500000000000008,19,3,1,5,65,4,1,9,6,0,19,7,Lc,0.14769230769230773,0.2250000000000001,0.19000000000000003,0.1277777777777778
1,1,2,0,9,0.24000000000000007,2,3,41,61,87,67,9.659999999999844,0.5700000000000003,2.399999999999993,0.07,16,2,6,1,66,5,18,1,4,0,16,7,Lc,0.1463636363636364,0.114,0.13333333333333336,0.07
1,2,3,0,3,0.23000000000000007,3,4,100,29,27,64,9.319999999999851,0.23000000000000007,0.13999999999999999,1.340000000000001,14,3,1,4,75,3,1,7,5,0,16,7,Lc,0.12426666666666669,0.07666666666666666,0.13999999999999999,0.19142857142857148
1,2,4,0,5,0.2700000000000001,2,3,49,42,43,37,8.829999999999862,0.35000000000000014,1.8100000000000014,1.0300000000000007,15,4,5,5,58,4,9,7,5,0.5,34,7,Lc,0.15224137931034487,0.0875,0.20111111111111118,0.14714285714285716
1,3,5,0,7,0.4200000000000002,3,5,23,21,19,14,8.10999999999988,0.7000000000000004,0.6200000000000003,0.20000000000000004,13,3,2,1,50,8,7,1,6,1,72,7,Lc,0.16220000000000004,0.08750000000000001,0.08857142857142858,0.20000000000000004
1,3,6,0,6,0.6500000000000004,2,8,3,10,54,4,7.9799999999998885,0.7900000000000005,1.290000000000001,4.249999999999954,14,6,4,9,54,10,6,37,6,0.5,40,7,Lc,0.1477777777777778,0.079,0.21500000000000008,0.11486486486486489
1,4,7,0,1,0.4000000000000002,2,7,75,39,76,43,9.169999999999858,0.6900000000000004,0.9500000000000006,0.45000000000000023,14,5,3,2,56,7,12,4,3,0,16,7,Lc,0.16375000000000003,0.09857142857142859,0.07916666666666666,0.11250000000000002
1,4,8,0,7,0.36000000000000015,2,6,22,23,69,13,9.999999999999838,0.25000000000000006,2.259999999999996,0.3000000000000001,20,2,7,3,85,3,14,3,6,0.5,40,7,Lc,0.11764705882352942,0.08333333333333333,0.16142857142857148,0.09999999999999999
1,5,9,0,3,0.2900000000000001,2,6,30,33,52,55,7.009999999999901,2.9699999999999807,0.6800000000000004,1.420000000000001,9,11,3,5,63,33,4,9,5,0,18,7,Lc,0.1112698412698413,0.09000000000000001,0.17000000000000004,0.15777777777777782
1,5,10,0,4,0.4400000000000002,2,8,41,47,98,84,6.439999999999917,0.6900000000000004,0.7000000000000004,1.380000000000001,13,2,2,5,36,2,5,12,2,0,15,7,Lc,0.17888888888888893,0.34500000000000014,0.14000000000000004,0.11500000000000002
1,6,11,0,2,0.35000000000000014,2,3,57,50,52,31,10.219999999999834,0.6800000000000004,0.5700000000000003,4.539999999999948,20,6,4,15,77,8,8,36,4,0.5,29,7,Lc,0.13272727272727275,0.085,0.07125000000000001,0.12611111111111115
1,6,12,0,8,0.12999999999999998,1,3,111,115,114,64,7.689999999999883,1.330000000000001,2.259999999999996,1.8100000000000014,19,6,12,10,69,10,20,13,2,0.5,16,7,Lc,0.11144927536231886,0.13300000000000003,0.11300000000000002,0.13923076923076927
1,7,13,1,8,0.17,2,4,1,115,26,119,37.02000000000124,0.05,0.01,0.01,20,3,1,1,253,3,1,1,2,0,15,7,Lc,0.1463241106719368,0.016666666666666666,0.01,0.01
1,7,14,1,5,0.17,2,4,45,42,48,13,5.429999999999932,0.8600000000000005,2.3099999999999947,1.330000000000001,8,4,8,3,33,7,15,4,5,0.5,36,7,Lc,0.16454545454545458,0.1228571428571429,0.15400000000000003,0.33250000000000013
1,8,15,1,7,0.6400000000000003,4,7,55,31,18,14,12.079999999999801,0.6300000000000003,0.07,0.8900000000000006,20,5,1,4,90,7,1,6,6,0,21,7,Lc,0.13422222222222224,0.09000000000000001,0.07,0.14833333333333334
1,8,16,1,5,0.2700000000000001,2,4,46,84,42,7,10.489999999999826,0.6600000000000004,0.8000000000000005,0.2900000000000001,15,2,6,2,78,3,8,2,5,0,19,7,Lc,0.1344871794871795,0.22000000000000006,0.1,0.14500000000000005
1,9,17,1,8,0.35000000000000014,2,7,120,115,59,109,5.199999999999942,4.259999999999954,0.6900000000000004,1.460000000000001,8,13,5,7,37,34,6,13,2,0.5,16,7,Lc,0.14054054054054058,0.12529411764705886,0.115,0.11230769230769234
1,9,18,1,9,1.2100000000000009,4,8,18,17,46,89,9.069999999999878,0.26000000000000006,0.2900000000000001,0.5700000000000003,13,1,1,3,78,1,1,3,4,0,20,7,Lc,0.1162820512820513,0.26000000000000006,0.2900000000000001,0.19000000000000006
1,10,19,1,4,0.2800000000000001,2,3,101,105,103,99,8.979999999999858,1.0900000000000007,4.569999999999947,0.45000000000000023,20,3,17,3,49,5,34,3,2,1,24,7,Lc,0.18326530612244904,0.21800000000000005,0.13441176470588237,0.15000000000000002
1,10,20,1,3,0.7300000000000004,3,7,119,19,50,30,7.859999999999893,1.1500000000000008,1.0400000000000007,1.8100000000000014,17,4,2,4,50,9,7,14,5,0,17,7,Lc,0.15720000000000003,0.1277777777777778,0.14857142857142858,0.1292857142857143
1,11,21,1,5,0.38000000000000017,3,6,91,43,95,37,8.08999999999988,0.4200000000000002,0.5900000000000003,0.8100000000000005,16,2,4,4,68,2,5,5,5,0,16,7,Lc,0.11897058823529415,0.21000000000000002,0.11800000000000002,0.16200000000000003
1,11,22,1,6,0.5400000000000003,2,6,78,108,77,57,10.099999999999842,0.23000000000000007,0.3200000000000001,0.7400000000000004,16,1,2,2,68,1,2,6,6,0,12,7,Lc,0.1485294117647059,0.23000000000000007,0.16,0.12333333333333335
1,12,23,1,4,0.3200000000000001,5,6,51,98,57,107,10.569999999999826,0.4000000000000002,0.3100000000000001,0.08,20,4,2,1,61,4,3,1,2,0,12,7,Lc,0.17327868852459022,0.09999999999999999,0.10333333333333335,0.08
1,12,24,1,3,0.18000000000000002,2,4,27,28,90,91,4.409999999999954,1.8800000000000014,2.5499999999999896,0.9100000000000006,10,8,6,4,43,13,19,5,5,0,16,7,Lc,0.10255813953488373,0.14461538461538465,0.1342105263157895,0.18200000000000005
1,13,25,1,5,0.5600000000000003,2,8,16,17,22,79,4.629999999999958,1.500000000000001,0.5500000000000003,0.5900000000000003,9,3,3,2,29,7,4,2,5,0.5,39,7,Lc,0.15965517241379315,0.21428571428571438,0.13750000000000004,0.2950000000000001
1,13,26,1,3,0.19000000000000003,2,3,118,31,12,32,9.339999999999849,0.4100000000000002,0.36000000000000015,0.5300000000000002,15,2,1,2,61,4,1,7,5,0,18,7,Lc,0.1531147540983607,0.10250000000000001,0.36000000000000015,0.07571428571428572
1,14,27,1,7,0.45000000000000023,2,7,95,21,91,30,8.339999999999877,2.349999999999994,0.13999999999999999,0.7800000000000005,17,7,1,3,67,21,1,8,6,0,17,7,Lc,0.12447761194029852,0.11190476190476192,0.13999999999999999,0.09750000000000002
1,14,28,1,8,0.10999999999999999,3,5,81,9,109,77,6.759999999999903,1.390000000000001,0.15,0.3300000000000001,14,4,2,1,51,6,2,1,2,0,14,7,Lc,0.13254901960784318,0.23166666666666674,0.07499999999999998,0.3300000000000001
1,15,29,1,6,0.38000000000000017,2,8,33,4,116,34,7.459999999999893,1.7400000000000013,0.23000000000000007,0.19000000000000003,11,4,1,1,53,15,1,1,6,0,18,7,Lc,0.14075471698113212,0.116,0.23000000000000007,0.19000000000000003
1,15,30,1,4,0.26000000000000006,2,4,97,96,94,46,5.479999999999933,0.9300000000000006,2.0799999999999996,2.3199999999999945,13,3,8,9,40,4,19,13,2,0,13,7,Lc,0.13700000000000004,0.23250000000000007,0.10947368421052633,0.1784615384615385
1,16,31,1,1,0.21000000000000005,2,4,46,56,99,49,10.719999999999821,0.37000000000000016,1.1600000000000008,0.4000000000000002,15,2,4,3,71,4,9,6,3,0,15,7,Lc,0.15098591549295778,0.0925,0.12888888888888891,0.06666666666666667
1,16,32,1,10,0.4400000000000002,3,7,31,96,26,6,5.8499999999999295,2.489999999999991,0.46000000000000024,2.010000000000001,12,5,2,5,54,24,2,9,3,0,19,7,Lc,0.10833333333333335,0.10375000000000002,0.23000000000000004,0.2233333333333334
1,17,33,1,10,0.09999999999999999,2,4,85,92,32,31,7.749999999999881,0.12999999999999998,1.470000000000001,0.38000000000000017,19,2,5,4,61,2,8,5,3,0,16,7,Lc,0.12704918032786888,0.065,0.18375000000000005,0.076
1,17,34,1,7,0.11999999999999998,2,3,17,21,57,51,4.349999999999954,0.46000000000000024,5.6699999999999235,0.7400000000000004,10,2,14,4,29,3,32,6,6,0,20,7,Lc,0.15000000000000005,0.15333333333333335,0.17718750000000005,0.12333333333333334
1,18,35,1,7,0.22000000000000006,3,7,108,101,100,106,9.139999999999855,0.5100000000000002,0.34000000000000014,1.0200000000000007,15,3,2,3,69,6,3,10,6,1,24,7,Lc,0.13246376811594207,0.08500000000000002,0.11333333333333333,0.102
1,18,36,1,8,0.21000000000000005,2,4,109,4,120,7,8.239999999999874,0.5000000000000002,0.10999999999999999,1.310000000000001,15,3,1,6,65,5,1,9,2,0,16,7,Lc,0.1267692307692308,0.10000000000000003,0.10999999999999999,0.1455555555555556
1,19,37,1,1,0.4200000000000002,2,3,57,26,3,56,7.7799999999998875,0.5900000000000003,1.1100000000000008,0.2700000000000001,15,2,2,1,57,4,5,1,3,0,19,7,Lc,0.13649122807017547,0.14750000000000002,0.2220000000000001,0.2700000000000001
1,19,38,1,8,0.38000000000000017,3,8,116,118,113,119,8.489999999999872,0.8100000000000005,0.5900000000000003,5.459999999999928,19,4,5,15,67,4,7,34,2,1,24,7,Lc,0.12671641791044777,0.20250000000000007,0.0842857142857143,0.1605882352941177
1,20,39,1,9,0.10999999999999999,2,2,16,119,109,118,28.210000000001592,0.24000000000000007,0.01,0.3300000000000001,20,2,1,4,207,2,1,4,4,0.5,18,7,Lc,0.136280193236715,0.12000000000000004,0.01,0.08250000000000002
1,20,40,1,2,0.3100000000000001,2,4,98,54,38,57,6.739999999999908,0.7600000000000005,0.9300000000000006,0.3100000000000001,13,4,1,2,46,4,1,2,4,0,15,7,Lc,0.1465217391304348,0.19000000000000006,0.9300000000000006,0.15500000000000003
2,1,1,0,6,0.9200000000000006,11,18,10,7,11,65,4.129999999999976,2.0300000000000007,0.08,0.4100000000000002,19,6,1,2,38,8,1,2,6,0.5,40,7,Lc,0.1086842105263158,0.2537500000000001,0.08,0.20500000000000002
2,1,2,0,8,0.38000000000000017,2,5,116,109,39,47,3.6599999999999744,1.7100000000000013,0.7900000000000005,0.7200000000000004,10,4,4,3,25,9,7,3,2,0,14,7,Lc,0.14640000000000003,0.19000000000000003,0.11285714285714286,0.24000000000000007
2,2,3,0,1,0.2800000000000001,2,3,49,77,55,54,3.1799999999999824,2.669999999999987,0.9800000000000006,0.4000000000000002,5,11,4,3,7,16,8,3,3,0.5,27,7,Lc,0.45428571428571457,0.16687500000000002,0.12250000000000001,0.13333333333333333
2,2,4,0,3,0.18000000000000002,2,3,30,33,32,35,4.179999999999959,0.17,0.9700000000000006,1.470000000000001,12,1,6,5,23,1,7,8,5,1,60,7,Lc,0.18173913043478265,0.17,0.1385714285714286,0.18375000000000005
2,3,5,0,6,0.25000000000000006,2,3,4,5,8,57,4.19999999999996,1.0600000000000007,0.5500000000000003,0.20000000000000004,10,4,3,1,19,5,3,1,6,0.5,40,7,Lc,0.22105263157894744,0.21200000000000005,0.1833333333333334,0.20000000000000004
2,3,6,0,9,0.21000000000000005,2,3,82,35,83,62,5.279999999999936,0.5200000000000002,0.19000000000000003,0.10999999999999999,11,1,2,2,29,1,2,2,4,0,15,7,Lc,0.18206896551724144,0.5200000000000002,0.095,0.055
2,4,7,0,9,0.3200000000000001,2,3,71,27,63,29,5.849999999999927,0.7400000000000004,0.05,0.8800000000000006,15,3,1,6,24,3,1,8,4,0,18,7,Lc,0.2437500000000001,0.24666666666666676,0.05,0.11000000000000001
2,4,8,0,7,0.3000000000000001,3,4,112,15,110,49,5.549999999999932,1.0000000000000007,0.49000000000000027,0.25000000000000006,13,4,3,3,25,6,3,3,6,0,14,7,Lc,0.2220000000000001,0.16666666666666674,0.16333333333333339,0.08333333333333334
2,5,9,0,9,0.26000000000000006,2,3,61,79,63,47,4.329999999999957,2.759999999999985,0.26000000000000006,0.16,14,12,2,4,23,15,2,4,4,0,16,7,Lc,0.18826086956521743,0.18400000000000005,0.13000000000000003,0.04
2,5,10,0,8,0.3300000000000001,3,5,118,109,36,2,4.589999999999954,1.8900000000000015,0.9400000000000006,0.13999999999999999,15,8,4,1,25,12,4,1,2,0,15,7,Lc,0.18360000000000007,0.15750000000000003,0.23500000000000007,0.13999999999999999
2,6,11,0,2,0.3900000000000002,1,2,53,43,45,2,4.999999999999947,0.3200000000000001,0.46000000000000024,0.6500000000000004,10,2,3,5,24,3,3,7,4,0,20,7,Lc,0.2083333333333334,0.10666666666666667,0.15333333333333335,0.09285714285714287
2,6,12,0,7,0.47000000000000025,3,5,14,13,110,75,3.9199999999999706,5.029999999999937,0.24000000000000007,0.01,11,13,2,1,23,26,2,1,6,0,17,7,Lc,0.17043478260869568,0.19346153846153852,0.12000000000000004,0.01
2,7,13,1,9,0.24000000000000007,2,4,65,62,86,96,5.899999999999924,0.9500000000000006,0.9000000000000006,1.7300000000000013,17,4,4,5,29,4,6,6,4,0,14,7,Lc,0.20344827586206904,0.23750000000000007,0.15000000000000005,0.28833333333333344
2,7,14,1,7,0.4400000000000002,3,6,109,24,19,13,5.699999999999933,0.09,0.19000000000000003,0.03,14,2,2,1,28,2,2,1,6,0.5,38,7,Lc,0.20357142857142865,0.045,0.095,0.03
2,8,15,1,6,0.3100000000000001,3,5,4,83,10,2,3.9899999999999656,0.37000000000000016,0.9900000000000007,0.16,14,2,4,2,23,2,5,2,6,0.5,39,7,Lc,0.17347826086956528,0.18500000000000003,0.19800000000000006,0.08
2,8,16,1,9,0.36000000000000015,3,6,69,118,40,114,4.659999999999953,0.17,0.7700000000000005,0.16,13,1,6,2,29,1,6,2,4,0,13,7,Lc,0.16068965517241382,0.17,0.12833333333333335,0.08
2,9,17,1,6,0.23000000000000007,2,3,1,7,80,66,2.0100000000000016,10.08999999999983,0.060000000000000005,0.01,5,17,1,1,9,51,1,1,6,0,19,7,Lc,0.22333333333333344,0.19784313725490202,0.060000000000000005,0.01
2,9,18,1,5,0.23000000000000007,2,3,45,59,55,46,4.509999999999954,1.320000000000001,1.9000000000000015,0.04,12,5,6,1,30,8,8,1,5,0,18,7,Lc,0.15033333333333337,0.16500000000000004,0.2375000000000001,0.04
2,10,19,1,10,0.2700000000000001,2,3,114,116,111,85,2.5799999999999947,0.3200000000000001,0.6300000000000003,0.4200000000000002,8,1,4,1,10,1,4,1,3,0.5,15,7,Lc,0.2580000000000001,0.3200000000000001,0.15750000000000003,0.4200000000000002
2,10,20,1,9,0.2700000000000001,2,3,67,66,77,105,4.689999999999951,0.3900000000000002,0.3300000000000001,0.5000000000000002,12,3,3,2,20,3,3,3,4,0,13,7,Lc,0.2345000000000001,0.13,0.11000000000000003,0.1666666666666667
2,11,21,1,4,1.290000000000001,13,17,98,108,2,1,4.499999999999977,2.6499999999999875,0.3900000000000002,0.03,20,7,3,1,32,8,3,1,2,0,16,7,Lc,0.14062500000000003,0.33125000000000016,0.13,0.03
2,11,22,1,7,0.3000000000000001,3,5,59,117,115,93,10.569999999999826,0.01,0.060000000000000005,0.01,20,1,2,1,60,1,2,1,6,0,11,7,Lc,0.17616666666666672,0.01,0.03,0.01
2,12,23,1,3,0.6000000000000003,4,5,34,29,75,84,5.139999999999948,1.0500000000000007,0.05,1.0500000000000007,19,5,1,7,29,6,1,8,5,0,16,7,Lc,0.1772413793103449,0.17500000000000002,0.05,0.13125000000000003
2,12,24,1,9,0.6400000000000003,9,12,71,62,86,16,2.8199999999999976,1.0700000000000007,2.339999999999994,0.3000000000000001,13,5,7,3,17,6,10,3,4,0,17,7,Lc,0.16588235294117654,0.17833333333333337,0.23400000000000007,0.10000000000000002
2,13,25,1,8,0.26000000000000006,3,4,109,4,116,40,3.589999999999973,0.5900000000000003,0.2700000000000001,0.6700000000000004,10,3,3,2,16,3,3,3,2,0,15,7,Lc,0.22437500000000007,0.1966666666666667,0.09,0.2233333333333334
2,13,26,1,4,0.26000000000000006,2,4,34,101,17,99,4.509999999999954,0.6900000000000004,1.5900000000000012,0.03,10,3,5,1,22,3,7,1,2,0,15,7,Lc,0.20500000000000007,0.23000000000000007,0.22714285714285723,0.03
2,14,27,1,1,0.21000000000000005,2,3,80,84,34,32,4.249999999999958,0.21000000000000005,0.5800000000000003,1.5800000000000012,12,2,5,3,23,2,5,4,3,0,16,7,Lc,0.18478260869565222,0.10500000000000001,0.11600000000000002,0.39500000000000024
2,14,28,1,7,0.13999999999999999,2,3,15,18,20,48,3.469999999999973,8.049999999999873,5.889999999999919,0.02,9,15,16,2,16,35,36,2,6,0.5,41,7,Lc,0.21687500000000007,0.2300000000000001,0.16361111111111115,0.01
2,15,29,1,3,0.18000000000000002,2,4,25,31,22,15,2.210000000000001,2.53999999999999,0.12999999999999998,0.8800000000000006,6,11,1,4,10,14,1,4,5,0,22,7,Lc,0.22100000000000009,0.18142857142857147,0.12999999999999998,0.22000000000000006
2,15,30,1,9,0.38000000000000017,2,4,69,83,78,45,4.549999999999955,2.149999999999998,0.10999999999999999,0.10999999999999999,16,10,1,1,28,14,1,1,4,0,15,7,Lc,0.16250000000000006,0.1535714285714286,0.10999999999999999,0.10999999999999999
2,16,31,1,3,0.08,1,2,52,49,27,77,3.589999999999969,1.1900000000000008,0.13999999999999999,1.480000000000001,7,2,2,6,14,3,2,9,5,0,16,7,Lc,0.25642857142857156,0.39666666666666683,0.06999999999999999,0.1644444444444445
2,16,32,1,4,0.46000000000000024,2,5,99,67,107,108,5.009999999999947,0.18000000000000002,0.10999999999999999,0.4400000000000002,13,1,2,3,21,1,2,3,2,0.5,16,7,Lc,0.23857142857142866,0.18000000000000002,0.05499999999999999,0.1466666666666667
2,17,33,1,4,0.2900000000000001,4,5,104,39,84,82,2.2500000000000018,0.9200000000000006,0.8100000000000005,0.23000000000000007,7,2,3,1,11,5,3,1,2,0,13,7,Lc,0.2045454545454546,0.18400000000000005,0.27000000000000013,0.23000000000000007
2,17,34,1,6,0.20000000000000004,2,3,6,88,11,8,2.230000000000001,1.0800000000000007,1.1400000000000008,0.5400000000000003,7,5,7,4,11,7,9,4,6,0.5,39,7,Lc,0.2027272727272728,0.15428571428571433,0.1266666666666667,0.13500000000000004
2,18,35,1,2,0.11999999999999998,1,2,79,39,74,53,3.0999999999999805,0.6700000000000004,1.7200000000000013,0.05,9,1,5,1,15,2,5,1,4,0,15,7,Lc,0.20666666666666672,0.33500000000000013,0.34400000000000014,0.05
2,18,36,1,3,0.3100000000000001,2,3,108,2,64,9,3.4299999999999775,0.5000000000000002,0.5100000000000002,0.13999999999999999,10,2,2,2,17,2,4,3,5,0,18,7,Lc,0.201764705882353,0.2500000000000001,0.12750000000000003,0.04666666666666667
2,19,37,1,4,0.25000000000000006,3,5,61,106,64,30,3.9199999999999657,0.24000000000000007,0.3300000000000001,1.0600000000000007,12,2,1,5,21,2,1,7,2,0,15,7,Lc,0.18666666666666673,0.12000000000000002,0.3300000000000001,0.15142857142857147
2,19,38,1,2,0.4000000000000002,6,6,56,59,119,109,4.85999999999995,0.12999999999999998,0.6700000000000004,0.05,16,1,3,2,22,1,4,2,4,0,12,7,Lc,0.22090909090909097,0.12999999999999998,0.16750000000000004,0.025
2,20,39,1,6,0.17,2,3,8,48,47,11,3.8599999999999652,0.6700000000000004,0.7200000000000004,1.330000000000001,11,2,3,2,25,4,3,3,6,0,22,7,Lc,0.15440000000000004,0.16750000000000004,0.24000000000000007,0.4433333333333336
2,20,40,1,2,0.7700000000000005,4,11,57,49,34,53,2.770000000000002,0.8800000000000006,0.8300000000000005,0.6600000000000004,10,2,4,4,23,5,5,5,4,0.5,29,7,Lc,0.12043478260869568,0.17600000000000002,0.16600000000000004,0.132
2,21,41,1,10,0.4400000000000002,5,6,92,9,33,12,2.759999999999995,0.8900000000000006,0.2800000000000001,0.5700000000000003,11,4,1,2,16,7,1,5,3,0,20,7,Lc,0.17250000000000004,0.12714285714285717,0.2800000000000001,0.11399999999999999
2,21,42,1,8,0.20000000000000004,2,3,38,49,111,44,2.230000000000001,1.6700000000000013,0.18000000000000002,0.19000000000000003,9,4,1,2,15,13,1,2,2,0,16,7,Lc,0.1486666666666667,0.12846153846153846,0.18000000000000002,0.095
3,1,1,0,5,1.1200000000000008,2,8,103,76,56,15,15.00999999999975,6.119999999999914,0.47000000000000025,0.5700000000000003,12,9,1,1,37,22,1,1,5,0,15,6,Lc,0.4056756756756759,0.2781818181818183,0.47000000000000025,0.5700000000000003
3,1,2,0,3,0.8600000000000005,2,8,36,35,114,63,20.62000000000029,0.8900000000000006,1.2300000000000009,0.6800000000000004,17,3,4,1,85,4,5,1,5,0,16,6,Lc,0.24258823529411774,0.22250000000000006,0.2460000000000001,0.6800000000000004
3,2,3,0,10,0.5200000000000002,2,4,90,95,36,33,13.079999999999776,1.500000000000001,6.459999999999907,1.9300000000000015,15,2,6,4,41,4,18,8,3,0,16,6,Lc,0.3190243902439026,0.3750000000000002,0.35888888888888903,0.24125000000000008
3,2,4,0,4,0.5100000000000002,2,3,104,102,101,61,6.279999999999921,2.199999999999997,4.119999999999957,4.109999999999957,12,3,6,6,19,4,13,9,2,0.5,16,6,Lc,0.33052631578947383,0.5500000000000003,0.3169230769230771,0.4566666666666669
3,3,5,0,5,0.4100000000000002,2,3,41,38,45,46,12.679999999999783,1.9800000000000015,0.34000000000000014,7.839999999999877,15,2,1,9,47,2,1,23,5,1,60,6,Lc,0.2697872340425533,0.9900000000000007,0.34000000000000014,0.3408695652173915
3,3,6,0,10,0.9300000000000006,2,4,95,96,97,99,10.309999999999846,5.729999999999922,0.5200000000000002,3.8099999999999627,10,9,2,5,34,21,2,8,3,0,10,6,Lc,0.3032352941176472,0.27285714285714296,0.2600000000000001,0.4762500000000003
3,4,7,0,9,1.2500000000000009,2,8,31,26,72,35,14.22999999999977,0.6400000000000003,5.169999999999934,0.37000000000000016,14,3,10,2,43,5,21,2,4,0.5,34,6,Lc,0.3309302325581397,0.12800000000000003,0.24619047619047627,0.18500000000000005
3,4,8,0,8,1.1300000000000008,2,7,115,116,56,109,15.129999999999747,3.3399999999999728,3.049999999999979,0.25000000000000006,16,6,6,2,67,7,16,2,2,0.5,16,6,Lc,0.22582089552238815,0.47714285714285737,0.19062500000000004,0.125
3,5,9,0,4,0.9500000000000006,2,5,31,35,63,24,11.939999999999811,2.6499999999999875,1.8100000000000014,1.1400000000000008,10,4,3,3,44,11,6,5,2,0,20,6,Lc,0.2713636363636365,0.240909090909091,0.3016666666666668,0.2280000000000001
3,5,10,0,5,0.4000000000000002,2,3,42,54,44,41,9.359999999999854,5.959999999999917,3.8799999999999613,2.299999999999995,14,6,7,8,29,21,11,9,5,0.5,34,6,Lc,0.32275862068965533,0.28380952380952396,0.3527272727272729,0.25555555555555565
3,6,11,1,10,1.0500000000000007,3,7,56,88,120,95,14.139999999999766,1.0900000000000007,1.5100000000000011,1.1200000000000008,14,2,3,3,58,2,4,9,3,0,12,6,Lc,0.24379310344827596,0.5450000000000003,0.37750000000000017,0.12444444444444445
3,6,12,1,9,0.49000000000000027,2,4,69,82,67,41,15.849999999999717,0.8300000000000005,4.42999999999995,5.269999999999932,16,2,6,7,68,2,9,21,4,0,16,6,Lc,0.23308823529411773,0.4150000000000002,0.4922222222222225,0.25095238095238104
3,7,13,1,7,2.109999999999999,4,9,62,103,105,66,18.22999999999972,2.4099999999999926,1.1000000000000008,0.49000000000000027,17,5,3,2,61,9,8,2,6,0,12,6,Lc,0.29885245901639357,0.26777777777777784,0.1375,0.24500000000000005
3,7,14,1,8,0.7100000000000004,3,5,1,85,111,51,60.40999999999669,0.01,0.01,0.01,20,1,1,1,202,1,1,1,2,0,15,6,Lc,0.29905940594059416,0.01,0.01,0.01
3,8,15,1,7,1.440000000000001,5,11,81,39,73,15,13.989999999999778,0.8900000000000006,0.5600000000000003,0.4400000000000002,15,1,2,1,49,1,2,2,6,0,17,6,Lc,0.2855102040816328,0.8900000000000006,0.28000000000000014,0.22000000000000006
3,8,16,1,8,0.9500000000000006,2,10,110,90,55,3,10.819999999999835,2.479999999999991,1.0500000000000007,3.8599999999999617,12,4,1,5,33,8,1,8,2,0,15,6,Lc,0.32787878787878805,0.31000000000000016,1.0500000000000007,0.48250000000000026
3,9,17,1,3,0.5800000000000003,2,4,87,93,32,26,7.3499999999999,1.5100000000000011,2.859999999999983,1.2000000000000008,11,2,2,2,25,3,11,6,5,0,16,6,Lc,0.29400000000000015,0.5033333333333336,0.26000000000000006,0.20000000000000007
3,9,18,1,4,1.5300000000000011,3,7,37,19,41,108,9.25999999999988,1.7600000000000013,1.7700000000000014,0.5800000000000003,13,3,2,1,32,4,6,1,2,0,18,6,Lc,0.2893750000000001,0.4400000000000002,0.2950000000000001,0.5800000000000003
3,10,19,1,8,0.4100000000000002,2,3,113,116,38,42,10.619999999999827,0.9100000000000006,3.00999999999998,1.0100000000000007,14,2,3,2,33,3,12,2,2,0,14,6,Lc,0.32181818181818195,0.30333333333333345,0.25083333333333346,0.5050000000000002
3,10,20,1,4,1.330000000000001,2,7,106,104,13,64,12.389999999999809,2.7299999999999858,2.5999999999999885,1.2100000000000009,9,5,4,2,42,7,10,2,2,0,14,6,Lc,0.29500000000000015,0.3900000000000002,0.2600000000000001,0.6050000000000003
3,11,21,1,2,0.8400000000000005,5,6,59,14,18,58,8.319999999999885,5.3899999999999295,0.9600000000000006,1.390000000000001,10,6,2,5,32,11,4,6,4,0,20,6,Lc,0.2600000000000001,0.49000000000000027,0.24000000000000007,0.23166666666666672
3,11,22,1,4,0.5900000000000003,2,4,99,104,61,72,10.429999999999835,16.839999999999833,0.04,0.16,12,17,1,1,34,47,1,1,2,0,12,6,Lc,0.3067647058823531,0.3582978723404257,0.04,0.16
3,12,23,1,1,0.6000000000000003,2,4,80,44,39,84,9.079999999999863,0.8300000000000005,4.059999999999958,1.0000000000000007,13,3,9,3,35,3,15,3,3,0,16,6,Lc,0.2594285714285715,0.27666666666666684,0.2706666666666668,0.3333333333333335
3,12,24,1,9,0.23000000000000007,2,2,14,97,17,65,29.53000000000178,0.04,0.15,0.060000000000000005,20,1,2,1,80,1,2,1,4,0,18,6,Lc,0.36912500000000015,0.04,0.07499999999999998,0.060000000000000005
3,13,25,1,9,1.9400000000000015,11,14,62,64,37,42,11.909999999999833,2.8899999999999824,0.9300000000000006,10.439999999999822,20,6,2,10,42,15,4,40,4,0,18,6,Lc,0.2835714285714287,0.19266666666666674,0.23250000000000007,0.2610000000000001
3,13,26,1,8,0.5200000000000002,3,4,88,116,120,21,13.269999999999772,1.300000000000001,1.1200000000000008,3.369999999999972,13,3,2,3,47,4,4,13,2,0,13,6,Lc,0.282340425531915,0.3250000000000001,0.2800000000000001,0.2592307692307693
3,14,27,1,3,0.26000000000000006,2,3,35,28,27,34,9.989999999999837,0.7800000000000005,4.729999999999944,2.5199999999999902,17,3,10,8,33,4,16,8,5,1,60,6,Lc,0.30272727272727284,0.19500000000000006,0.2956250000000001,0.31500000000000017
3,14,28,1,4,0.34000000000000014,2,4,100,101,105,18,42.850000000000115,0.01,0.01,1.290000000000001,20,1,1,3,140,1,1,5,2,0.5,18,6,Lc,0.3060714285714287,0.01,0.01,0.2580000000000001
3,15,29,1,5,0.8700000000000006,2,6,46,45,18,90,14.24999999999976,2.5499999999999896,0.4400000000000002,0.7600000000000005,15,3,2,2,50,10,2,2,5,0,19,6,Lc,0.28500000000000014,0.2550000000000001,0.22000000000000008,0.38000000000000017
3,15,30,1,3,0.3300000000000001,2,3,33,31,35,32,8.669999999999867,2.4599999999999915,0.5000000000000002,5.309999999999931,11,5,1,9,24,8,1,16,5,1,60,6,Lc,0.3612500000000002,0.3075000000000001,0.5000000000000002,0.33187500000000014
3,16,31,1,6,0.5800000000000003,2,4,6,11,35,25,10.499999999999833,7.089999999999893,0.7000000000000004,5.229999999999933,12,9,1,5,33,24,2,11,6,0,22,6,Lc,0.31818181818181834,0.29541666666666677,0.35000000000000014,0.47545454545454524
3,16,32,1,4,0.2800000000000001,2,3,102,18,71,101,10.899999999999817,1.390000000000001,4.129999999999956,0.13999999999999999,12,2,5,1,31,2,11,1,2,0,14,6,Lc,0.35161290322580663,0.6950000000000004,0.37545454545454565,0.13999999999999999
3,17,33,1,2,0.36000000000000015,2,3,83,57,55,52,15.909999999999712,0.2700000000000001,0.5000000000000002,1.7800000000000014,15,3,2,4,42,3,3,11,4,0.5,27,6,Lc,0.378809523809524,0.09000000000000002,0.16666666666666669,0.16181818181818186
3,17,34,1,7,0.7600000000000005,2,8,24,22,14,18,8.859999999999872,3.9199999999999604,5.179999999999934,2.569999999999989,10,10,8,6,39,13,19,9,6,1,72,6,Lc,0.22717948717948724,0.3015384615384617,0.27263157894736856,0.2855555555555557
3,18,35,1,8,0.3900000000000002,2,3,111,114,52,113,12.629999999999784,1.6200000000000012,2.0899999999999994,1.8100000000000014,15,6,2,7,56,10,9,9,2,0.5,16,6,Lc,0.22553571428571437,0.16200000000000003,0.2322222222222223,0.20111111111111118
3,18,36,1,7,1.1100000000000008,2,7,15,14,107,75,18.469999999999914,9.699999999999838,0.36000000000000015,1.450000000000001,14,10,3,5,62,24,3,7,6,0,17,6,Lc,0.29790322580645173,0.4041666666666669,0.12000000000000001,0.2071428571428572
4,1,1,0,6,0.3900000000000002,2,4,116,9,110,111,2.3900000000000015,0.3900000000000002,0.47000000000000025,0.3100000000000001,4,2,1,1,7,2,2,1,6,0.5,18,7,Lc,0.3414285714285716,0.19500000000000003,0.2350000000000001,0.3100000000000001
4,1,2,0,1,0.5300000000000002,2,4,43,55,76,75,3.0499999999999905,0.37000000000000016,0.24000000000000007,0.09,7,2,1,1,11,2,1,1,3,0,15,7,Lc,0.2772727272727274,0.18500000000000008,0.24000000000000007,0.09
4,2,3,0,4,0.4000000000000002,2,3,58,106,5,12,2.8399999999999923,0.4000000000000002,0.5300000000000002,0.38000000000000017,6,2,1,2,10,2,1,2,2,0,18,7,Lc,0.28400000000000014,0.20000000000000004,0.5300000000000002,0.19000000000000009
4,2,4,0,7,0.3100000000000001,2,3,39,66,17,68,3.029999999999986,1.450000000000001,0.6400000000000003,0.48000000000000026,10,3,3,2,13,3,3,2,6,0,19,7,Lc,0.23307692307692315,0.4833333333333336,0.2133333333333334,0.2400000000000001
4,3,5,0,2,0.47000000000000025,2,4,49,28,25,17,1.9700000000000013,2.289999999999995,1.1100000000000008,0.060000000000000005,5,4,4,1,8,4,6,1,4,0,20,7,Lc,0.2462500000000001,0.5725000000000003,0.18500000000000005,0.060000000000000005
4,3,6,0,9,0.5000000000000002,2,3,5,97,4,108,4.429999999999961,0.8700000000000006,0.10999999999999999,0.02,13,3,1,1,16,3,1,1,4,0,16,7,Lc,0.2768750000000001,0.29000000000000015,0.10999999999999999,0.02
4,4,7,0,5,0.35000000000000014,2,4,44,112,4,9,1.540000000000001,2.949999999999981,0.5400000000000003,0.13999999999999999,5,5,2,2,8,7,4,2,5,0,19,7,Lc,0.19250000000000006,0.42142857142857165,0.135,0.07
4,4,8,0,4,0.9200000000000006,2,6,99,59,21,30,6.899999999999918,0.01,0.7400000000000004,0.02,9,1,2,2,18,1,2,2,2,0,17,7,Lc,0.3833333333333335,0.01,0.3700000000000002,0.01
4,5,9,0,5,0.5400000000000003,4,10,38,40,105,17,4.179999999999967,0.5600000000000003,0.20000000000000004,1.460000000000001,10,3,1,3,22,3,1,3,5,0,18,7,Lc,0.19000000000000006,0.18666666666666673,0.20000000000000004,0.48666666666666697
4,5,10,0,1,0.6000000000000003,5,7,73,36,66,31,1.680000000000001,2.1899999999999973,0.3300000000000001,0.3900000000000002,7,2,2,2,11,8,2,6,3,0,17,7,Lc,0.15272727272727277,0.2737500000000001,0.16500000000000004,0.065
4,6,11,0,1,0.5100000000000002,2,5,76,60,80,18,1.2000000000000006,2.2799999999999954,0.08,0.12999999999999998,3,2,1,1,6,6,1,1,3,0,16,7,Lc,0.20000000000000007,0.38000000000000017,0.08,0.12999999999999998
4,6,12,0,9,0.4000000000000002,2,5,63,46,39,4,1.3600000000000008,0.9800000000000006,0.3900000000000002,0.22000000000000006,3,3,2,1,6,4,2,1,4,0,20,7,Lc,0.22666666666666677,0.24500000000000008,0.195,0.22000000000000006
4,7,13,1,8,0.7700000000000005,2,9,109,5,113,115,2.770000000000002,0.4200000000000002,1.410000000000001,0.05,6,2,4,1,13,4,5,1,2,0.5,18,7,Lc,0.21307692307692316,0.10500000000000002,0.28200000000000014,0.05
4,7,14,1,1,0.46000000000000024,5,7,76,102,105,18,1.610000000000001,0.8700000000000006,0.5100000000000002,0.2900000000000001,7,2,2,1,11,4,2,1,3,0,13,7,Lc,0.14636363636363642,0.21750000000000005,0.25500000000000006,0.2900000000000001
4,8,15,1,8,0.6900000000000004,2,5,53,54,112,31,4.60999999999996,0.6300000000000003,0.02,0.38000000000000017,11,3,1,3,17,3,1,4,2,0,15,7,Lc,0.2711764705882354,0.21000000000000008,0.02,0.09500000000000001
4,8,16,1,9,0.6100000000000003,4,5,70,44,76,103,2.2800000000000016,0.2800000000000001,0.7800000000000005,0.23000000000000007,7,1,3,1,9,1,4,1,4,0,14,7,Lc,0.2533333333333334,0.2800000000000001,0.19500000000000006,0.23000000000000007
4,9,17,1,1,0.6800000000000004,2,5,23,39,50,44,3.9399999999999746,0.09,0.7100000000000004,1.480000000000001,7,1,3,6,11,1,3,10,3,0,20,7,Lc,0.3581818181818184,0.09,0.23666666666666678,0.14800000000000002
4,9,18,1,10,0.8400000000000005,3,5,114,25,90,29,2.9299999999999997,0.3000000000000001,0.23000000000000007,0.24000000000000007,6,1,1,2,8,1,1,2,3,0,15,7,Lc,0.3662500000000002,0.3000000000000001,0.23000000000000007,0.12
4,10,19,1,4,1.7500000000000013,3,8,49,97,11,95,2.8500000000000023,1.0000000000000007,1.2000000000000008,0.38000000000000017,5,3,2,2,11,4,2,2,2,0,15,7,Lc,0.2590909090909092,0.2500000000000001,0.6000000000000003,0.19000000000000003
4,10,20,1,8,0.6900000000000004,2,4,113,72,22,63,3.009999999999995,0.6200000000000003,0.16,0.3200000000000001,7,1,1,1,12,1,1,1,2,0,16,7,Lc,0.2508333333333334,0.6200000000000003,0.16,0.3200000000000001
4,11,21,1,1,0.4200000000000002,2,3,78,99,74,84,1.4800000000000009,1.2500000000000009,0.3300000000000001,0.5100000000000002,4,3,1,2,5,3,1,4,3,0.5,20,7,Lc,0.29600000000000015,0.41666666666666685,0.3300000000000001,0.1275
4,11,22,1,8,0.3200000000000001,2,3,119,109,4,52,2.1600000000000015,2.020000000000001,0.08,0.3900000000000002,5,4,1,1,8,4,1,2,2,0,14,7,Lc,0.27000000000000013,0.5050000000000003,0.08,0.19500000000000003
4,12,23,1,4,0.24000000000000007,2,3,100,9,65,108,1.2700000000000007,3.319999999999973,0.13999999999999999,0.5300000000000002,4,7,1,3,5,8,1,3,2,0,14,7,Lc,0.2540000000000001,0.4150000000000002,0.13999999999999999,0.17666666666666675
4,12,24,1,7,0.6800000000000004,5,10,48,13,73,84,2.1200000000000014,3.5299999999999687,0.01,0.060000000000000005,7,8,1,1,12,9,1,1,6,0,17,7,Lc,0.17666666666666672,0.3922222222222224,0.01,0.060000000000000005
4,13,25,1,6,0.3300000000000001,2,3,9,1,84,67,3.009999999999987,6.159999999999913,0.26000000000000006,0.7800000000000005,7,10,3,4,12,20,3,4,6,0,19,7,Lc,0.2508333333333334,0.30800000000000016,0.08666666666666666,0.19500000000000003
4,13,26,1,2,0.4000000000000002,2,3,60,55,87,113,1.9300000000000013,0.8000000000000005,1.5600000000000012,0.09999999999999999,4,2,3,1,9,3,4,1,4,0,13,7,Lc,0.2144444444444445,0.2666666666666668,0.3900000000000002,0.09999999999999999
4,14,27,1,2,0.13999999999999999,2,3,53,51,99,16,1.550000000000001,0.45000000000000023,1.290000000000001,0.45000000000000023,5,2,4,2,9,2,4,2,4,0,16,7,Lc,0.17222222222222228,0.22500000000000003,0.3225000000000001,0.22500000000000012
4,14,28,1,5,1.7100000000000013,3,4,48,47,62,74,3.7700000000000014,0.4400000000000002,1.6700000000000013,0.02,6,2,5,1,10,2,8,1,5,0,17,7,Lc,0.37700000000000017,0.22000000000000008,0.20875000000000007,0.02
4,15,29,1,9,0.3300000000000001,2,3,71,12,111,4,2.779999999999992,1.1200000000000008,0.4300000000000002,0.4400000000000002,8,2,2,1,13,3,2,1,4,0,18,7,Lc,0.21384615384615394,0.3733333333333335,0.21500000000000008,0.4400000000000002
4,15,30,1,4,4.609999999999946,6,15,104,52,47,83,6.549999999999947,0.9100000000000006,0.45000000000000023,0.17,9,2,2,2,22,2,3,2,2,0,14,7,Lc,0.29772727272727284,0.4550000000000003,0.15000000000000002,0.08499999999999999
4,16,31,1,4,0.4400000000000002,3,4,103,100,104,21,2.899999999999992,0.11999999999999998,3.4899999999999696,0.03,7,1,6,1,8,1,8,1,2,0.5,18,7,Lc,0.36250000000000016,0.11999999999999998,0.43625000000000025,0.03
4,16,32,1,1,0.35000000000000014,2,5,82,64,75,83,1.1900000000000006,1.7400000000000013,1.450000000000001,0.04,3,6,4,1,6,6,4,1,3,0.5,22,7,Lc,0.19833333333333342,0.2900000000000001,0.3625000000000002,0.04
4,17,33,1,4,0.35000000000000014,2,3,55,108,100,50,3.5099999999999767,0.12999999999999998,0.8500000000000005,0.8000000000000005,9,1,2,4,14,1,2,5,2,0,12,7,Lc,0.25071428571428583,0.12999999999999998,0.42500000000000027,0.16000000000000006
4,17,34,1,9,0.38000000000000017,2,3,61,31,26,19,2.559999999999998,0.9900000000000007,1.430000000000001,0.09999999999999999,6,3,3,1,8,3,3,1,4,0,20,7,Lc,0.3200000000000002,0.3300000000000002,0.4766666666666669,0.09999999999999999
4,18,35,1,9,0.6400000000000003,2,8,104,95,108,61,3.309999999999987,0.46000000000000024,0.15,0.18000000000000002,7,3,1,2,16,3,1,2,4,0,11,7,Lc,0.2068750000000001,0.15333333333333335,0.15,0.09
4,18,36,1,1,0.6600000000000004,2,5,80,57,30,59,1.670000000000001,1.6800000000000013,0.46000000000000024,0.2800000000000001,4,3,2,1,9,5,2,1,3,0,16,7,Lc,0.18555555555555564,0.3360000000000002,0.23000000000000007,0.2800000000000001
4,19,37,1,10,0.2900000000000001,3,4,71,13,67,89,7.309999999999895,0.01,0.4100000000000002,0.01,17,1,3,1,28,1,3,1,3,0,17,7,Lc,0.2610714285714287,0.01,0.13666666666666666,0.01
4,19,38,1,5,0.5400000000000003,3,7,107,104,75,99,2.2100000000000017,0.3200000000000001,0.5400000000000003,0.3100000000000001,6,1,2,2,10,1,3,2,5,0.5,15,7,Lc,0.22100000000000009,0.3200000000000001,0.18000000000000005,0.15500000000000003
4,20,39,1,7,0.6600000000000004,2,4,21,19,15,48,1.510000000000001,1.7100000000000013,4.42999999999995,0.01,4,4,11,1,6,4,17,1,6,0.5,41,7,Lc,0.25166666666666676,0.4275000000000002,0.26058823529411773,0.01
4,20,40,1,1,0.4000000000000002,2,3,84,81,63,69,2.0300000000000016,0.5000000000000002,0.37000000000000016,0.15,5,2,2,2,9,2,3,2,3,0,14,7,Lc,0.22555555555555562,0.2500000000000001,0.12333333333333334,0.07499999999999998
4,21,41,1,3,0.2700000000000001,2,3,30,57,49,33,1.2600000000000007,0.9100000000000006,1.5300000000000011,0.8600000000000005,4,1,4,3,5,1,4,3,5,0,18,7,Lc,0.2520000000000001,0.9100000000000006,0.3825000000000002,0.2866666666666668
4,21,42,1,5,0.6800000000000004,3,5,47,3,67,38,2.1500000000000012,1.340000000000001,0.49000000000000027,0.060000000000000005,5,4,2,2,9,4,3,2,5,0,20,7,Lc,0.23888888888888896,0.3350000000000002,0.16333333333333336,0.030000000000000002
5,1,1,0,10,0.3300000000000001,2,3,85,113,112,43,2.2600000000000016,0.9600000000000006,0.38000000000000017,0.19000000000000003,4,3,1,1,9,4,1,1,3,0,12,7,Lc,0.2511111111111112,0.24000000000000007,0.38000000000000017,0.19000000000000003
5,1,2,0,3,0.4200000000000002,2,3,25,17,35,27,1.9600000000000013,1.430000000000001,0.17,0.23000000000000007,5,2,1,2,6,5,1,2,5,0.5,36,7,Lc,0.3266666666666668,0.2860000000000001,0.17,0.11499999999999999
5,2,3,0,7,0.3900000000000002,2,3,21,20,93,27,2.4899999999999993,11.4699999999998,0.3200000000000001,0.3200000000000001,6,15,3,2,10,35,3,3,6,0,20,7,Lc,0.24900000000000008,0.32771428571428585,0.10666666666666669,0.1066666666666667
5,2,4,0,5,0.7800000000000005,2,6,47,39,61,44,3.1899999999999933,0.7600000000000005,0.9000000000000006,0.24000000000000007,5,2,3,2,15,2,3,2,5,0.5,34,7,Lc,0.21266666666666673,0.38000000000000017,0.3000000000000001,0.12
5,3,5,0,1,0.5700000000000003,2,4,82,81,38,111,2.829999999999996,0.7300000000000004,0.8400000000000005,0.4000000000000002,5,2,3,3,7,2,4,4,3,0,13,7,Lc,0.40428571428571447,0.36500000000000016,0.21000000000000005,0.10000000000000002
5,3,6,0,4,0.37000000000000016,2,3,92,67,31,26,2.769999999999993,1.370000000000001,0.26000000000000006,0.2800000000000001,5,2,1,1,9,5,1,1,2,0,17,7,Lc,0.30777777777777787,0.2740000000000001,0.26000000000000006,0.2800000000000001
5,4,7,0,1,0.3100000000000001,2,3,78,84,18,69,2.519999999999997,0.26000000000000006,1.6500000000000012,0.20000000000000004,4,1,4,1,12,1,7,1,3,0,16,7,Lc,0.21000000000000008,0.26000000000000006,0.23571428571428582,0.20000000000000004
5,4,8,0,6,0.4300000000000002,2,4,2,113,5,96,5.81999999999993,0.02,0.02,0.13999999999999999,10,1,1,1,15,1,1,1,6,0,17,7,Lc,0.3880000000000002,0.02,0.02,0.13999999999999999
5,5,9,0,4,0.3900000000000002,2,3,75,65,10,64,2.9599999999999893,0.7800000000000005,0.6600000000000004,0.3200000000000001,6,2,2,1,11,3,2,2,2,0,17,7,Lc,0.2690909090909092,0.2600000000000001,0.3300000000000001,0.16000000000000006
5,5,10,0,10,0.48000000000000026,2,4,87,89,112,118,1.9000000000000012,1.9100000000000015,2.4099999999999926,0.01,5,2,4,1,10,2,5,1,3,0,10,7,Lc,0.19000000000000006,0.9550000000000007,0.48200000000000026,0.01
5,6,11,0,4,0.25000000000000006,1,2,88,105,102,50,5.709999999999928,0.02,0.02,2.109999999999999,9,1,1,4,16,1,1,5,2,0,11,7,Lc,0.35687500000000016,0.02,0.02,0.42200000000000026
5,6,12,0,9,0.45000000000000023,2,4,68,61,66,120,1.680000000000001,0.6800000000000004,0.3300000000000001,1.2300000000000009,5,2,1,3,9,2,1,4,4,0.5,26,7,Lc,0.18666666666666673,0.3400000000000002,0.3300000000000001,0.30750000000000016
5,7,13,1,9,0.3200000000000001,2,3,62,70,46,69,1.4100000000000008,1.1500000000000008,1.1900000000000008,0.5600000000000003,4,3,4,2,7,3,5,3,4,0.5,29,7,Lc,0.2014285714285715,0.3833333333333335,0.2380000000000001,0.18666666666666676
5,7,14,1,3,0.5400000000000003,4,6,32,87,118,25,1.4800000000000009,2.109999999999999,0.37000000000000016,0.09999999999999999,6,4,2,1,8,9,3,1,5,0,15,7,Lc,0.18500000000000005,0.23444444444444454,0.12333333333333335,0.09999999999999999
5,8,15,1,3,0.6800000000000004,2,6,35,33,26,93,2.0900000000000016,0.9600000000000006,2.010000000000001,1.0000000000000007,4,2,4,2,8,3,4,3,5,0.5,33,7,Lc,0.26125000000000015,0.3200000000000002,0.5025000000000003,0.3333333333333335
5,8,16,1,6,0.17,2,2,1,115,10,8,1.4100000000000008,1.0000000000000007,0.4300000000000002,0.4300000000000002,3,3,2,2,3,5,2,2,6,0.5,38,7,Lc,0.4700000000000003,0.20000000000000007,0.21500000000000008,0.21500000000000005
5,9,17,1,2,0.3200000000000001,2,3,50,20,28,30,1.740000000000001,2.6499999999999875,1.480000000000001,0.03,4,4,2,1,6,6,2,1,4,0,20,7,Lc,0.29000000000000015,0.44166666666666693,0.7400000000000004,0.03
5,9,18,1,9,0.2900000000000001,2,4,72,119,114,47,1.550000000000001,1.8900000000000015,0.8700000000000006,0.13999999999999999,5,3,2,1,10,4,2,1,4,0,13,7,Lc,0.15500000000000005,0.47250000000000025,0.4350000000000002,0.13999999999999999
5,10,19,1,10,0.45000000000000023,2,4,91,88,93,36,2.270000000000002,2.5199999999999902,0.9300000000000006,0.02,6,4,3,1,9,6,3,1,3,0.5,23,7,Lc,0.25222222222222235,0.42000000000000026,0.31000000000000016,0.02
5,10,20,1,7,0.9300000000000006,2,6,116,67,65,44,3.069999999999999,0.6000000000000003,2.6099999999999883,0.17,5,2,5,1,14,3,6,1,6,0,15,7,Lc,0.21928571428571436,0.20000000000000007,0.4350000000000002,0.17
5,11,21,1,10,0.5900000000000003,2,3,59,56,13,86,2.5000000000000018,0.9100000000000006,0.7500000000000004,0.18000000000000002,5,2,2,2,8,4,2,3,3,0,17,7,Lc,0.31250000000000017,0.2275000000000001,0.3750000000000001,0.06
5,11,22,1,1,0.45000000000000023,2,3,83,38,80,68,5.899999999999928,0.08,0.01,0.3900000000000002,6,1,1,3,11,1,1,3,3,0,15,7,Lc,0.5363636363636354,0.08,0.01,0.13000000000000003
5,12,23,1,9,0.5100000000000002,2,4,41,70,69,44,3.5399999999999796,0.4300000000000002,0.13999999999999999,0.34000000000000014,5,2,2,2,10,2,2,2,4,0,18,7,Lc,0.3540000000000002,0.21500000000000008,0.07,0.17
5,12,24,1,2,0.5000000000000002,3,6,114,54,57,113,3.04999999999999,0.46000000000000024,0.22000000000000006,0.15,7,2,1,1,15,2,1,1,4,0,12,7,Lc,0.2033333333333334,0.23000000000000007,0.22000000000000006,0.15
5,13,25,1,6,0.38000000000000017,2,3,6,3,5,62,2.7999999999999927,1.7800000000000014,0.9500000000000006,0.03,5,4,3,2,10,4,3,2,6,0.5,40,7,Lc,0.28000000000000014,0.44500000000000023,0.3166666666666668,0.015
5,13,26,1,4,0.3000000000000001,2,3,104,14,105,88,3.3399999999999794,0.9300000000000006,0.05,0.16,6,2,1,1,11,3,1,1,2,0,13,7,Lc,0.30363636363636376,0.3100000000000001,0.05,0.16
5,14,27,1,2,0.10999999999999999,2,2,1,7,50,6,15.969999999999706,0.09,0.03,0.01,19,2,2,1,48,2,2,1,4,0.5,40,7,Lc,0.3327083333333335,0.045,0.015,0.01
5,14,28,1,8,0.34000000000000014,2,3,117,19,94,21,2.3400000000000016,0.6200000000000003,0.8200000000000005,0.09,5,2,2,1,7,2,3,1,2,0,17,7,Lc,0.33428571428571446,0.3100000000000001,0.27333333333333343,0.09
5,15,29,1,8,0.37000000000000016,2,4,115,75,17,16,3.1599999999999846,1.0200000000000007,0.5800000000000003,0.08,9,3,3,1,13,3,4,1,2,0,17,7,Lc,0.24307692307692316,0.34000000000000014,0.14500000000000005,0.08
5,15,30,1,6,0.4300000000000002,2,4,6,107,2,5,3.0299999999999887,2.109999999999999,0.10999999999999999,0.02,8,3,2,1,11,5,2,1,6,0.5,38,7,Lc,0.27545454545454556,0.4220000000000002,0.055,0.02
5,16,31,1,2,0.34000000000000014,2,4,52,23,118,58,1.680000000000001,1.370000000000001,1.350000000000001,0.6200000000000003,4,2,3,2,7,2,4,2,4,0,16,7,Lc,0.2400000000000001,0.6850000000000004,0.33750000000000013,0.31000000000000016
5,16,32,1,10,0.4000000000000002,2,3,86,67,70,91,2.669999999999996,1.9700000000000015,0.6100000000000003,0.02,6,3,2,1,7,3,2,1,3,0,14,7,Lc,0.3814285714285716,0.6566666666666671,0.3050000000000001,0.02
5,17,33,1,5,0.4000000000000002,3,5,40,44,95,92,2.1500000000000017,2.06,0.15,1.2300000000000009,5,4,1,3,9,4,1,4,5,0,16,7,Lc,0.23888888888888898,0.5150000000000003,0.15,0.30750000000000016
5,17,34,1,8,0.4300000000000002,2,4,114,110,74,112,1.8900000000000012,1.0400000000000007,0.6000000000000003,0.18000000000000002,4,3,2,2,9,3,3,3,2,0.5,15,7,Lc,0.21000000000000008,0.3466666666666668,0.20000000000000004,0.06
5,18,35,1,2,0.2700000000000001,2,3,117,55,80,75,2.9199999999999875,0.15,0.26000000000000006,0.7800000000000005,6,2,1,3,8,3,1,3,4,0,12,7,Lc,0.36500000000000016,0.049999999999999996,0.26000000000000006,0.2600000000000001
5,18,36,1,3,0.3000000000000001,2,4,25,107,100,101,1.7700000000000011,0.8000000000000005,0.5800000000000003,0.4000000000000002,5,1,2,2,10,1,3,2,5,0.5,17,7,Lc,0.17700000000000007,0.8000000000000005,0.19333333333333338,0.20000000000000004
5,19,37,1,3,0.4300000000000002,2,3,25,23,107,87,4.019999999999968,0.6300000000000003,0.08,0.5000000000000002,7,2,1,1,10,2,1,2,5,0,16,7,Lc,0.4020000000000002,0.3150000000000001,0.08,0.2500000000000001
5,19,38,1,1,0.2800000000000001,2,3,82,83,113,5,1.3400000000000007,1.1500000000000008,4.159999999999956,0.5400000000000003,4,2,7,4,7,4,14,4,3,0,14,7,Lc,0.19142857142857148,0.2875000000000001,0.29714285714285726,0.13500000000000004
5,20,39,1,8,0.8000000000000005,2,5,42,37,10,6,6.5499999999999226,0.15,1.6400000000000012,0.8800000000000006,6,1,5,3,10,1,6,4,2,0,22,7,Lc,0.6550000000000005,0.15,0.27333333333333343,0.22000000000000008
5,20,40,1,10,0.36000000000000015,2,3,89,29,86,26,1.8900000000000012,1.310000000000001,0.9000000000000006,0.4400000000000002,5,4,3,1,8,4,4,1,3,0,16,7,Lc,0.2362500000000001,0.3275000000000001,0.2250000000000001,0.4400000000000002
5,21,41,1,10,0.36000000000000015,2,3,8,96,111,5,3.329999999999981,0.4300000000000002,0.9100000000000006,0.09,7,2,2,1,11,3,2,1,3,0,17,7,Lc,0.30272727272727284,0.14333333333333337,0.4550000000000002,0.09
5,21,42,1,7,0.38000000000000017,2,3,72,28,31,81,2.1000000000000014,1.0800000000000007,0.5600000000000003,0.9900000000000007,5,2,2,3,9,2,4,3,6,0,17,7,Lc,0.23333333333333342,0.5400000000000003,0.14000000000000004,0.3300000000000002
6,1,1,0,4,0.4300000000000002,2,3,65,107,77,104,2.6999999999999957,0.3200000000000001,0.38000000000000017,0.13999999999999999,5,2,2,2,14,2,2,2,2,0,11,7,Lc,0.19285714285714292,0.16000000000000003,0.19000000000000003,0.07
6,1,2,0,3,0.16,2,2,13,60,53,14,15.779999999999712,0.01,0.01,0.01,18,1,1,1,45,1,1,1,5,0,20,7,Lc,0.35066666666666685,0.01,0.01,0.01
6,2,3,0,10,0.3300000000000001,2,3,94,15,21,14,1.3700000000000008,1.0700000000000007,0.37000000000000016,0.16,4,2,2,1,5,7,3,1,3,0.5,39,7,Lc,0.27400000000000013,0.15285714285714289,0.12333333333333335,0.16
6,2,4,0,3,0.7400000000000004,2,8,25,73,27,98,1.9800000000000013,1.270000000000001,0.2800000000000001,0.19000000000000003,4,4,2,1,11,8,2,1,5,0,15,7,Lc,0.18000000000000005,0.15875000000000003,0.14,0.19000000000000003
6,3,5,0,1,0.4100000000000002,2,3,97,77,60,74,2.909999999999991,0.11999999999999998,0.15,0.09,4,1,1,1,8,1,1,1,3,0,12,7,Lc,0.3637500000000002,0.11999999999999998,0.15,0.09
6,3,6,0,7,0.46000000000000024,2,3,23,22,19,17,1.4500000000000008,0.9900000000000007,1.0500000000000007,1.0000000000000007,5,2,4,4,7,5,7,6,6,1,72,7,Lc,0.2071428571428572,0.19800000000000006,0.15000000000000002,0.16666666666666669
6,4,7,0,3,0.36000000000000015,2,3,36,71,61,35,1.620000000000001,0.6400000000000003,1.1500000000000008,0.7900000000000005,5,1,4,2,7,1,4,2,5,0,18,7,Lc,0.2314285714285715,0.6400000000000003,0.28750000000000014,0.39500000000000024
6,4,8,0,10,0.34000000000000014,2,3,94,57,86,96,2.1100000000000017,0.8100000000000005,0.08,0.2800000000000001,5,3,1,3,10,3,1,3,3,0.5,22,7,Lc,0.21100000000000005,0.2700000000000001,0.08,0.09333333333333335
6,5,9,0,8,0.37000000000000016,2,3,110,119,114,1,1.9000000000000012,2.759999999999985,0.2800000000000001,8.529999999999863,4,5,2,16,11,9,2,29,2,0.5,18,7,Lc,0.17272727272727278,0.3066666666666668,0.14000000000000004,0.2941379310344829
6,5,10,0,2,0.38000000000000017,2,4,53,50,82,104,1.9600000000000013,0.5500000000000003,0.26000000000000006,0.5700000000000003,4,2,1,3,11,3,1,4,4,0,13,7,Lc,0.17818181818181822,0.18333333333333335,0.26000000000000006,0.1425
6,6,11,0,3,0.7700000000000005,3,7,103,77,99,84,1.7800000000000011,0.8400000000000005,0.3300000000000001,0.17,4,3,2,1,8,4,3,1,5,0,10,7,Lc,0.2225000000000001,0.21000000000000008,0.11,0.17
6,6,12,0,8,0.5700000000000003,8,9,113,53,119,46,1.9300000000000013,2.1199999999999988,0.16,0.03,10,3,1,1,13,8,1,1,2,0,13,7,Lc,0.1484615384615385,0.2650000000000002,0.16,0.03
6,7,13,1,7,0.37000000000000016,2,3,98,108,84,43,2.4599999999999995,0.25000000000000006,0.6600000000000004,0.11999999999999998,4,1,3,1,10,1,3,1,6,0,12,7,Lc,0.24600000000000008,0.25000000000000006,0.22000000000000006,0.11999999999999998
6,7,14,1,3,0.5100000000000002,5,6,29,120,1,119,2.1900000000000013,0.7100000000000004,0.8700000000000006,0.02,7,2,4,1,10,5,4,1,5,0,15,7,Lc,0.21900000000000008,0.14200000000000002,0.21750000000000005,0.02
6,8,15,1,2,0.3000000000000001,2,3,55,112,23,49,1.8900000000000012,0.7900000000000005,0.4300000000000002,0.04,5,2,1,1,7,2,1,1,4,0,16,7,Lc,0.27000000000000013,0.3950000000000002,0.4300000000000002,0.04
6,8,16,1,3,0.3300000000000001,2,3,25,32,87,90,1.7800000000000011,1.9300000000000015,0.3300000000000001,0.3200000000000001,4,5,2,1,13,5,2,1,5,0,16,7,Lc,0.13692307692307695,0.38600000000000023,0.16500000000000004,0.3200000000000001
6,9,17,1,3,0.3200000000000001,2,3,30,52,34,49,1.560000000000001,0.5900000000000003,0.25000000000000006,0.2900000000000001,4,1,1,2,5,1,1,2,5,0,18,7,Lc,0.31200000000000017,0.5900000000000003,0.25000000000000006,0.14500000000000005
6,9,18,1,7,0.34000000000000014,2,3,116,16,22,38,3.019999999999987,0.060000000000000005,1.6600000000000013,1.0900000000000007,7,1,7,3,13,1,7,3,6,0,19,7,Lc,0.23230769230769238,0.060000000000000005,0.23714285714285727,0.3633333333333335
6,10,19,1,1,0.3100000000000001,2,3,78,116,84,17,2.3400000000000007,0.46000000000000024,0.08,0.35000000000000014,5,1,1,3,11,1,1,3,3,0,14,7,Lc,0.2127272727272728,0.46000000000000024,0.08,0.11666666666666667
6,10,20,1,4,0.3000000000000001,2,5,98,96,103,28,1.750000000000001,0.9400000000000006,0.08,0.5000000000000002,4,2,1,3,13,4,1,5,2,0,12,7,Lc,0.13461538461538464,0.2350000000000001,0.08,0.1
6,11,21,1,5,0.23000000000000007,2,4,42,93,11,3,1.3700000000000008,1.8500000000000014,0.21000000000000005,1.0000000000000007,4,5,1,2,8,6,2,3,5,0,20,7,Lc,0.17125000000000007,0.30833333333333346,0.10500000000000001,0.3333333333333335
6,11,22,1,1,0.7900000000000005,3,5,17,32,30,16,2.3100000000000014,0.2700000000000001,0.26000000000000006,0.5500000000000003,6,1,3,2,9,1,3,2,3,0,22,7,Lc,0.25666666666666677,0.2700000000000001,0.08666666666666666,0.27500000000000013
6,12,23,1,1,0.19000000000000003,2,3,84,14,16,82,0.8800000000000004,2.5499999999999896,0.23000000000000007,0.03,4,4,1,1,5,4,1,1,3,0,18,7,Lc,0.17600000000000005,0.6375000000000004,0.23000000000000007,0.03
6,12,24,1,6,0.36000000000000015,2,3,4,2,12,35,2.0700000000000016,0.3100000000000001,0.26000000000000006,0.11999999999999998,4,1,1,1,13,1,1,1,6,0.5,41,7,Lc,0.1592307692307693,0.3100000000000001,0.26000000000000006,0.11999999999999998
6,13,25,1,6,0.6000000000000003,2,4,28,92,108,2,3.649999999999979,1.9000000000000015,2.3099999999999947,0.01,8,5,2,1,15,5,2,1,6,0,16,7,Lc,0.24333333333333343,0.38000000000000017,1.1550000000000007,0.01
6,13,26,1,8,0.23000000000000007,2,3,79,54,75,55,2.1200000000000014,1.0100000000000007,0.23000000000000007,0.11999999999999998,8,4,2,2,12,4,2,2,2,0,14,7,Lc,0.17666666666666672,0.2525000000000001,0.11499999999999999,0.06
6,14,27,1,1,0.5700000000000003,2,3,76,14,103,17,2.530000000000002,1.0500000000000007,0.15,0.10999999999999999,7,2,2,2,10,4,2,2,3,0,17,7,Lc,0.2530000000000001,0.2625000000000001,0.075,0.055
6,14,28,1,10,0.34000000000000014,2,3,85,95,54,58,2.3500000000000014,0.15,0.8300000000000005,0.05,4,1,3,1,13,1,3,1,3,0,14,7,Lc,0.1807692307692308,0.15,0.2766666666666668,0.05
6,15,29,1,3,0.36000000000000015,2,3,11,105,59,6,2.4200000000000004,0.26000000000000006,0.23000000000000007,0.18000000000000002,5,2,2,2,12,2,2,2,5,0,18,7,Lc,0.20166666666666674,0.13000000000000003,0.11500000000000002,0.09000000000000001
6,15,30,1,1,0.2900000000000001,2,3,67,79,43,83,2.2300000000000018,0.45000000000000023,0.34000000000000014,0.07,6,2,2,1,9,2,2,1,3,0,15,7,Lc,0.24777777777777787,0.22500000000000003,0.17,0.07
6,16,31,1,1,0.26000000000000006,2,4,1,73,110,79,1.720000000000001,0.23000000000000007,0.7000000000000004,0.07,4,1,2,1,11,1,3,1,3,0,14,7,Lc,0.15636363636363643,0.23000000000000007,0.23333333333333342,0.07
6,16,32,1,10,0.34000000000000014,2,3,95,98,67,65,1.3700000000000008,0.5000000000000002,0.4100000000000002,0.49000000000000027,5,1,1,3,7,1,1,3,3,0,13,7,Lc,0.19571428571428579,0.5000000000000002,0.4100000000000002,0.16333333333333336
6,17,33,1,10,0.2800000000000001,2,3,5,107,108,56,1.7600000000000011,0.47000000000000025,0.17,0.2900000000000001,4,2,1,2,6,2,1,3,3,0,14,7,Lc,0.2933333333333335,0.23500000000000004,0.17,0.09666666666666665
6,17,34,1,1,0.16,3,4,75,14,15,81,1.580000000000001,0.8100000000000005,0.5000000000000002,0.02,6,3,1,1,11,3,1,1,3,0,18,7,Lc,0.14363636363636367,0.27000000000000013,0.5000000000000002,0.02
6,18,35,1,4,0.21000000000000005,2,5,68,99,100,105,2.0600000000000014,1.340000000000001,0.04,0.03,5,5,1,1,11,5,1,1,2,0.5,16,7,Lc,0.18727272727272734,0.2680000000000001,0.04,0.03
6,18,36,1,2,0.2900000000000001,2,3,49,56,60,87,1.1700000000000006,0.9600000000000006,0.9500000000000006,0.3900000000000002,4,3,3,2,5,5,4,3,4,0.5,27,7,Lc,0.2340000000000001,0.19200000000000003,0.2375000000000001,0.13
6,19,37,1,5,0.46000000000000024,2,6,46,110,40,45,1.650000000000001,1.9600000000000015,0.05,0.4100000000000002,4,1,1,2,10,1,1,2,5,0.5,32,7,Lc,0.16500000000000004,1.9600000000000015,0.05,0.2050000000000001
6,19,38,1,9,0.6100000000000003,2,6,64,11,104,107,4.629999999999959,0.02,0.03,0.01,7,1,1,1,14,1,1,1,4,0,14,7,Lc,0.3307142857142859,0.02,0.03,0.01
6,20,39,1,6,0.3900000000000002,2,3,107,2,7,104,3.2799999999999825,0.07,11.369999999999802,1.8200000000000014,7,1,14,2,10,1,43,2,6,0,16,7,Lc,0.3280000000000001,0.07,0.2644186046511629,0.9100000000000007
6,20,40,1,9,0.3000000000000001,5,5,15,24,64,66,6.929999999999903,0.01,0.01,0.01,17,1,1,1,26,1,1,1,4,0,20,7,Lc,0.26653846153846167,0.01,0.01,0.01
6,21,41,1,3,0.36000000000000015,2,4,25,30,71,73,1.530000000000001,0.8200000000000005,0.6400000000000003,0.17,4,3,2,2,12,4,3,3,5,0,17,7,Lc,0.12750000000000003,0.20500000000000007,0.21333333333333337,0.05666666666666667
6,21,42,1,5,0.3100000000000001,2,4,17,47,95,97,1.540000000000001,0.45000000000000023,0.4400000000000002,1.9800000000000015,5,2,2,3,8,3,2,3,5,0,16,7,Lc,0.19250000000000006,0.15000000000000002,0.22000000000000003,0.6600000000000005
7,1,1,0,3,0.7100000000000004,2,4,82,100,108,5,6.179999999999929,1.340000000000001,1.0500000000000007,0.9800000000000006,7,2,2,2,25,5,5,3,5,0,13,7,Lc,0.2472000000000001,0.2680000000000001,0.21000000000000008,0.3266666666666668
7,1,2,0,5,1.0200000000000007,2,4,37,94,16,112,8.109999999999895,1.300000000000001,0.2900000000000001,0.2700000000000001,9,2,2,1,26,2,2,1,5,0,16,7,Lc,0.3119230769230771,0.6500000000000005,0.14500000000000002,0.2700000000000001
7,2,3,0,3,0.6600000000000004,4,5,119,34,113,16,8.34999999999988,0.6100000000000003,0.21000000000000005,1.5900000000000012,12,2,1,2,23,4,1,2,5,0,15,7,Lc,0.36304347826086975,0.15250000000000002,0.21000000000000005,0.7950000000000005
7,2,4,0,5,0.5800000000000003,2,3,37,42,102,9,5.4599999999999405,3.6699999999999657,0.8100000000000005,0.37000000000000016,7,4,3,2,14,6,4,2,5,0,18,7,Lc,0.3900000000000002,0.611666666666667,0.20250000000000007,0.18500000000000003
7,3,5,0,2,0.6700000000000004,5,6,53,54,120,109,5.919999999999932,0.5400000000000003,3.6299999999999666,0.25000000000000006,13,2,6,1,19,2,6,1,4,0,12,7,Lc,0.3115789473684212,0.27000000000000013,0.605,0.25000000000000006
7,3,6,0,6,1.0400000000000007,2,10,42,108,44,6,6.639999999999926,0.9500000000000006,0.5200000000000002,2.9799999999999804,9,3,1,4,22,4,1,6,6,0,18,7,Lc,0.30181818181818193,0.23750000000000007,0.5200000000000002,0.4966666666666669
7,4,7,0,3,0.3900000000000002,2,3,111,32,24,28,6.419999999999916,0.22000000000000006,0.9700000000000006,1.0700000000000007,9,1,4,4,20,1,4,5,5,0,18,7,Lc,0.321,0.22000000000000006,0.2425000000000001,0.21400000000000008
7,4,8,0,6,0.7700000000000005,3,5,3,1,93,98,6.1799999999999295,20.250000000000366,0.02,0.03,9,19,1,1,22,67,1,1,6,0,17,7,Lc,0.28090909090909105,0.3022388059701494,0.02,0.03
7,5,9,0,8,0.6700000000000004,2,5,114,111,112,115,3.0099999999999945,6.719999999999901,2.06,0.09,4,15,7,1,7,25,10,1,2,1,24,7,Lc,0.42999999999999966,0.2688000000000001,0.20600000000000007,0.09
7,5,10,0,2,1.7900000000000014,3,12,16,31,55,25,7.919999999999915,1.430000000000001,1.8400000000000014,0.7900000000000005,10,4,4,3,27,4,5,3,4,0,20,7,Lc,0.29333333333333345,0.35750000000000015,0.36800000000000016,0.2633333333333334
7,6,11,0,3,0.4200000000000002,2,3,30,13,34,29,3.2299999999999844,4.129999999999956,0.7900000000000005,0.13999999999999999,5,7,2,1,8,15,3,1,5,0.5,36,7,Lc,0.4037500000000002,0.27533333333333343,0.2633333333333334,0.13999999999999999
7,6,12,0,1,0.47000000000000025,3,4,73,51,75,41,3.3499999999999828,4.319999999999952,0.15,1.6500000000000012,7,7,1,2,8,20,1,2,3,0,15,7,Lc,0.41875000000000023,0.21600000000000008,0.15,0.8250000000000005
7,7,13,1,9,0.3300000000000001,1,2,62,69,116,114,5.199999999999941,4.629999999999946,0.3300000000000001,1.280000000000001,10,10,1,2,14,15,1,3,4,0,12,7,Lc,0.3714285714285716,0.3086666666666668,0.3300000000000001,0.42666666666666686
7,7,14,1,4,0.5400000000000003,2,4,100,107,104,13,3.1999999999999877,1.6300000000000012,2.769999999999985,2.7499999999999853,6,2,5,4,10,4,10,9,2,0.5,18,7,Lc,0.3200000000000001,0.4075000000000002,0.27700000000000014,0.3055555555555557
7,8,15,1,7,0.6900000000000004,2,7,18,17,111,53,5.839999999999935,5.199999999999934,0.6100000000000003,0.6100000000000003,9,7,1,1,17,14,2,1,6,0,18,7,Lc,0.343529411764706,0.3714285714285716,0.30500000000000016,0.6100000000000003
7,8,16,1,4,0.3000000000000001,2,4,102,106,70,101,4.7899999999999485,2.629999999999988,1.0300000000000007,1.0200000000000007,6,6,2,5,16,10,2,5,2,0.5,16,7,Lc,0.2993750000000001,0.2630000000000001,0.5150000000000002,0.20400000000000007
7,9,17,1,5,0.6400000000000003,2,3,43,72,48,64,7.279999999999903,0.4100000000000002,0.5500000000000003,2.3699999999999934,15,1,2,5,20,1,2,6,5,0,18,7,Lc,0.36400000000000016,0.4100000000000002,0.2750000000000001,0.3950000000000002
7,9,18,1,1,0.6300000000000003,2,4,103,101,52,78,4.189999999999968,2.0000000000000013,2.52999999999999,0.24000000000000007,7,3,4,2,13,6,10,2,3,0,11,7,Lc,0.32230769230769246,0.3333333333333335,0.2530000000000001,0.11999999999999998
7,10,19,1,10,0.9000000000000006,2,8,120,55,92,91,6.26999999999993,1.8500000000000014,0.18000000000000002,1.0200000000000007,11,3,1,3,30,4,1,4,3,0,12,7,Lc,0.20900000000000007,0.46250000000000024,0.18000000000000002,0.2550000000000001
7,10,20,1,9,3.93999999999996,5,16,68,103,78,100,8.109999999999916,0.2900000000000001,1.340000000000001,0.6500000000000004,13,1,3,2,33,1,3,2,4,0,11,7,Lc,0.24575757575757587,0.2900000000000001,0.4466666666666669,0.3250000000000001
7,11,21,1,1,1.290000000000001,2,10,15,56,55,41,10.579999999999847,1.6500000000000012,2.020000000000001,1.0600000000000007,14,2,5,4,33,2,8,5,3,0,19,7,Lc,0.3206060606060608,0.8250000000000006,0.2525000000000001,0.21200000000000008
7,11,22,1,6,0.45000000000000023,2,3,11,63,1,26,3.6299999999999764,2.7999999999999843,2.1899999999999973,4.699999999999944,7,4,5,9,20,6,9,13,6,0,21,7,Lc,0.18150000000000005,0.4666666666666669,0.24333333333333343,0.36153846153846175
7,12,23,1,6,0.6300000000000003,4,5,11,1,4,12,2.3000000000000016,4.519999999999948,0.5500000000000003,1.8800000000000014,6,5,3,5,7,10,4,7,6,1,72,7,Lc,0.32857142857142874,0.45200000000000023,0.1375,0.2685714285714287
7,12,24,1,1,3.1599999999999766,4,10,28,64,75,71,10.039999999999875,1.320000000000001,0.19000000000000003,0.5200000000000002,10,2,2,1,28,3,2,1,3,0,16,7,Lc,0.35857142857142876,0.4400000000000002,0.095,0.5200000000000002
7,13,25,1,1,0.7200000000000004,3,5,23,79,75,22,3.3899999999999872,1.9500000000000015,2.3299999999999943,0.4300000000000002,6,4,3,3,11,5,14,3,3,0,18,7,Lc,0.30818181818181833,0.3900000000000002,0.16642857142857145,0.14333333333333337
7,13,26,1,6,0.5700000000000003,3,5,6,10,1,66,11.07999999999982,0.03,8.949999999999854,3.6299999999999666,13,1,10,6,32,1,15,6,6,0.5,40,7,Lc,0.34625000000000017,0.03,0.596666666666667,0.6050000000000004
7,14,27,1,9,0.6700000000000004,2,5,61,70,41,83,7.879999999999891,0.10999999999999999,0.5200000000000002,3.2599999999999745,10,1,2,7,19,1,2,7,4,0,16,7,Lc,0.4147368421052634,0.10999999999999999,0.26000000000000006,0.46571428571428597
7,14,28,1,10,1.1300000000000008,4,9,22,14,91,89,5.179999999999959,1.7200000000000013,0.34000000000000014,0.25000000000000006,10,3,2,1,19,5,2,1,3,0,18,7,Lc,0.27263157894736856,0.34400000000000014,0.17000000000000007,0.25000000000000006
7,15,29,1,7,0.7700000000000005,2,5,36,98,15,33,7.679999999999898,0.45000000000000023,0.21000000000000005,1.6000000000000012,11,2,1,5,24,3,1,5,6,0,18,7,Lc,0.3200000000000002,0.15000000000000002,0.21000000000000005,0.3200000000000002
7,15,30,1,2,0.6800000000000004,2,5,39,86,94,52,8.939999999999868,0.45000000000000023,0.5300000000000002,0.060000000000000005,9,3,2,1,27,3,2,1,4,0,15,7,Lc,0.33111111111111124,0.15000000000000002,0.2650000000000001,0.060000000000000005
7,16,31,1,9,0.6700000000000004,2,4,17,89,47,14,7.079999999999908,1.350000000000001,0.8400000000000005,2.3199999999999945,8,2,2,5,24,8,2,6,4,0,20,7,Lc,0.2950000000000001,0.16875000000000004,0.42000000000000026,0.3866666666666668
7,16,32,1,6,0.5500000000000003,3,4,5,32,2,25,4.669999999999957,0.6900000000000004,3.5999999999999672,0.37000000000000016,7,2,5,3,16,2,8,3,6,0,22,7,Lc,0.2918750000000001,0.3450000000000002,0.45000000000000023,0.12333333333333332
7,17,33,1,1,0.6900000000000004,2,3,48,12,81,47,3.8199999999999776,4.999999999999938,0.9600000000000006,0.3300000000000001,6,8,2,2,9,15,2,2,3,0,19,7,Lc,0.4244444444444447,0.3333333333333335,0.48000000000000026,0.16500000000000004
7,17,34,1,3,1.440000000000001,3,7,20,105,88,97,6.87999999999993,0.9900000000000007,1.1800000000000008,0.21000000000000005,10,2,2,1,29,2,3,1,5,0,13,7,Lc,0.23724137931034492,0.4950000000000002,0.39333333333333353,0.21000000000000005
7,18,35,1,10,0.3000000000000001,2,3,30,25,68,85,5.5399999999999325,0.7900000000000005,0.49000000000000027,0.8800000000000006,8,2,1,2,25,7,1,2,3,0,17,7,Lc,0.22160000000000007,0.11285714285714286,0.49000000000000027,0.4400000000000002
7,18,36,1,1,0.38000000000000017,2,3,79,74,42,84,7.1699999999999,1.6800000000000013,0.16,0.10999999999999999,8,4,1,1,23,4,1,1,3,0.5,23,7,Lc,0.31173913043478274,0.4200000000000002,0.16,0.10999999999999999
7,19,37,1,8,0.6200000000000003,2,7,20,56,79,117,9.229999999999862,0.5100000000000002,0.5100000000000002,0.18000000000000002,13,2,1,2,27,2,2,2,2,0,15,7,Lc,0.341851851851852,0.25500000000000006,0.25500000000000006,0.09
7,19,38,1,4,1.6200000000000012,3,6,86,105,95,11,7.0599999999999294,1.7300000000000013,0.35000000000000014,0.6900000000000004,9,3,2,1,25,4,2,1,2,0,14,7,Lc,0.28240000000000015,0.4325000000000002,0.17500000000000002,0.6900000000000004
7,20,39,1,7,0.46000000000000024,2,3,21,83,75,16,6.29999999999992,0.20000000000000004,4.089999999999957,2.899999999999982,8,2,6,5,16,2,9,6,6,0,18,7,Lc,0.3937500000000002,0.1,0.4544444444444447,0.4833333333333336
7,20,40,1,2,0.8400000000000005,2,3,98,47,42,53,5.949999999999936,0.8000000000000005,3.609999999999967,1.300000000000001,9,1,5,4,17,1,8,7,4,0,16,7,Lc,0.35000000000000014,0.8000000000000005,0.45125000000000026,0.18571428571428578
8,1,1,0,8,0.5100000000000002,2,3,24,111,17,54,4.169999999999966,0.2800000000000001,0.35000000000000014,0.49000000000000027,6,2,1,2,9,2,1,3,2,0,18,7,Lc,0.4633333333333336,0.14,0.35000000000000014,0.16333333333333336
8,1,2,0,1,0.4200000000000002,2,3,42,76,82,106,4.5899999999999554,0.5400000000000003,0.13999999999999999,0.9800000000000006,7,3,2,4,9,3,2,6,3,0,13,7,Lc,0.5100000000000003,0.18000000000000005,0.07,0.16333333333333336
8,2,3,0,4,0.49000000000000027,2,3,77,97,28,84,4.269999999999964,0.4300000000000002,0.6300000000000003,0.09999999999999999,6,2,1,1,14,2,1,1,2,0,13,7,Lc,0.3050000000000001,0.21500000000000002,0.6300000000000003,0.09999999999999999
8,2,4,0,9,0.4100000000000002,2,3,44,119,43,111,4.229999999999963,0.4000000000000002,1.0100000000000007,0.9400000000000006,7,1,3,2,13,1,5,2,4,0,14,7,Lc,0.32538461538461555,0.4000000000000002,0.20200000000000007,0.47000000000000025
8,3,5,0,6,0.6200000000000003,2,4,9,10,114,3,2.2000000000000015,3.839999999999962,0.49000000000000027,0.03,5,7,2,1,7,12,4,1,6,0.5,38,7,Lc,0.31428571428571445,0.3200000000000002,0.1225,0.03
8,3,6,0,7,0.13999999999999999,2,2,15,80,17,20,1.620000000000001,1.6300000000000012,0.34000000000000014,0.20000000000000004,4,3,2,1,6,5,2,1,6,0.5,39,7,Lc,0.27000000000000013,0.3260000000000002,0.17000000000000004,0.20000000000000004
8,4,7,0,10,0.37000000000000016,2,3,86,104,29,5,3.009999999999988,1.460000000000001,0.47000000000000025,0.5800000000000003,5,4,2,2,11,7,2,2,3,0,16,7,Lc,0.27363636363636373,0.20857142857142866,0.23500000000000004,0.29000000000000015
8,4,8,0,8,0.2800000000000001,2,3,13,16,75,112,13.829999999999755,0.02,0.01,0.05,16,1,1,1,39,1,1,1,2,0,17,7,Lc,0.35461538461538483,0.02,0.01,0.05
8,5,9,0,1,0.34000000000000014,2,4,32,11,83,10,3.4799999999999773,1.480000000000001,0.38000000000000017,1.1700000000000008,9,3,2,3,14,3,2,4,3,0,20,7,Lc,0.24857142857142867,0.4933333333333336,0.19000000000000006,0.29250000000000015
8,5,10,0,9,0.2800000000000001,2,3,37,89,64,43,3.489999999999976,0.5300000000000002,0.13999999999999999,0.3900000000000002,7,1,1,2,14,1,1,2,4,0,17,7,Lc,0.2492857142857144,0.5300000000000002,0.13999999999999999,0.1950000000000001
8,6,11,0,5,1.0300000000000007,4,6,82,80,102,9,3.819999999999985,0.4300000000000002,0.5200000000000002,0.6500000000000004,8,2,2,2,13,2,2,5,5,0,14,7,Lc,0.293846153846154,0.21500000000000002,0.26000000000000006,0.13
8,6,12,0,8,0.49000000000000027,4,5,112,110,109,36,2.0500000000000016,1.9500000000000015,0.20000000000000004,0.45000000000000023,6,3,2,1,9,6,2,1,2,0.5,17,7,Lc,0.22777777777777786,0.3250000000000001,0.1,0.45000000000000023
8,7,13,1,6,0.7800000000000005,2,4,103,99,66,29,4.879999999999957,0.9300000000000006,1.0800000000000007,0.10999999999999999,6,3,3,1,9,4,3,1,6,0,13,7,Lc,0.5422222222222225,0.23250000000000007,0.36000000000000015,0.10999999999999999
8,7,14,1,7,0.4000000000000002,2,4,118,92,19,15,5.179999999999943,0.26000000000000006,0.7400000000000004,0.03,9,1,3,1,19,1,3,1,6,0,17,7,Lc,0.27263157894736856,0.26000000000000006,0.24666666666666676,0.03
8,8,15,1,10,0.7200000000000004,3,8,95,27,1,91,5.689999999999939,0.9600000000000006,4.849999999999941,1.9500000000000015,8,2,10,5,16,2,13,5,3,0,17,7,Lc,0.3556250000000002,0.4800000000000003,0.37307692307692325,0.3900000000000002
8,8,16,1,8,0.3900000000000002,2,3,113,47,82,109,3.019999999999988,0.9000000000000006,0.4300000000000002,0.12999999999999998,7,2,1,1,14,3,1,1,2,0,12,7,Lc,0.2157142857142858,0.3000000000000001,0.4300000000000002,0.12999999999999998
8,9,17,1,4,0.5900000000000003,2,3,107,105,19,39,3.229999999999988,1.2000000000000008,1.5800000000000012,0.6800000000000004,4,3,6,3,5,3,6,3,2,0,15,7,Lc,0.6460000000000005,0.4000000000000002,0.2633333333333334,0.22666666666666674
8,9,18,1,8,2.4099999999999926,4,5,5,86,53,2,5.719999999999966,1.1800000000000008,0.6000000000000003,0.22000000000000006,8,3,1,2,15,3,1,2,2,0,19,7,Lc,0.38133333333333314,0.39333333333333353,0.6000000000000003,0.11000000000000001
8,10,19,1,4,0.5100000000000002,2,4,30,10,108,105,4.119999999999967,0.3900000000000002,0.9100000000000006,1.6000000000000012,4,1,4,4,12,1,6,5,2,0,15,7,Lc,0.3433333333333335,0.3900000000000002,0.1516666666666667,0.3200000000000001
8,10,20,1,5,0.8000000000000005,6,8,44,22,118,95,2.730000000000002,1.420000000000001,0.45000000000000023,1.0000000000000007,9,2,2,2,12,4,3,2,5,0,16,7,Lc,0.2275000000000001,0.35500000000000015,0.15000000000000002,0.5000000000000002
8,11,21,1,5,0.45000000000000023,2,3,93,114,41,59,3.2899999999999836,0.3900000000000002,0.3100000000000001,0.7700000000000005,7,1,2,2,15,1,2,2,5,0,14,7,Lc,0.2193333333333334,0.3900000000000002,0.155,0.38500000000000023
8,11,22,1,9,0.5300000000000002,2,6,29,33,9,35,3.629999999999978,0.7000000000000004,1.0600000000000007,0.8800000000000006,6,1,3,2,12,1,5,4,4,0.5,36,7,Lc,0.30250000000000016,0.7000000000000004,0.21200000000000008,0.22000000000000006
8,12,23,1,1,0.8500000000000005,2,4,78,84,40,37,2.2500000000000018,0.2700000000000001,0.6300000000000003,0.20000000000000004,4,1,2,1,8,1,3,1,3,0,16,7,Lc,0.2812500000000001,0.2700000000000001,0.21000000000000005,0.20000000000000004
8,12,24,1,3,0.36000000000000015,2,3,14,113,117,116,2.6999999999999944,1.0000000000000007,1.8500000000000014,1.0900000000000007,6,3,3,2,12,3,3,3,5,0.5,18,7,Lc,0.2250000000000001,0.3333333333333335,0.616666666666667,0.3633333333333335
8,13,25,1,1,1.450000000000001,2,6,82,68,107,74,2.940000000000002,0.8500000000000005,2.0300000000000007,0.7800000000000005,4,1,4,2,8,1,5,2,3,0,12,7,Lc,0.36750000000000016,0.8500000000000005,0.4060000000000002,0.3900000000000002
8,13,26,1,2,0.48000000000000026,3,5,94,41,17,120,3.069999999999989,0.9000000000000006,3.099999999999978,0.37000000000000016,7,3,5,3,12,3,7,3,4,0,16,7,Lc,0.25583333333333347,0.3000000000000001,0.4428571428571431,0.12333333333333334
8,14,27,1,7,0.8100000000000005,3,5,106,80,38,24,3.229999999999993,0.9000000000000006,0.3200000000000001,0.22000000000000006,7,2,2,1,16,3,2,1,6,0,16,7,Lc,0.20187500000000008,0.3000000000000001,0.16,0.22000000000000006
8,14,28,1,10,0.2800000000000001,2,5,93,91,120,53,1.540000000000001,1.0100000000000007,1.0700000000000007,1.0600000000000007,4,2,3,3,8,3,4,3,3,0,12,7,Lc,0.19250000000000006,0.3366666666666668,0.26750000000000007,0.3533333333333335
8,15,29,1,3,0.9200000000000006,3,4,33,112,54,59,5.939999999999938,0.8300000000000005,0.7400000000000004,3.749999999999964,9,3,3,7,13,3,6,7,5,0,15,7,Lc,0.4569230769230772,0.2766666666666668,0.12333333333333335,0.535714285714286
8,15,30,1,1,0.4400000000000002,2,3,83,4,73,78,2.8299999999999934,1.390000000000001,0.7700000000000005,0.05,6,2,3,1,8,2,3,1,3,0.5,24,7,Lc,0.3537500000000002,0.6950000000000004,0.25666666666666677,0.05
8,16,31,1,8,0.5800000000000003,2,3,80,10,36,110,2.0800000000000014,0.9200000000000006,1.8700000000000014,1.7500000000000013,5,2,2,2,8,3,6,5,2,0,16,7,Lc,0.2600000000000001,0.30666666666666675,0.3116666666666668,0.35000000000000014
8,16,32,1,10,0.24000000000000007,2,3,13,95,23,91,1.8400000000000012,0.6700000000000004,0.5000000000000002,0.5200000000000002,4,2,1,2,6,3,1,2,3,0,18,7,Lc,0.30666666666666687,0.2233333333333334,0.5000000000000002,0.26000000000000006
8,17,33,1,2,0.34000000000000014,2,3,17,59,49,86,2.4499999999999993,0.3900000000000002,0.36000000000000015,2.679999999999987,4,1,1,4,6,1,1,4,4,0,17,7,Lc,0.4083333333333336,0.3900000000000002,0.36000000000000015,0.6700000000000004
8,17,34,1,8,0.3900000000000002,2,4,114,1,112,68,2.0000000000000013,0.8200000000000005,0.7400000000000004,1.5200000000000011,4,2,3,2,7,2,3,3,2,0,14,7,Lc,0.28571428571428586,0.41000000000000014,0.24666666666666678,0.5066666666666669
8,18,35,1,8,0.4300000000000002,3,4,117,6,91,95,2.689999999999996,0.45000000000000023,0.9400000000000006,0.37000000000000016,6,2,3,2,8,2,3,3,2,0,14,7,Lc,0.33625000000000016,0.22500000000000012,0.31333333333333346,0.12333333333333334
8,18,36,1,5,3.6299999999999666,4,12,42,52,21,19,5.759999999999965,2.6999999999999864,0.07,0.5400000000000003,7,5,1,3,16,6,1,3,5,0,21,7,Lc,0.3600000000000002,0.45000000000000023,0.07,0.18000000000000005
8,19,37,1,9,0.6400000000000003,3,7,2,112,68,95,3.969999999999973,0.8600000000000005,0.26000000000000006,0.060000000000000005,8,3,3,1,14,3,3,1,4,0,15,7,Lc,0.2835714285714287,0.28666666666666674,0.08666666666666666,0.060000000000000005
8,19,38,1,4,5.409999999999929,8,17,37,104,49,40,13.239999999999807,0.01,0.01,0.01,18,1,1,1,33,1,1,1,2,0,16,7,Lc,0.4012121212121214,0.01,0.01,0.01
8,20,39,1,4,0.35000000000000014,2,3,101,48,22,14,1.560000000000001,1.2400000000000009,0.46000000000000024,1.380000000000001,3,2,2,4,4,2,2,4,2,0,19,7,Lc,0.39000000000000024,0.6200000000000004,0.23000000000000004,0.34500000000000014
8,20,40,1,3,1.8200000000000014,4,7,30,111,57,75,3.810000000000003,1.1100000000000008,0.8200000000000005,0.4200000000000002,7,2,3,2,11,2,3,2,5,0,14,7,Lc,0.34636363636363654,0.5550000000000003,0.27333333333333343,0.21000000000000008
8,21,41,1,3,0.5200000000000002,2,6,25,119,27,115,2.0400000000000014,2.3199999999999945,0.22000000000000006,0.25000000000000006,5,6,3,2,9,7,3,2,5,0,14,7,Lc,0.22666666666666677,0.33142857142857163,0.07333333333333333,0.12499999999999997
8,21,42,1,4,0.37000000000000016,2,3,58,20,22,105,6.289999999999918,0.15,0.05,0.02,9,2,1,1,15,2,1,1,2,0,18,7,Lc,0.4193333333333326,0.07500000000000001,0.05,0.02
9,1,1,0,7,0.6600000000000004,2,3,56,45,22,50,9.269999999999861,3.5399999999999685,2.1199999999999988,0.5600000000000003,11,4,4,2,26,11,8,3,6,0,19,7,Lc,0.3565384615384617,0.32181818181818195,0.26500000000000007,0.1866666666666667
9,1,2,0,10,0.8000000000000005,2,5,90,88,102,98,6.049999999999933,2.899999999999982,2.1399999999999983,0.6200000000000003,7,3,2,2,20,6,6,3,3,0,10,7,Lc,0.3025000000000001,0.4833333333333336,0.35666666666666685,0.2066666666666667
9,2,3,0,9,0.6000000000000003,2,3,61,65,79,97,4.52999999999996,6.829999999999899,0.8400000000000005,0.2800000000000001,6,7,2,2,9,22,3,3,4,0,13,7,Lc,0.5033333333333336,0.3104545454545456,0.2800000000000001,0.09333333333333334
9,2,4,0,8,0.16,2,2,16,43,56,111,10.979999999999814,0.6800000000000004,0.4300000000000002,0.12999999999999998,10,2,2,1,34,4,2,1,2,0,17,7,Lc,0.3229411764705884,0.17000000000000004,0.21500000000000008,0.12999999999999998
9,3,5,0,4,0.6800000000000004,2,4,105,84,47,13,5.229999999999948,2.4999999999999907,1.370000000000001,1.340000000000001,6,3,3,1,18,9,3,1,2,0,16,7,Lc,0.2905555555555557,0.2777777777777779,0.4566666666666669,1.340000000000001
9,3,6,0,3,0.47000000000000025,2,3,30,54,52,51,26.300000000001237,0.5600000000000003,0.11999999999999998,1.260000000000001,20,2,2,4,80,2,2,4,5,0.5,29,7,Lc,0.32875000000000015,0.28000000000000014,0.06,0.31500000000000017
9,4,7,0,2,0.5300000000000002,2,3,51,14,17,25,5.739999999999934,4.209999999999955,8.729999999999858,0.17,9,4,10,2,15,13,27,3,4,0,21,7,Lc,0.3826666666666669,0.323846153846154,0.3233333333333335,0.056666666666666664
9,4,8,0,6,0.6000000000000003,2,6,11,71,47,80,7.569999999999896,2.4099999999999926,2.099999999999999,0.46000000000000024,8,3,3,1,26,7,8,2,6,0,18,7,Lc,0.2911538461538463,0.3442857142857144,0.2625000000000001,0.2300000000000001
9,5,9,0,8,0.49000000000000027,3,5,111,41,40,55,5.40999999999994,2.8899999999999824,3.979999999999959,0.7800000000000005,10,5,6,1,14,9,14,1,2,0,16,7,Lc,0.3864285714285716,0.32111111111111124,0.2842857142857144,0.7800000000000005
9,5,10,0,1,0.3300000000000001,2,2,14,35,71,22,25.2600000000011,0.01,0.01,0.02,18,1,1,1,69,1,1,1,3,0,21,7,Lc,0.3660869565217393,0.01,0.01,0.02
9,6,11,0,6,1.270000000000001,3,11,51,47,41,7,9.339999999999874,1.9800000000000015,1.350000000000001,0.2900000000000001,12,3,3,2,38,6,8,2,6,0,20,7,Lc,0.2457894736842106,0.3300000000000002,0.16875000000000004,0.14500000000000002
9,6,12,0,8,1.5400000000000011,3,9,22,14,61,114,10.149999999999862,0.7200000000000004,0.36000000000000015,0.7900000000000005,11,1,2,3,34,1,2,5,2,0,18,7,Lc,0.29852941176470604,0.7200000000000004,0.18000000000000005,0.15800000000000003
9,7,13,1,1,0.5000000000000002,2,3,99,24,100,107,7.559999999999894,1.2000000000000008,1.7100000000000013,0.3900000000000002,7,2,3,2,21,3,5,2,3,0.5,18,7,Lc,0.3600000000000002,0.4000000000000002,0.34200000000000014,0.1950000000000001
9,7,14,1,10,0.6700000000000004,2,4,86,88,4,9,9.159999999999863,0.4100000000000002,2.2799999999999954,0.8800000000000006,8,2,4,2,27,2,5,2,3,0,18,7,Lc,0.3392592592592594,0.20500000000000004,0.45600000000000024,0.44000000000000017
9,8,15,1,10,0.47000000000000025,2,4,93,57,119,95,5.029999999999948,1.7200000000000013,2.6999999999999864,0.21000000000000005,7,2,4,1,17,3,7,1,3,0,12,7,Lc,0.2958823529411766,0.5733333333333337,0.3857142857142859,0.21000000000000005
9,8,16,1,1,0.48000000000000026,3,5,79,75,43,17,5.099999999999946,5.309999999999931,5.779999999999921,0.17,9,8,7,1,16,13,14,1,3,0,17,7,Lc,0.3187500000000002,0.40846153846153865,0.4128571428571431,0.17
9,9,17,1,6,0.8700000000000006,2,4,120,1,8,42,29.45000000000167,11.089999999999808,0.01,0.03,20,17,1,1,67,32,1,1,6,0,19,7,Lc,0.43955223880597033,0.34656250000000016,0.01,0.03
9,9,18,1,3,1.0600000000000007,2,5,31,107,27,108,6.42999999999993,1.290000000000001,0.7000000000000004,0.35000000000000014,10,3,2,1,30,5,3,1,5,0,14,7,Lc,0.2143333333333334,0.2580000000000001,0.2333333333333334,0.35000000000000014
9,10,19,1,8,0.5000000000000002,2,3,83,77,66,73,7.509999999999895,0.7700000000000005,2.3099999999999947,0.5700000000000003,9,2,3,2,29,2,3,2,2,0.5,22,7,Lc,0.2589655172413794,0.38500000000000023,0.7700000000000005,0.2850000000000001
9,10,20,1,7,3.2599999999999745,6,13,43,55,42,45,8.449999999999909,1.0000000000000007,4.229999999999954,0.4200000000000002,10,2,5,1,25,3,14,1,6,0.5,34,7,Lc,0.3380000000000002,0.3333333333333335,0.30214285714285727,0.4200000000000002
9,11,21,1,3,0.10999999999999999,2,2,14,111,33,90,27.24000000000144,0.02,0.01,0.02,20,1,1,1,68,1,1,1,5,0,16,7,Lc,0.4005882352941177,0.02,0.01,0.02
9,11,22,1,6,0.6400000000000003,2,3,1,69,62,63,33.01000000000213,0.01,0.01,0.02,19,1,1,1,79,1,1,1,6,0.5,30,7,Lc,0.4178481012658229,0.01,0.01,0.02
9,12,23,1,3,0.47000000000000025,2,4,16,14,110,36,7.149999999999903,15.639999999999711,0.26000000000000006,0.01,9,13,1,1,22,52,1,1,5,0,19,7,Lc,0.3250000000000001,0.3007692307692309,0.26000000000000006,0.01
9,12,24,1,2,0.5700000000000003,2,6,100,103,48,97,6.219999999999924,2.1699999999999977,0.6000000000000003,0.3900000000000002,6,3,2,1,16,6,2,1,4,0.5,17,7,Lc,0.3887500000000002,0.3616666666666668,0.3000000000000001,0.3900000000000002
9,13,25,1,9,0.5100000000000002,2,5,8,45,46,10,10.839999999999824,0.3100000000000001,0.5400000000000003,0.6100000000000003,11,1,4,2,29,1,6,2,4,0,22,7,Lc,0.37379310344827604,0.3100000000000001,0.09000000000000001,0.3050000000000001
9,13,26,1,4,0.34000000000000014,2,3,78,81,79,29,7.6499999999998884,1.2100000000000009,2.869999999999983,0.48000000000000026,9,4,5,1,14,4,10,2,2,0.5,23,7,Lc,0.5464285714285717,0.3025000000000001,0.2870000000000001,0.24000000000000007
9,14,27,1,1,1.1300000000000008,2,8,41,79,46,77,4.149999999999981,4.589999999999947,0.21000000000000005,1.1400000000000008,7,5,1,2,19,12,1,5,3,0,16,7,Lc,0.21842105263157902,0.3825000000000002,0.21000000000000005,0.22800000000000006
9,14,28,1,7,0.7800000000000005,2,5,23,32,16,96,4.649999999999962,5.789999999999921,0.35000000000000014,2.4199999999999924,6,6,1,4,13,21,1,7,6,0,20,7,Lc,0.3576923076923079,0.27571428571428586,0.35000000000000014,0.34571428571428586
9,15,29,1,1,1.360000000000001,3,6,12,79,31,75,10.759999999999845,0.7200000000000004,0.5200000000000002,0.37000000000000016,12,2,2,2,25,2,3,2,3,0,17,7,Lc,0.4304000000000002,0.36000000000000015,0.17333333333333337,0.18500000000000005
9,15,30,1,8,1.6800000000000013,3,4,13,93,40,86,8.879999999999892,0.6200000000000003,1.1900000000000008,0.5500000000000003,10,1,2,2,19,1,4,3,2,0,17,7,Lc,0.4673684210526318,0.6200000000000003,0.2975000000000001,0.18333333333333338
9,16,31,1,10,1.1500000000000008,2,5,86,101,87,29,6.009999999999941,6.359999999999909,0.23000000000000007,3.379999999999972,7,8,1,5,15,14,1,6,3,0,13,7,Lc,0.4006666666666669,0.4542857142857145,0.23000000000000007,0.5633333333333337
9,16,32,1,8,0.9000000000000006,2,6,118,75,19,70,6.859999999999918,2.4699999999999913,4.809999999999942,1.380000000000001,11,4,7,2,25,6,12,3,2,0,15,7,Lc,0.2744000000000001,0.4116666666666669,0.40083333333333354,0.46000000000000024
9,17,33,1,6,1.7600000000000013,4,10,6,3,4,102,4.389999999999989,5.5299999999999265,4.179999999999955,0.6600000000000004,7,6,4,2,20,11,9,2,6,0.5,38,7,Lc,0.21950000000000008,0.502727272727273,0.4644444444444447,0.3300000000000001
9,17,34,1,5,0.47000000000000025,2,3,95,44,17,49,10.58999999999983,1.7900000000000014,0.13999999999999999,0.18000000000000002,8,4,1,1,30,6,1,1,5,0,18,7,Lc,0.35300000000000015,0.29833333333333345,0.13999999999999999,0.18000000000000002
9,18,35,1,4,0.7200000000000004,2,4,108,104,73,43,7.859999999999893,1.8000000000000014,0.6100000000000003,0.20000000000000004,8,3,1,1,21,6,1,1,2,0,12,7,Lc,0.3742857142857145,0.3000000000000001,0.6100000000000003,0.20000000000000004
9,18,36,1,7,0.6200000000000003,3,5,36,88,67,17,4.999999999999951,4.89999999999994,1.360000000000001,0.2900000000000001,8,6,3,2,18,14,3,2,6,0,18,7,Lc,0.2777777777777779,0.35000000000000014,0.4533333333333336,0.145
9,19,37,1,9,1.310000000000001,2,7,43,65,38,4,6.2099999999999405,2.3199999999999945,0.7900000000000005,1.1600000000000008,6,3,2,2,25,9,2,6,4,0,20,7,Lc,0.2484000000000001,0.2577777777777779,0.3950000000000002,0.19333333333333338
9,19,38,1,1,0.7100000000000004,2,5,59,80,78,57,9.929999999999849,0.4000000000000002,0.45000000000000023,1.5500000000000012,11,2,2,4,32,3,2,10,3,0,14,7,Lc,0.31031250000000016,0.13333333333333336,0.22500000000000003,0.15500000000000005
10,1,1,0,10,0.4100000000000002,2,5,96,93,72,91,1.1800000000000006,0.6600000000000004,0.8900000000000006,0.09999999999999999,3,2,2,1,6,2,3,1,3,0.5,22,7,Lc,0.19666666666666674,0.3300000000000001,0.2966666666666668,0.09999999999999999
10,1,2,0,4,0.4200000000000002,2,3,99,60,107,55,2.310000000000002,0.2800000000000001,0.4400000000000002,0.36000000000000015,5,1,2,2,13,1,2,2,2,0,12,7,Lc,0.17769230769230773,0.2800000000000001,0.22000000000000008,0.18000000000000002
10,2,3,0,3,0.3000000000000001,2,3,35,27,30,112,1.610000000000001,0.24000000000000007,0.9000000000000006,0.13999999999999999,4,1,4,1,10,1,5,1,5,0.5,32,7,Lc,0.16100000000000006,0.24000000000000007,0.18000000000000008,0.13999999999999999
10,2,4,0,7,0.3300000000000001,2,3,16,19,14,78,1.530000000000001,0.7800000000000005,5.479999999999928,0.01,5,2,10,1,10,5,18,1,6,0.5,39,7,Lc,0.15300000000000005,0.15600000000000003,0.3044444444444446,0.01
10,3,5,0,3,0.35000000000000014,2,3,31,30,32,25,1.660000000000001,0.6500000000000004,0.19000000000000003,2.3699999999999934,5,3,1,6,8,3,1,6,5,1,60,7,Lc,0.20750000000000007,0.21666666666666676,0.19000000000000003,0.39500000000000024
10,3,6,0,2,0.3000000000000001,2,4,52,50,37,44,1.590000000000001,0.26000000000000006,1.280000000000001,0.2800000000000001,4,1,3,3,9,1,4,4,4,0,18,7,Lc,0.17666666666666672,0.26000000000000006,0.3200000000000002,0.06999999999999999
10,4,7,0,9,0.25000000000000006,2,3,66,46,72,83,1.7800000000000011,0.9100000000000006,0.48000000000000026,0.07,5,2,3,1,6,2,3,1,4,0,16,7,Lc,0.2966666666666668,0.4550000000000002,0.16000000000000006,0.07
10,4,8,0,3,0.38000000000000017,2,5,26,57,27,110,1.3700000000000008,1.1900000000000008,0.8400000000000005,0.22000000000000006,4,3,3,2,7,5,3,3,5,0,16,7,Lc,0.19571428571428579,0.23800000000000007,0.28000000000000014,0.07333333333333333
10,5,9,0,3,0.8100000000000005,3,4,29,27,83,74,2.850000000000001,0.09,0.11999999999999998,0.11999999999999998,8,1,1,1,9,1,1,1,5,0,16,7,Lc,0.3166666666666668,0.09,0.11999999999999998,0.11999999999999998
10,5,10,0,4,0.37000000000000016,2,4,43,101,56,105,1.8200000000000012,0.7600000000000005,0.2900000000000001,0.05,4,2,1,1,6,6,1,1,2,0,13,7,Lc,0.3033333333333335,0.12666666666666668,0.2900000000000001,0.05
10,6,11,0,9,0.37000000000000016,2,5,64,45,66,90,1.0600000000000005,3.7199999999999647,0.13999999999999999,0.01,4,6,2,1,7,11,2,1,4,0,16,7,Lc,0.15142857142857147,0.33818181818181836,0.06999999999999999,0.01
10,6,12,0,2,0.45000000000000023,4,5,84,82,54,53,1.8800000000000012,0.5600000000000003,0.36000000000000015,1.2100000000000009,7,2,3,4,9,2,3,4,4,0,14,7,Lc,0.20888888888888896,0.2800000000000001,0.12,0.30250000000000016
10,7,13,1,9,0.37000000000000016,3,4,68,73,62,6,2.7399999999999936,0.2700000000000001,3.519999999999969,0.01,6,1,8,1,16,1,9,1,4,0,17,7,Lc,0.17125000000000004,0.2700000000000001,0.3911111111111113,0.01
10,7,14,1,3,0.38000000000000017,2,4,35,25,32,52,1.8100000000000012,0.3200000000000001,0.13999999999999999,0.10999999999999999,4,2,1,1,9,2,1,1,5,0.5,34,7,Lc,0.20111111111111116,0.16000000000000003,0.13999999999999999,0.10999999999999999
10,8,15,1,5,1.370000000000001,3,5,57,14,83,45,3.380000000000002,0.3000000000000001,0.24000000000000007,0.10999999999999999,5,2,1,2,16,4,1,2,5,0,18,7,Lc,0.21125000000000008,0.075,0.24000000000000007,0.055
10,8,16,1,4,0.4000000000000002,2,5,7,95,62,98,6.959999999999905,0.01,0.10999999999999999,0.01,12,1,2,1,23,1,2,1,2,0,15,7,Lc,0.3026086956521741,0.01,0.05500000000000001,0.01
10,9,17,1,7,0.38000000000000017,3,4,21,19,34,15,1.9300000000000013,0.6300000000000003,0.34000000000000014,0.4300000000000002,5,2,1,2,11,3,1,3,6,0.5,41,7,Lc,0.1754545454545455,0.21000000000000005,0.34000000000000014,0.1433333333333334
10,9,18,1,5,0.38000000000000017,2,3,40,88,45,48,1.640000000000001,0.5500000000000003,0.09999999999999999,0.12999999999999998,4,2,1,1,5,2,1,1,5,0.5,33,7,Lc,0.3280000000000001,0.2750000000000001,0.09999999999999999,0.12999999999999998
10,10,19,1,3,0.4300000000000002,3,7,104,69,14,108,2.1800000000000015,0.3000000000000001,0.22000000000000006,0.3200000000000001,5,2,2,1,11,2,3,1,5,0,14,7,Lc,0.19818181818181826,0.15000000000000002,0.07333333333333333,0.3200000000000001
10,10,20,1,5,0.4000000000000002,2,3,37,11,39,58,1.710000000000001,0.6800000000000004,0.35000000000000014,0.17,4,2,2,1,9,3,3,1,5,0,20,7,Lc,0.19000000000000006,0.22666666666666674,0.11666666666666667,0.17
10,11,21,1,4,0.21000000000000005,2,3,99,24,75,70,1.1100000000000005,1.320000000000001,0.22000000000000006,0.19000000000000003,4,3,1,1,5,7,1,1,2,0,15,7,Lc,0.2220000000000001,0.18857142857142864,0.22000000000000006,0.19000000000000003
10,11,22,1,3,0.3300000000000001,2,3,36,92,26,93,1.740000000000001,0.4000000000000002,0.16,1.7600000000000013,4,2,1,3,13,3,1,3,5,0,16,7,Lc,0.13384615384615386,0.13333333333333336,0.16,0.5866666666666671
10,12,23,1,1,0.2800000000000001,2,3,76,43,23,79,1.0900000000000005,1.1300000000000008,0.4300000000000002,0.08,4,2,1,1,5,4,1,1,3,0,17,7,Lc,0.21800000000000008,0.2825000000000001,0.4300000000000002,0.08
10,12,24,1,3,0.4000000000000002,2,4,60,32,56,27,1.750000000000001,0.37000000000000016,0.24000000000000007,0.09,4,1,1,1,11,1,1,1,5,0,18,7,Lc,0.15909090909090914,0.37000000000000016,0.24000000000000007,0.09
10,13,25,1,3,0.24000000000000007,2,3,25,23,83,26,1.4400000000000008,0.37000000000000016,0.24000000000000007,0.37000000000000016,4,1,1,2,7,1,1,2,5,0,19,7,Lc,0.2057142857142858,0.37000000000000016,0.24000000000000007,0.18500000000000003
10,13,26,1,6,0.37000000000000016,6,6,5,95,71,8,1.4100000000000008,0.8700000000000006,0.3100000000000001,0.09,8,2,1,1,9,4,1,1,6,0,19,7,Lc,0.1566666666666667,0.21750000000000005,0.3100000000000001,0.09
10,14,27,1,8,0.5900000000000003,2,6,41,44,21,22,2.1000000000000014,1.440000000000001,0.01,0.10999999999999999,6,5,1,1,12,5,1,1,2,0,22,7,Lc,0.17500000000000004,0.28800000000000014,0.01,0.10999999999999999
10,14,28,1,1,0.34000000000000014,2,3,84,101,80,98,1.540000000000001,0.7400000000000004,0.26000000000000006,0.34000000000000014,5,4,3,2,8,4,3,2,3,0,10,7,Lc,0.19250000000000006,0.18500000000000005,0.08666666666666667,0.17000000000000004
10,15,29,1,6,0.35000000000000014,3,4,11,64,45,37,1.1900000000000006,3.2999999999999736,0.05,0.5000000000000002,5,3,1,2,6,4,1,2,6,0,20,7,Lc,0.1983333333333334,0.8250000000000005,0.05,0.2500000000000001
10,15,30,1,8,0.24000000000000007,2,4,109,93,86,57,1.9300000000000013,1.5200000000000011,0.11999999999999998,0.03,5,2,1,1,11,3,1,1,2,0,12,7,Lc,0.1754545454545455,0.5066666666666669,0.11999999999999998,0.03
10,16,31,1,1,3.3899999999999717,4,9,73,101,38,79,4.559999999999972,0.35000000000000014,0.3900000000000002,0.02,6,2,1,1,12,2,1,1,3,0,13,7,Lc,0.3800000000000002,0.17500000000000002,0.3900000000000002,0.02
10,16,32,1,6,0.49000000000000027,2,5,51,89,10,29,2.1500000000000017,0.26000000000000006,0.13999999999999999,0.18000000000000002,4,1,1,1,8,2,1,1,6,0,18,7,Lc,0.2687500000000001,0.13,0.13999999999999999,0.18000000000000002
10,17,33,1,7,0.21000000000000005,2,4,13,94,36,29,1.0300000000000005,1.1200000000000008,0.5400000000000003,0.45000000000000023,3,2,2,3,5,3,3,4,6,0,19,7,Lc,0.2060000000000001,0.3733333333333335,0.18000000000000008,0.11250000000000002
10,17,34,1,9,0.47000000000000025,7,7,61,72,79,3,1.670000000000001,0.3200000000000001,1.0400000000000007,0.7800000000000005,9,1,2,2,14,1,3,2,4,0,17,7,Lc,0.11928571428571431,0.3200000000000001,0.3466666666666668,0.39000000000000024
10,18,35,1,7,0.25000000000000006,2,3,14,110,29,25,1.730000000000001,2.6599999999999873,0.10999999999999999,5.289999999999932,4,7,1,8,7,12,1,12,6,0,18,7,Lc,0.24714285714285722,0.22166666666666676,0.10999999999999999,0.4408333333333336
10,18,36,1,6,4.4999999999999485,9,20,9,7,75,108,4.509999999999948,1.8500000000000014,4.659999999999945,0.01,10,3,7,1,21,5,11,1,6,0,17,7,Lc,0.21476190476190485,0.37000000000000016,0.42363636363636387,0.01
10,19,37,1,8,0.3200000000000001,2,3,13,118,14,41,1.4500000000000008,0.24000000000000007,0.15,0.5800000000000003,4,2,1,2,6,3,1,3,2,0,19,7,Lc,0.24166666666666675,0.07999999999999999,0.15,0.19333333333333338
10,19,38,1,9,0.2800000000000001,2,3,68,35,30,107,2.3400000000000003,0.11999999999999998,0.15,0.02,4,1,1,1,19,1,1,1,4,0,16,7,Lc,0.12315789473684212,0.11999999999999998,0.15,0.02
10,20,39,1,1,0.48000000000000026,3,5,97,74,20,23,1.7900000000000011,0.20000000000000004,0.15,0.3300000000000001,6,1,1,3,12,1,1,4,3,0,17,7,Lc,0.1491666666666667,0.20000000000000004,0.15,0.08249999999999999
10,20,40,1,10,0.49000000000000027,5,6,7,63,32,89,9.65999999999985,0.01,0.01,0.07,20,1,1,1,38,1,1,1,3,0,18,7,Lc,0.2542105263157896,0.01,0.01,0.07
10,21,41,1,8,0.3000000000000001,2,3,109,27,120,87,1.3200000000000007,2.7299999999999858,0.01,0.01,5,7,1,1,7,8,1,1,2,0,12,7,Lc,0.18857142857142864,0.34125000000000016,0.01,0.01
10,21,42,1,1,0.3300000000000001,2,3,41,37,76,38,2.3600000000000008,0.19000000000000003,0.09999999999999999,0.12999999999999998,7,1,1,1,9,1,1,1,3,0.5,33,7,Lc,0.26222222222222236,0.19000000000000003,0.09999999999999999,0.12999999999999998
10,22,43,1,1,0.21000000000000005,2,2,2,47,117,74,6.149999999999918,0.35000000000000014,0.01,0.02,10,2,1,1,23,2,1,1,3,0,16,7,Lc,0.2673913043478262,0.17500000000000007,0.01,0.02
10,22,44,1,4,0.18000000000000002,2,3,105,15,94,85,0.5200000000000001,1.1400000000000008,0.22000000000000006,0.10999999999999999,4,3,2,1,5,3,2,1,2,0,14,7,Lc,0.10400000000000002,0.38000000000000017,0.10999999999999999,0.10999999999999999
11,1,1,0,9,1.320000000000001,2,10,65,80,100,30,8.619999999999889,8.879999999999855,0.37000000000000016,0.6100000000000003,11,10,2,1,32,34,2,1,4,0,14,6,Lc,0.2693750000000001,0.2611764705882354,0.18500000000000005,0.6100000000000003
11,1,2,0,5,1.300000000000001,3,6,24,38,45,118,10.379999999999852,0.8800000000000006,4.329999999999952,0.25000000000000006,15,2,7,1,31,5,14,2,5,0,18,6,Lc,0.3348387096774195,0.17600000000000005,0.30928571428571444,0.125
11,2,3,0,2,0.20000000000000004,2,3,1,58,6,26,44.919999999999675,0.01,0.5100000000000002,0.01,20,1,3,1,115,1,4,1,4,0,21,6,Lc,0.39060869565217404,0.01,0.12750000000000003,0.01
11,2,4,0,1,0.9800000000000006,6,8,38,105,15,102,18.169999999999888,0.09999999999999999,0.2900000000000001,0.11999999999999998,18,1,2,1,61,1,2,1,3,0,15,6,Lc,0.2978688524590165,0.09999999999999999,0.14500000000000002,0.11999999999999998
11,3,5,0,9,0.5200000000000002,2,5,39,63,47,41,16.489999999999704,0.5000000000000002,1.9400000000000015,0.35000000000000014,15,2,5,1,41,2,14,1,4,0.5,34,6,Lc,0.4021951219512197,0.25000000000000006,0.1385714285714286,0.35000000000000014
11,3,6,0,10,0.6800000000000004,2,8,100,24,103,29,3.869999999999976,4.069999999999958,3.089999999999978,2.07,3,4,3,3,9,9,9,4,3,0,15,6,Lc,0.42999999999999733,0.45222222222222247,0.3433333333333335,0.5175000000000003
11,4,7,0,10,0.4300000000000002,2,3,14,90,99,95,12.099999999999795,0.9400000000000006,1.7100000000000013,0.18000000000000002,11,2,3,1,36,4,4,1,3,0,14,6,Lc,0.33611111111111125,0.23500000000000007,0.4275000000000002,0.18000000000000002
11,4,8,0,8,0.45000000000000023,2,4,120,69,71,113,4.689999999999954,6.969999999999896,0.8600000000000005,2.159999999999998,8,8,1,6,14,19,1,8,2,0,12,6,Lc,0.3350000000000002,0.3668421052631581,0.8600000000000005,0.27000000000000013
11,5,9,0,2,0.8500000000000005,2,7,50,52,120,60,11.91999999999981,1.420000000000001,2.7499999999999853,0.5400000000000003,13,3,4,3,31,5,6,3,4,0.5,26,6,Lc,0.3845161290322583,0.28400000000000014,0.45833333333333354,0.18000000000000005
11,5,10,0,7,1.270000000000001,3,6,20,68,105,99,4.909999999999967,4.89999999999994,2.899999999999982,0.5100000000000002,7,4,4,2,12,10,5,2,6,0,14,6,Lc,0.4091666666666669,0.49000000000000027,0.5800000000000003,0.25500000000000006
11,6,11,1,10,0.4000000000000002,2,4,88,92,87,86,4.399999999999959,5.649999999999924,11.679999999999795,0.07,8,7,14,1,18,13,31,1,3,1,36,6,Lc,0.24444444444444455,0.43461538461538485,0.3767741935483873,0.07
11,6,12,1,1,0.4000000000000002,2,3,114,76,82,71,12.079999999999796,0.8600000000000005,0.24000000000000007,2.899999999999982,12,2,1,6,31,6,1,16,3,0,12,6,Lc,0.3896774193548389,0.14333333333333334,0.24000000000000007,0.18125000000000005
11,7,13,1,10,0.4300000000000002,2,3,94,109,33,113,9.619999999999848,5.199999999999934,2.0899999999999994,1.9200000000000015,10,10,6,6,27,13,9,10,3,0,12,6,Lc,0.35629629629629644,0.4000000000000002,0.2322222222222223,0.19200000000000006
11,7,14,1,5,0.34000000000000014,2,6,39,43,84,80,7.889999999999883,0.8300000000000005,4.90999999999994,1.7400000000000013,11,3,8,4,22,3,20,5,5,0,16,6,Lc,0.3586363636363638,0.2766666666666668,0.2455000000000001,0.3480000000000002
11,8,15,1,5,2.5499999999999896,4,9,62,44,120,63,12.329999999999826,2.679999999999987,1.0200000000000007,0.5000000000000002,14,4,2,2,30,13,2,2,5,0,15,6,Lc,0.4110000000000002,0.20615384615384622,0.5100000000000002,0.25000000000000006
11,8,16,1,10,1.1800000000000008,2,7,92,86,88,30,7.109999999999919,3.3999999999999715,2.2699999999999956,13.409999999999759,11,6,7,12,26,10,10,31,3,0.5,23,6,Lc,0.2734615384615386,0.3400000000000002,0.2270000000000001,0.4325806451612906
11,9,17,1,4,0.11999999999999998,2,2,13,20,38,73,41.6600000000003,0.01,0.02,0.01,20,1,1,1,117,1,1,1,2,0,20,6,Lc,0.3560683760683762,0.01,0.02,0.01
11,9,18,1,9,0.6400000000000003,2,5,70,65,120,112,6.179999999999927,4.619999999999946,6.949999999999896,0.6400000000000003,7,5,6,2,19,9,27,2,4,0,12,6,Lc,0.325263157894737,0.5133333333333336,0.2574074074074075,0.3200000000000001
11,10,19,1,7,0.6200000000000003,2,3,43,23,15,16,14.289999999999754,1.430000000000001,2.099999999999999,14.27999999999974,18,6,3,13,53,10,6,31,6,0.5,41,6,Lc,0.26962264150943405,0.14300000000000004,0.35000000000000014,0.46064516129032224
11,10,20,1,3,0.26000000000000006,2,3,32,30,28,84,5.569999999999931,5.309999999999931,0.47000000000000025,6.719999999999901,8,7,2,6,17,10,2,11,5,0.5,33,6,Lc,0.32764705882352957,0.5310000000000002,0.23500000000000004,0.6109090909090913
11,11,21,1,4,0.5400000000000003,2,4,101,98,14,104,8.249999999999881,0.9200000000000006,0.5500000000000003,1.410000000000001,10,2,1,3,39,5,1,4,2,0.5,18,6,Lc,0.21153846153846162,0.18400000000000005,0.5500000000000003,0.35250000000000015
11,11,22,1,8,0.12999999999999998,2,3,113,119,116,117,1.8000000000000012,3.4899999999999696,4.609999999999946,6.519999999999905,5,7,8,11,8,10,14,21,2,1,24,6,Lc,0.22500000000000012,0.34900000000000014,0.32928571428571446,0.31047619047619063
11,12,23,1,9,0.6100000000000003,2,3,72,42,61,99,15.31999999999973,0.8300000000000005,0.2800000000000001,0.8400000000000005,16,1,2,4,47,1,2,4,4,0,15,6,Lc,0.3259574468085108,0.8300000000000005,0.14000000000000004,0.21000000000000005
11,12,24,1,3,0.7100000000000004,10,12,34,18,15,17,8.45999999999988,5.089999999999936,5.5799999999999255,0.3900000000000002,20,8,8,3,33,18,17,3,5,0.5,41,6,Lc,0.25636363636363646,0.2827777777777779,0.3282352941176472,0.13000000000000003
11,13,25,1,10,0.5900000000000003,3,5,88,85,19,18,16.729999999999723,0.10999999999999999,1.9300000000000015,0.16,18,1,6,1,58,1,8,1,3,0,18,6,Lc,0.2884482758620691,0.10999999999999999,0.24125000000000008,0.16
11,13,26,1,1,0.5300000000000002,2,3,1,71,6,103,24.780000000000992,0.03,0.08,0.02,18,1,1,1,63,1,1,1,3,0,18,6,Lc,0.39333333333333353,0.03,0.08,0.02
11,14,27,1,4,0.19000000000000003,2,2,18,21,98,64,24.35000000000098,0.03,0.01,0.8300000000000005,20,1,1,3,70,1,1,3,2,0,18,6,Lc,0.34785714285714303,0.03,0.01,0.2766666666666668
11,14,28,1,8,0.5600000000000003,2,4,115,4,118,3,5.299999999999944,4.999999999999938,18.62000000000011,2.010000000000001,6,5,14,4,14,22,51,6,2,0,16,6,Lc,0.3785714285714288,0.22727272727272735,0.36509803921568645,0.3350000000000002
11,15,29,1,3,0.7200000000000004,2,8,72,27,28,1,11.089999999999824,0.48000000000000026,0.20000000000000004,2.020000000000001,7,2,1,5,43,2,1,9,5,0,20,6,Lc,0.25790697674418617,0.24000000000000005,0.20000000000000004,0.2244444444444445
11,15,30,1,4,1.400000000000001,3,5,101,17,50,20,14.069999999999775,0.8900000000000006,2.0799999999999996,2.349999999999994,17,2,2,6,44,3,3,9,2,0,18,6,Lc,0.31977272727272743,0.2966666666666668,0.6933333333333338,0.26111111111111124
11,16,31,1,6,0.9500000000000006,2,4,99,63,61,68,9.909999999999854,0.8000000000000005,0.8900000000000006,1.320000000000001,11,2,2,4,22,4,4,5,6,0.5,26,6,Lc,0.4504545454545457,0.20000000000000007,0.22250000000000006,0.26400000000000007
11,16,32,1,8,1.0200000000000007,8,9,22,115,117,119,12.139999999999809,0.19000000000000003,1.270000000000001,1.9200000000000015,20,1,2,4,42,1,2,5,2,0.5,18,6,Lc,0.28904761904761916,0.19000000000000003,0.6350000000000003,0.3840000000000002
11,17,33,1,6,0.48000000000000026,2,3,4,42,45,1,14.27999999999975,1.7400000000000013,1.7200000000000013,0.26000000000000006,16,7,4,2,35,8,5,2,6,0,22,6,Lc,0.4080000000000002,0.21750000000000008,0.34400000000000014,0.13
11,17,34,1,1,0.4000000000000002,2,3,75,69,74,32,7.66999999999989,5.119999999999935,0.49000000000000027,1.400000000000001,11,7,2,3,23,20,2,5,3,0,15,6,Lc,0.3334782608695654,0.25600000000000006,0.24500000000000005,0.28000000000000014
11,18,35,1,1,2.149999999999998,2,6,71,65,66,67,8.809999999999901,3.2699999999999743,1.0400000000000007,1.2300000000000009,12,4,2,4,25,7,3,6,3,1,48,6,Lc,0.35240000000000016,0.4671428571428574,0.3466666666666668,0.20500000000000007
11,18,36,1,4,0.38000000000000017,2,3,9,2,97,101,11.43999999999981,1.9700000000000015,0.3200000000000001,0.18000000000000002,13,4,2,1,39,5,3,1,2,0,16,6,Lc,0.29333333333333345,0.3940000000000002,0.10666666666666667,0.18000000000000002
11,19,37,1,6,0.6800000000000004,2,3,72,64,10,25,9.259999999999861,0.5300000000000002,2.9799999999999804,1.2300000000000009,14,1,8,3,30,1,11,4,6,0,19,6,Lc,0.3086666666666668,0.5300000000000002,0.27090909090909104,0.30750000000000016
11,19,38,1,1,0.5100000000000002,2,5,76,82,84,101,19.390000000000153,4.249999999999954,1.0100000000000007,6.239999999999911,20,9,4,10,62,11,4,17,3,0.5,20,6,Lc,0.3127419354838711,0.3863636363636366,0.2525000000000001,0.36705882352941194
12,1,1,0,1,0.5300000000000002,2,5,73,119,79,81,2.789999999999996,0.2800000000000001,0.15,0.24000000000000007,4,1,1,2,12,1,1,2,3,0.5,20,7,Lc,0.23250000000000007,0.2800000000000001,0.15,0.12
12,1,2,0,10,0.3200000000000001,2,4,108,96,27,23,2.1500000000000017,0.3900000000000002,0.7300000000000004,0.18000000000000002,6,2,1,1,9,3,1,1,3,0,16,7,Lc,0.23888888888888898,0.13,0.7300000000000004,0.18000000000000002
12,2,3,0,6,0.36000000000000015,2,3,77,104,2,9,2.9699999999999886,0.6300000000000003,0.3300000000000001,0.18000000000000002,6,3,2,2,11,3,2,2,6,0,17,7,Lc,0.27000000000000013,0.21000000000000008,0.16500000000000004,0.09
12,2,4,0,7,0.2900000000000001,2,4,19,14,17,89,1.2500000000000007,3.5499999999999683,0.10999999999999999,0.01,3,6,2,1,5,7,2,1,6,0.5,39,7,Lc,0.2500000000000001,0.5071428571428575,0.05499999999999999,0.01
12,3,5,0,10,0.20000000000000004,2,2,18,21,58,88,11.749999999999797,0.01,0.01,0.01,16,1,1,1,32,1,1,1,3,0,19,7,Lc,0.3671874999999999,0.01,0.01,0.01
12,3,6,0,9,0.6600000000000004,2,6,70,66,76,9,2.2800000000000016,0.21000000000000005,0.45000000000000023,0.8300000000000005,4,1,1,1,13,1,2,2,4,0,17,7,Lc,0.17538461538461542,0.21000000000000005,0.2250000000000001,0.4150000000000002
12,4,7,0,9,0.3000000000000001,2,3,69,95,67,119,2.8799999999999892,0.7700000000000005,0.07,0.45000000000000023,7,2,2,1,11,2,2,1,4,0,13,7,Lc,0.26181818181818195,0.3850000000000002,0.035,0.45000000000000023
12,4,8,0,2,0.49000000000000027,2,5,58,74,49,59,2.2000000000000015,2.209999999999997,0.04,0.05,5,4,1,2,9,5,1,2,4,0.5,27,7,Lc,0.24444444444444455,0.4420000000000003,0.04,0.025
12,5,9,0,3,0.3200000000000001,2,3,27,112,116,78,1.2900000000000007,1.1800000000000008,0.35000000000000014,0.34000000000000014,4,2,2,1,5,5,2,1,5,0,12,7,Lc,0.2580000000000001,0.23600000000000007,0.17500000000000002,0.34000000000000014
12,5,10,0,10,0.3900000000000002,2,4,88,92,87,2,1.2300000000000006,2.4599999999999915,0.7900000000000005,0.02,4,5,4,1,7,7,4,1,3,0.5,24,7,Lc,0.17571428571428577,0.35142857142857165,0.19750000000000006,0.02
12,6,11,0,8,0.4300000000000002,2,3,111,15,109,21,1.9900000000000013,0.9200000000000006,0.19000000000000003,0.20000000000000004,4,2,1,1,7,4,1,1,2,0,16,7,Lc,0.2842857142857144,0.23000000000000007,0.19000000000000003,0.20000000000000004
12,6,12,0,5,0.2900000000000001,2,3,44,38,45,78,2.1800000000000015,0.26000000000000006,0.5600000000000003,0.5500000000000003,5,2,2,3,9,2,2,4,5,0.5,33,7,Lc,0.2422222222222223,0.13000000000000003,0.28000000000000014,0.1375
12,7,13,1,3,1.6600000000000013,4,8,30,90,7,26,2.600000000000002,1.5400000000000011,0.5300000000000002,0.20000000000000004,6,3,2,2,10,4,4,2,5,0,19,7,Lc,0.2600000000000001,0.3850000000000002,0.1325,0.1
12,7,14,1,9,0.49000000000000027,2,4,62,39,65,14,1.8700000000000012,2.199999999999997,0.4100000000000002,0.15,4,5,1,2,8,8,1,2,4,0,19,7,Lc,0.23375000000000007,0.2750000000000001,0.4100000000000002,0.075
