Subject,Round,Phase,afterbreak,Schema,Schema_RT,Schema_OB,Schema_AS,Cho_1,Cho_2,Cho_3,Cho_4,RT_1,RT_2,RT_3,RT_4,OB_1,OB_2,OB_3,OB_4,AS_1,AS_2,AS_3,AS_4,schema_payoff,AC,performance,breakR,type,dwellmean_1,dwellmean_2,dwellmean_3,dwellmean_4
1,1,1,0,2,0.5400000000000003,2,4,74,75,77,65,4.999999999999949,3.3399999999999728,3.6899999999999653,3.759999999999964,6,11,6,5,8,13,6,6,3,0.5,13,7,H,0.6250000000000004,0.25692307692307703,0.6150000000000003,0.626666666666667
1,1,2,0,10,0.5800000000000003,2,5,49,24,13,33,12.129999999999798,0.3300000000000001,0.04,0.3100000000000001,12,3,1,1,29,3,1,1,6,0,21,7,H,0.4182758620689657,0.11000000000000001,0.04,0.3100000000000001
1,2,3,0,8,0.48000000000000026,2,3,112,31,18,17,3.549999999999979,1.9800000000000015,1.280000000000001,1.2400000000000009,5,3,2,3,9,4,2,3,2,0,19,7,H,0.39444444444444465,0.49500000000000033,0.6400000000000003,0.41333333333333355
1,2,4,0,4,0.48000000000000026,2,3,50,103,97,55,7.449999999999896,3.1599999999999766,0.49000000000000027,0.18000000000000002,10,5,3,2,20,6,3,2,2,0,12,7,H,0.37250000000000016,0.526666666666667,0.16333333333333339,0.09000000000000001
1,3,5,0,7,0.49000000000000027,2,4,108,55,93,86,6.259999999999922,1.5900000000000012,0.16,1.5400000000000011,9,4,1,5,14,4,1,5,3,0,12,7,H,0.4471428571428574,0.3975000000000002,0.16,0.30800000000000016
1,3,6,0,9,0.6100000000000003,2,4,119,112,22,18,6.8599999999999115,1.460000000000001,0.5300000000000002,0.34000000000000014,8,2,2,1,17,3,2,1,4,0,16,7,H,0.4035294117647061,0.4866666666666669,0.2650000000000001,0.34000000000000014
1,4,7,0,2,1.2100000000000009,2,7,74,79,108,35,6.329999999999936,0.8700000000000006,0.8300000000000005,1.7600000000000013,8,3,2,3,18,4,7,3,3,0,13,7,H,0.35166666666666685,0.21750000000000008,0.11857142857142859,0.586666666666667
1,4,8,0,7,0.6500000000000004,2,3,86,117,113,94,8.599999999999875,2.4099999999999926,3.049999999999979,0.02,10,7,5,1,20,8,5,1,3,0,10,7,H,0.4300000000000002,0.30125000000000013,0.6100000000000004,0.02
1,5,9,0,7,0.8700000000000006,2,5,96,86,27,110,7.519999999999904,0.3100000000000001,0.2800000000000001,1.2200000000000009,10,1,1,4,28,1,1,7,3,0,13,7,H,0.2685714285714287,0.3100000000000001,0.2800000000000001,0.17428571428571435
1,5,10,0,5,0.5300000000000002,2,3,3,4,50,59,5.709999999999934,52.00999999999822,0.060000000000000005,0.02,7,19,1,1,10,102,1,1,6,0,20,7,H,0.5709999999999984,0.5099019607843135,0.060000000000000005,0.02
1,6,11,0,9,0.48000000000000026,3,4,62,69,89,12,3.9999999999999694,2.479999999999991,1.1300000000000008,0.4400000000000002,6,3,2,1,12,7,4,1,4,0,17,7,H,0.3333333333333335,0.3542857142857144,0.2825000000000001,0.4400000000000002
1,6,12,0,3,0.5000000000000002,2,5,44,43,13,77,5.249999999999943,3.2499999999999747,0.38000000000000017,0.47000000000000025,10,7,2,1,21,11,3,1,5,0,19,7,H,0.2500000000000001,0.2954545454545456,0.12666666666666665,0.47000000000000025
1,7,13,1,6,0.16,2,2,13,57,31,90,11.389999999999805,0.13999999999999999,0.13999999999999999,1.1400000000000008,11,1,1,4,23,1,1,4,4,0,18,7,H,0.4952173913043481,0.13999999999999999,0.13999999999999999,0.28500000000000014
1,7,14,1,4,1.1700000000000008,2,7,4,62,99,101,5.399999999999955,2.0500000000000003,1.6100000000000012,3.1299999999999772,7,2,3,5,16,2,3,14,2,0,14,7,H,0.3375000000000002,1.0250000000000008,0.536666666666667,0.22357142857142864
1,8,15,1,7,1.1700000000000008,9,10,76,69,6,64,3.150000000000002,3.049999999999979,0.5800000000000003,0.5900000000000003,11,3,1,2,12,11,1,3,3,0,17,7,H,0.2625000000000001,0.2772727272727274,0.5800000000000003,0.19666666666666674
1,8,16,1,4,0.34000000000000014,2,3,101,52,59,15,2.699999999999994,3.279999999999974,1.1300000000000008,0.46000000000000024,4,4,2,1,6,9,3,1,2,0,16,7,H,0.4500000000000003,0.3644444444444446,0.3766666666666668,0.46000000000000024
1,9,17,1,6,0.3300000000000001,1,2,119,115,92,94,6.559999999999912,0.8900000000000006,1.8000000000000014,2.7299999999999858,8,4,2,6,15,5,3,7,4,0,10,7,H,0.4373333333333336,0.17800000000000005,0.6000000000000003,0.3900000000000002
1,9,18,1,3,0.9900000000000007,7,9,12,105,71,25,8.609999999999882,0.4000000000000002,0.26000000000000006,0.26000000000000006,16,2,1,2,31,4,1,2,5,0,17,7,H,0.2777419354838711,0.1,0.26000000000000006,0.12999999999999998
1,10,19,1,14,0.8000000000000005,2,5,45,114,53,21,5.069999999999954,1.8900000000000015,2.819999999999984,2.489999999999991,5,2,6,4,16,5,8,5,5,0,17,7,H,0.31687500000000013,0.37800000000000017,0.3525000000000002,0.4980000000000003
1,10,20,1,4,1.0100000000000007,2,6,74,69,29,66,7.3699999999999095,1.6600000000000013,0.4300000000000002,0.23000000000000007,9,2,2,1,33,8,2,1,2,0,16,7,H,0.2233333333333334,0.20750000000000007,0.21500000000000008,0.23000000000000007
1,11,21,1,12,1.7100000000000013,11,12,21,23,17,15,8.809999999999894,0.4100000000000002,0.46000000000000024,0.48000000000000026,19,1,1,1,30,1,1,1,3,1,72,7,H,0.2936666666666668,0.4100000000000002,0.46000000000000024,0.48000000000000026
1,11,22,1,4,0.9300000000000006,4,6,103,39,79,99,5.349999999999951,2.619999999999988,0.5900000000000003,0.2700000000000001,13,5,2,2,18,8,2,2,2,0,12,7,H,0.29722222222222233,0.3275000000000001,0.2950000000000001,0.13499999999999998
1,12,23,1,4,0.9400000000000006,5,7,71,97,14,67,9.429999999999865,0.8400000000000005,1.7700000000000014,1.8400000000000014,17,2,2,4,28,2,3,5,2,0,16,7,H,0.33678571428571447,0.4200000000000002,0.5900000000000003,0.3680000000000002
1,12,24,1,12,0.5500000000000003,2,3,55,37,92,49,8.469999999999876,2.0500000000000003,1.260000000000001,0.05,8,3,3,1,25,5,3,1,3,0,16,7,H,0.33880000000000016,0.4100000000000002,0.42000000000000026,0.05
1,13,25,1,6,0.8700000000000006,6,6,51,37,2,100,9.509999999999861,0.7800000000000005,10.02999999999983,4.119999999999957,15,5,11,8,36,5,22,9,4,0,17,7,H,0.26416666666666677,0.15600000000000003,0.45590909090909115,0.457777777777778
1,13,26,1,13,0.7100000000000004,2,4,71,17,61,63,5.559999999999942,0.34000000000000014,0.6600000000000004,8.549999999999862,8,1,2,11,20,1,3,25,6,0.5,18,7,H,0.27800000000000014,0.34000000000000014,0.22000000000000008,0.3420000000000002
1,14,27,1,14,0.5100000000000002,2,4,48,85,92,118,7.129999999999903,1.7900000000000014,3.049999999999979,0.11999999999999998,10,2,2,1,22,3,2,1,5,0,13,7,H,0.32409090909090926,0.596666666666667,1.5249999999999904,0.11999999999999998
1,14,28,1,3,0.5000000000000002,2,5,28,65,30,29,5.839999999999931,2.07,0.46000000000000024,2.819999999999984,7,4,2,6,10,5,2,7,5,0.5,19,7,H,0.5839999999999976,0.4140000000000002,0.23000000000000004,0.402857142857143
1,15,29,1,15,1.0300000000000007,3,4,119,65,45,88,7.589999999999906,0.4000000000000002,11.529999999999799,0.6400000000000003,11,1,12,2,21,1,42,2,4,0,14,7,H,0.3614285714285716,0.4000000000000002,0.2745238095238096,0.3200000000000002
1,15,30,1,4,0.3200000000000001,2,3,99,27,2,98,4.049999999999964,2.9199999999999817,4.729999999999944,1.470000000000001,7,4,10,4,10,6,14,4,2,0,15,7,H,0.4050000000000002,0.4866666666666669,0.337857142857143,0.36750000000000016
1,16,31,1,14,1.1600000000000008,3,5,93,67,119,111,4.709999999999969,2.629999999999988,0.48000000000000026,0.2900000000000001,6,3,2,2,17,9,3,3,5,0,11,7,H,0.27705882352941186,0.2922222222222223,0.16000000000000003,0.09666666666666666
1,16,32,1,3,0.9000000000000006,2,4,35,32,5,36,4.089999999999977,1.6200000000000012,1.0600000000000007,2.959999999999981,5,2,3,7,10,3,3,9,5,0.5,21,7,H,0.4090000000000002,0.5400000000000003,0.3533333333333335,0.32888888888888906
1,17,33,1,14,0.5200000000000002,2,3,48,19,15,46,5.139999999999946,3.0199999999999796,1.9300000000000015,1.400000000000001,8,3,2,4,20,5,2,4,5,0,22,7,H,0.2570000000000001,0.6040000000000004,0.9650000000000006,0.3500000000000002
1,17,34,1,15,0.9100000000000006,4,7,32,62,25,67,5.709999999999942,2.0400000000000005,0.36000000000000015,0.4000000000000002,10,6,1,3,19,9,1,3,4,0,18,7,H,0.3005263157894738,0.22666666666666674,0.36000000000000015,0.13333333333333336
1,18,35,1,13,1.1200000000000008,2,4,66,70,20,67,7.719999999999905,1.460000000000001,0.36000000000000015,1.7200000000000013,10,2,1,6,23,2,1,9,6,0.5,18,7,H,0.33565217391304364,0.7300000000000004,0.36000000000000015,0.19111111111111118
1,18,36,1,3,0.45000000000000023,2,3,30,31,52,10,2.8199999999999936,3.8599999999999617,2.239999999999996,8.389999999999866,4,7,4,9,9,15,7,14,5,0,20,7,H,0.31333333333333346,0.2573333333333334,0.3200000000000001,0.5992857142857138
1,19,37,1,10,1.320000000000001,2,6,2,5,1,7,3.0600000000000023,10.04999999999983,6.479999999999906,0.01,4,11,12,1,8,16,14,1,6,1,72,7,H,0.3825000000000002,0.6281249999999999,0.4628571428571431,0.01
1,19,38,1,15,0.6600000000000004,3,4,109,62,18,63,4.919999999999954,2.159999999999998,0.3000000000000001,0.36000000000000015,7,4,1,1,11,7,1,1,4,0,16,7,H,0.4472727272727274,0.30857142857142866,0.3000000000000001,0.36000000000000015
1,20,39,1,3,0.46000000000000024,2,4,15,31,18,32,7.2099999999999005,0.15,1.1600000000000008,0.7800000000000005,12,1,4,2,21,1,4,2,5,0,22,7,H,0.3433333333333335,0.15,0.29000000000000015,0.3900000000000002
1,20,40,1,15,0.5400000000000003,3,7,72,112,9,7,8.209999999999882,0.8700000000000006,0.5100000000000002,0.17,13,4,2,1,28,4,2,1,4,0,18,7,H,0.29321428571428587,0.21750000000000008,0.2550000000000001,0.17
2,1,1,0,8,0.6100000000000003,2,6,116,109,20,25,2.4600000000000017,0.6900000000000004,1.480000000000001,0.8100000000000005,4,3,6,2,11,5,9,3,2,0,15,7,H,0.22363636363636372,0.138,0.1644444444444445,0.2700000000000001
2,1,2,0,4,0.13999999999999999,2,2,3,81,60,106,103.21000000001582,0.02,0.01,0.01,20,1,1,1,332,1,1,1,2,0,15,7,H,0.3108734939759037,0.02,0.01,0.01
2,2,3,0,7,0.4300000000000002,3,5,92,17,120,35,3.209999999999985,1.1000000000000008,0.2700000000000001,0.09999999999999999,7,2,2,1,13,7,2,1,3,0,16,7,H,0.24692307692307702,0.1571428571428572,0.135,0.09999999999999999
2,2,4,0,3,0.7600000000000005,3,9,41,83,5,43,3.199999999999992,0.49000000000000027,1.2400000000000009,0.2800000000000001,6,1,3,2,21,1,7,2,5,0,19,7,H,0.1523809523809524,0.49000000000000027,0.17714285714285716,0.14
2,3,5,0,7,0.6300000000000003,2,4,88,58,26,16,2.939999999999995,1.1800000000000008,0.5100000000000002,0.6200000000000003,6,3,1,2,13,7,1,2,3,0,18,7,H,0.22615384615384623,0.1685714285714286,0.5100000000000002,0.3100000000000001
2,3,6,0,9,0.49000000000000027,2,3,70,9,117,1,3.0499999999999896,0.5400000000000003,0.3900000000000002,0.4100000000000002,6,2,2,2,15,2,2,3,4,0,18,7,H,0.2033333333333334,0.27000000000000013,0.19500000000000003,0.1366666666666667
2,4,7,0,4,0.9000000000000006,2,6,100,21,105,101,2.110000000000001,2.3599999999999937,0.6300000000000003,1.9000000000000015,4,6,2,4,8,9,5,5,2,0.5,12,7,H,0.2637500000000001,0.2622222222222223,0.12600000000000003,0.38000000000000017
2,4,8,0,5,0.8100000000000005,2,4,12,59,120,113,2.7700000000000022,1.1900000000000008,1.0100000000000007,0.23000000000000007,5,3,2,1,12,3,7,1,6,0,14,7,H,0.23083333333333342,0.39666666666666683,0.14428571428571432,0.23000000000000007
2,5,9,0,3,0.4100000000000002,2,3,39,54,110,51,2.370000000000002,0.48000000000000026,1.310000000000001,0.09999999999999999,4,1,2,2,11,1,8,2,5,0,15,7,H,0.21545454545454554,0.48000000000000026,0.16375000000000003,0.05
2,5,10,0,9,0.3000000000000001,3,3,61,66,99,72,2.459999999999998,0.7600000000000005,1.0600000000000007,0.25000000000000006,8,2,2,2,12,3,4,2,4,0.5,14,7,H,0.20500000000000007,0.2533333333333334,0.26500000000000007,0.12499999999999997
2,6,11,0,3,0.7800000000000005,3,7,3,41,51,117,7.789999999999895,0.09,0.04,0.01,14,1,2,1,24,1,2,1,5,0,17,7,H,0.3245833333333335,0.09,0.02,0.01
2,6,12,0,7,0.4000000000000002,2,4,85,67,107,102,3.519999999999978,0.5100000000000002,0.4000000000000002,0.17,6,1,2,1,18,1,3,1,3,0,11,7,H,0.19555555555555562,0.5100000000000002,0.13333333333333336,0.17
2,7,13,1,3,0.6500000000000004,6,8,26,31,85,69,3.149999999999991,0.6300000000000003,1.0200000000000007,0.2900000000000001,8,2,2,1,20,2,3,1,5,0,17,7,H,0.15750000000000003,0.3150000000000001,0.34000000000000014,0.2900000000000001
2,7,14,1,13,0.47000000000000025,2,4,44,47,60,55,5.6099999999999355,0.16,0.7600000000000005,1.9200000000000015,8,1,3,4,25,1,4,7,6,0,18,7,H,0.22440000000000007,0.16,0.19000000000000006,0.2742857142857144
2,8,15,1,4,0.5200000000000002,4,5,102,91,44,87,3.289999999999985,0.47000000000000025,0.6200000000000003,0.25000000000000006,8,1,2,2,13,1,2,2,2,0,13,7,H,0.2530769230769232,0.47000000000000025,0.3100000000000001,0.125
2,8,16,1,11,0.4300000000000002,2,3,114,110,109,3,1.740000000000001,0.9000000000000006,0.5700000000000003,1.5400000000000011,4,2,2,5,7,3,3,7,2,0.5,12,7,H,0.24857142857142867,0.3000000000000001,0.19000000000000006,0.2200000000000001
2,9,17,1,13,0.13999999999999999,2,2,14,41,96,18,9.029999999999855,0.01,0.01,0.01,14,1,1,1,35,1,1,1,6,0,20,7,H,0.2580000000000001,0.01,0.01,0.01
2,9,18,1,10,0.46000000000000024,3,5,97,9,79,98,3.769999999999974,0.37000000000000016,0.18000000000000002,1.2400000000000009,9,2,1,2,18,2,1,4,6,0,13,7,H,0.20944444444444452,0.18500000000000003,0.18000000000000002,0.3100000000000001
2,10,19,1,10,0.9200000000000006,2,7,6,66,11,4,2.730000000000002,2.99999999999998,0.6700000000000004,18.49000000000009,4,6,2,15,12,13,2,64,6,0.5,22,7,H,0.2275000000000001,0.23076923076923084,0.3350000000000002,0.2889062499999999
2,10,20,1,7,1.2400000000000009,3,6,60,49,57,84,3.9199999999999875,0.7700000000000005,0.25000000000000006,0.07,7,4,2,2,19,4,2,2,3,0.5,15,7,H,0.20631578947368429,0.19250000000000006,0.125,0.035
2,11,21,1,4,0.17,2,4,16,101,27,102,8.069999999999876,0.01,0.01,0.01,12,1,1,1,29,1,1,1,2,0,15,7,H,0.27827586206896565,0.01,0.01,0.01
2,11,22,1,12,0.18000000000000002,2,2,2,39,5,88,4.549999999999951,0.11999999999999998,0.16,0.7400000000000004,10,1,1,3,11,1,1,4,3,0,20,7,H,0.41363636363636386,0.11999999999999998,0.16,0.18500000000000005
2,12,23,1,11,0.47000000000000025,3,5,109,116,77,21,3.2299999999999853,0.6700000000000004,0.37000000000000016,1.1200000000000008,5,2,1,3,17,4,1,3,2,0,13,7,H,0.19000000000000006,0.1675,0.37000000000000016,0.3733333333333335
2,12,24,1,10,0.8600000000000005,4,7,10,12,98,92,2.700000000000002,3.1199999999999775,0.13999999999999999,0.08,7,6,1,1,14,11,1,1,6,0,17,7,H,0.19285714285714292,0.28363636363636374,0.13999999999999999,0.08
2,13,25,1,6,0.47000000000000025,2,3,25,92,93,57,3.579999999999978,0.6500000000000004,0.19000000000000003,0.04,5,2,1,1,15,4,1,1,4,0,15,7,H,0.23866666666666675,0.1625,0.19000000000000003,0.04
2,13,26,1,14,0.7300000000000004,6,8,4,11,1,7,2.4600000000000017,0.7300000000000004,5.079999999999936,4.019999999999959,8,2,10,10,14,4,20,16,5,1,72,7,H,0.17571428571428577,0.18250000000000005,0.2540000000000001,0.2512500000000001
2,14,27,1,7,0.4300000000000002,2,5,73,74,82,46,2.779999999999994,0.9300000000000006,0.6600000000000004,0.5200000000000002,5,4,3,4,14,6,6,5,3,0.5,14,7,H,0.19857142857142862,0.15500000000000003,0.11000000000000001,0.10400000000000002
2,14,28,1,3,0.18000000000000002,2,2,14,120,87,112,76.14000000000196,0.01,0.01,0.8100000000000005,20,1,1,3,231,1,1,3,5,0,13,7,H,0.32961038961038974,0.01,0.01,0.27000000000000013
2,15,29,1,13,0.9400000000000006,2,9,24,45,42,21,2.1600000000000015,1.7000000000000013,0.9500000000000006,0.17,4,3,3,2,12,7,9,2,6,0,22,7,H,0.18000000000000005,0.24285714285714294,0.10555555555555557,0.08499999999999999
2,15,30,1,10,0.8200000000000005,6,8,9,29,1,6,2.490000000000002,0.8400000000000005,1.5400000000000011,0.5400000000000003,8,2,4,2,14,3,7,2,6,0.5,23,7,H,0.1778571428571429,0.28000000000000014,0.22000000000000008,0.27000000000000013
2,16,31,1,11,0.45000000000000023,7,7,43,120,88,15,7.409999999999896,0.01,0.03,0.03,16,1,1,1,28,1,1,1,2,0,16,7,H,0.2646428571428573,0.01,0.03,0.03
2,16,32,1,4,1.0600000000000007,2,10,11,106,6,100,3.3799999999999955,0.25000000000000006,0.38000000000000017,0.22000000000000006,7,1,2,1,22,1,2,1,2,0,16,7,H,0.15363636363636368,0.25000000000000006,0.19000000000000003,0.22000000000000006
2,17,33,1,3,0.5800000000000003,2,4,94,25,36,35,4.609999999999959,0.05,0.060000000000000005,1.0200000000000007,8,1,1,5,19,1,1,7,5,0.5,18,7,H,0.2426315789473685,0.05,0.060000000000000005,0.14571428571428574
2,17,34,1,14,0.38000000000000017,2,3,17,42,20,44,3.019999999999988,0.5300000000000002,0.2700000000000001,0.12999999999999998,6,2,1,1,15,2,2,1,5,0,22,7,H,0.2013333333333334,0.26500000000000007,0.13500000000000004,0.12999999999999998
2,18,35,1,10,0.7300000000000004,2,5,68,11,115,70,4.149999999999972,1.1100000000000008,0.08,0.5400000000000003,6,3,1,1,15,3,1,1,6,0,16,7,H,0.2766666666666668,0.37000000000000016,0.08,0.5400000000000003
2,18,36,1,3,0.3200000000000001,2,5,27,30,23,31,2.2400000000000015,3.7399999999999642,1.8300000000000014,0.2800000000000001,5,7,7,3,10,9,8,3,5,0.5,21,7,H,0.2240000000000001,0.4155555555555558,0.2287500000000001,0.09333333333333335
2,19,37,1,7,1.0800000000000007,9,11,80,18,75,69,2.540000000000002,1.430000000000001,0.3200000000000001,0.4300000000000002,12,2,2,2,18,3,2,2,3,0,16,7,H,0.14111111111111116,0.47666666666666696,0.16,0.21500000000000005
2,19,38,1,4,0.2800000000000001,6,6,103,4,91,8,5.709999999999929,1.450000000000001,0.03,0.25000000000000006,12,5,1,1,25,9,1,1,2,0,17,7,H,0.2284000000000001,0.16111111111111115,0.03,0.25000000000000006
2,20,39,1,3,0.4400000000000002,2,3,81,27,82,35,2.699999999999996,0.36000000000000015,0.7500000000000004,0.35000000000000014,6,1,3,3,8,1,4,5,5,0,16,7,H,0.3375000000000002,0.36000000000000015,0.18750000000000003,0.06999999999999999
2,20,40,1,12,0.5600000000000003,4,5,22,116,38,94,3.08999999999999,0.8300000000000005,0.13999999999999999,0.2900000000000001,6,2,1,3,15,4,1,3,3,0,16,7,H,0.20600000000000007,0.20750000000000007,0.13999999999999999,0.09666666666666666
3,1,1,0,2,0.25000000000000006,2,3,78,79,73,54,7.299999999999894,3.1199999999999775,0.060000000000000005,3.039999999999979,11,5,1,4,12,5,1,6,3,0.5,13,7,H,0.6083333333333337,0.6240000000000002,0.060000000000000005,0.5066666666666669
3,1,2,0,9,0.18000000000000002,2,3,69,67,25,23,2.3299999999999983,6.249999999999911,1.270000000000001,2.3699999999999934,4,9,3,8,7,13,3,11,4,0,19,7,H,0.332857142857143,0.48076923076923106,0.42333333333333356,0.2154545454545455
3,2,3,0,1,0.49000000000000027,2,4,34,62,29,25,4.019999999999969,2.8399999999999834,0.3900000000000002,0.36000000000000015,7,3,1,1,10,3,1,1,5,0.5,19,7,H,0.4020000000000002,0.9466666666666673,0.3900000000000002,0.36000000000000015
3,2,4,0,6,0.2700000000000001,2,3,55,53,50,82,5.409999999999935,3.379999999999972,1.8400000000000014,0.23000000000000007,12,5,6,2,21,6,6,3,4,0.5,15,7,H,0.25761904761904775,0.5633333333333337,0.3066666666666668,0.07666666666666666
3,3,5,0,3,0.2800000000000001,3,6,64,44,48,24,2.7599999999999913,3.509999999999969,0.7300000000000004,2.0500000000000003,5,4,3,4,9,5,5,5,5,0,20,7,H,0.30666666666666687,0.7020000000000004,0.14600000000000005,0.4100000000000002
3,3,6,0,5,0.3100000000000001,2,3,9,1,36,76,6.009999999999923,26.36000000000132,0.25000000000000006,0.01,9,17,1,1,15,45,1,1,6,0,20,7,H,0.4006666666666669,0.5857777777777776,0.25000000000000006,0.01
3,4,7,0,1,0.2900000000000001,2,3,34,26,11,29,3.629999999999973,2.6099999999999883,2.5499999999999896,4.819999999999942,6,5,3,7,12,7,3,8,5,0.5,21,7,H,0.30250000000000016,0.37285714285714305,0.8499999999999996,0.6025000000000004
3,4,8,0,3,0.38000000000000017,4,5,46,64,13,82,6.319999999999918,0.5300000000000002,2.07,0.10999999999999999,11,2,4,1,17,2,4,1,5,0,18,7,H,0.3717647058823531,0.2650000000000001,0.5175000000000003,0.10999999999999999
3,5,9,0,6,0.25000000000000006,3,4,55,60,59,9,1.4500000000000008,2.669999999999987,0.3100000000000001,3.039999999999979,5,5,1,5,7,9,1,7,4,0.5,18,7,H,0.2071428571428572,0.2966666666666668,0.3100000000000001,0.4342857142857145
3,5,10,0,7,0.18000000000000002,2,3,92,94,88,37,1.3700000000000008,2.4699999999999913,3.0199999999999796,3.93999999999996,3,4,5,5,4,4,5,5,3,0.5,14,7,H,0.3425000000000002,0.6175000000000004,0.6040000000000004,0.7879999999999997
3,6,11,0,4,0.20000000000000004,2,3,100,34,107,30,4.209999999999959,2.6399999999999877,0.6500000000000004,2.5899999999999888,7,4,2,4,8,4,2,6,2,0,14,7,H,0.5262500000000003,0.6600000000000005,0.3250000000000001,0.4316666666666669
3,6,12,0,2,0.21000000000000005,2,3,74,76,66,65,1.4400000000000008,1.310000000000001,2.4199999999999924,1.6700000000000013,5,4,8,3,6,4,8,6,3,0,14,7,H,0.24000000000000013,0.3275000000000002,0.30250000000000016,0.27833333333333343
3,7,13,1,10,0.35000000000000014,3,4,105,102,2,100,6.359999999999917,1.0500000000000007,0.17,1.2400000000000009,14,1,1,2,18,1,1,3,6,0.5,12,7,H,0.3533333333333335,1.0500000000000007,0.17,0.41333333333333355
3,7,14,1,12,0.24000000000000007,2,3,90,88,94,96,3.679999999999971,0.8300000000000005,0.6100000000000003,0.2800000000000001,8,2,2,1,9,2,3,1,3,1,36,7,H,0.4088888888888891,0.4150000000000002,0.2033333333333334,0.2800000000000001
3,8,15,1,4,0.25000000000000006,2,3,37,64,72,45,11.629999999999802,4.799999999999942,0.09,0.7200000000000004,14,6,1,2,21,9,1,2,2,0,18,7,H,0.5538095238095241,0.5333333333333337,0.09,0.36000000000000015
3,8,16,1,7,0.20000000000000004,2,3,75,76,73,26,2.789999999999989,4.279999999999953,0.7500000000000004,2.6399999999999877,9,8,6,5,12,11,6,7,3,0.5,14,7,H,0.2325000000000001,0.38909090909090926,0.12500000000000003,0.37714285714285734
3,9,17,1,14,0.26000000000000006,2,3,62,44,42,69,8.389999999999871,0.11999999999999998,0.10999999999999999,0.3300000000000001,13,1,1,1,25,1,1,1,5,0,18,7,H,0.3356000000000002,0.11999999999999998,0.10999999999999999,0.3300000000000001
3,9,18,1,6,0.19000000000000003,2,3,107,36,104,49,6.50999999999991,0.6700000000000004,0.9800000000000006,1.8800000000000014,9,2,3,5,18,2,3,7,4,0,13,7,H,0.36166666666666686,0.33500000000000013,0.32666666666666677,0.2685714285714287
3,10,19,1,12,0.23000000000000007,2,3,96,36,90,51,6.409999999999913,2.159999999999998,0.46000000000000024,0.5100000000000002,8,3,2,2,12,3,3,2,3,0,15,7,H,0.534166666666667,0.7200000000000004,0.15333333333333335,0.25500000000000006
3,10,20,1,10,0.3900000000000002,2,4,10,47,68,3,2.6299999999999963,1.260000000000001,2.5899999999999888,0.18000000000000002,5,4,6,1,9,6,7,1,6,0,21,7,H,0.2922222222222223,0.21000000000000008,0.3700000000000002,0.18000000000000002
3,11,21,1,11,0.2900000000000001,2,4,116,110,46,42,4.279999999999959,1.1300000000000008,1.0700000000000007,0.36000000000000015,9,2,3,1,15,2,3,1,2,0,14,7,H,0.28533333333333344,0.5650000000000003,0.3566666666666668,0.36000000000000015
3,11,22,1,10,0.26000000000000006,2,5,71,9,31,7,3.9099999999999664,2.0400000000000005,0.24000000000000007,3.5799999999999677,5,5,1,7,9,7,1,8,6,0,21,7,H,0.43444444444444413,0.29142857142857154,0.24000000000000007,0.44750000000000023
3,12,23,1,6,0.16,2,3,57,108,47,44,1.690000000000001,3.709999999999965,1.360000000000001,2.579999999999989,5,4,3,4,9,7,4,4,4,0,16,7,H,0.18777777777777785,0.5300000000000004,0.34000000000000014,0.6450000000000004
3,12,24,1,15,0.3300000000000001,2,3,118,64,61,114,4.2699999999999605,2.489999999999991,3.649999999999966,0.08,8,5,4,1,11,6,5,1,4,0,12,7,H,0.3881818181818184,0.4150000000000002,0.7299999999999969,0.08
3,13,25,1,12,0.23000000000000007,2,3,90,120,89,85,1.3600000000000008,3.2599999999999745,0.4000000000000002,4.90999999999994,4,6,2,7,5,7,2,11,3,0.5,11,7,H,0.27200000000000013,0.46571428571428597,0.20000000000000007,0.44636363636363663
3,13,26,1,7,0.22000000000000006,2,3,76,71,68,80,2.2100000000000017,1.480000000000001,0.9600000000000006,5.419999999999929,5,2,2,8,8,3,2,9,3,0,14,7,H,0.2762500000000001,0.49333333333333357,0.4800000000000002,0.602222222222222
3,14,27,1,12,0.3200000000000001,2,4,90,113,115,10,4.559999999999954,2.109999999999999,0.4400000000000002,1.440000000000001,7,3,1,3,11,6,1,4,3,0,13,7,H,0.4145454545454548,0.35166666666666685,0.4400000000000002,0.36000000000000015
3,14,28,1,4,0.45000000000000023,2,3,103,105,63,107,2.290000000000002,4.959999999999939,0.09999999999999999,1.1300000000000008,4,10,1,3,6,11,1,3,2,0.5,10,7,H,0.3816666666666668,0.45090909090909115,0.09999999999999999,0.3766666666666668
3,15,29,1,7,1.0200000000000007,6,7,3,2,114,113,4.429999999999972,2.7899999999999845,0.26000000000000006,0.2700000000000001,12,5,1,1,13,7,1,1,3,0,16,7,H,0.34076923076923094,0.3985714285714288,0.26000000000000006,0.2700000000000001
3,15,30,1,14,0.48000000000000026,2,3,47,64,95,107,2.430000000000002,3.099999999999978,0.5500000000000003,1.260000000000001,5,7,2,1,11,12,3,1,5,0,14,7,H,0.22090909090909097,0.2583333333333334,0.18333333333333338,1.260000000000001
3,16,31,1,3,0.5000000000000002,2,3,114,11,120,88,3.009999999999991,2.109999999999999,0.46000000000000024,0.5100000000000002,5,3,1,1,8,3,1,1,5,0,13,7,H,0.3762500000000002,0.7033333333333338,0.46000000000000024,0.5100000000000002
3,16,32,1,7,0.24000000000000007,2,3,81,40,45,77,4.649999999999951,2.6899999999999866,4.159999999999956,0.05,8,4,7,1,12,6,10,1,3,0,16,7,H,0.3875000000000002,0.4483333333333336,0.41600000000000026,0.05
3,17,33,1,6,0.17,2,3,51,35,115,110,1.2400000000000007,4.339999999999952,0.47000000000000025,0.3000000000000001,4,9,1,1,9,12,1,1,4,0,13,7,H,0.1377777777777778,0.36166666666666686,0.47000000000000025,0.3000000000000001
3,17,34,1,4,1.7500000000000013,3,6,90,43,103,105,5.329999999999969,4.049999999999958,0.08,0.8400000000000005,9,4,1,2,18,4,1,2,2,0,12,7,H,0.2961111111111112,1.0125,0.08,0.4200000000000002
3,18,35,1,12,0.2700000000000001,2,3,56,92,48,96,5.689999999999929,0.3300000000000001,0.6300000000000003,0.24000000000000007,9,1,2,1,14,1,3,1,3,0,15,7,H,0.40642857142857164,0.3300000000000001,0.21000000000000005,0.24000000000000007
3,18,36,1,15,0.2700000000000001,2,3,80,30,31,7,2.0400000000000014,2.289999999999995,0.34000000000000014,0.8900000000000006,3,5,1,3,4,7,1,4,4,0,19,7,H,0.5100000000000003,0.3271428571428573,0.34000000000000014,0.2225000000000001
3,19,37,1,6,0.10999999999999999,2,2,16,110,38,19,12.579999999999778,0.04,0.03,0.19000000000000003,16,1,1,1,31,1,1,1,4,0,19,7,H,0.40580645161290346,0.04,0.03,0.19000000000000003
3,19,38,1,15,0.25000000000000006,2,2,3,99,71,103,8.699999999999864,0.9700000000000006,0.05,0.04,12,2,1,1,23,2,1,1,4,0,14,7,H,0.3782608695652176,0.4850000000000003,0.05,0.04
3,20,39,1,3,0.3100000000000001,3,5,36,31,11,53,2.83999999999999,0.7800000000000005,0.6100000000000003,1.360000000000001,7,4,1,2,13,4,1,5,5,0,20,7,H,0.21846153846153854,0.1950000000000001,0.6100000000000003,0.2720000000000001
3,20,40,1,7,0.15,2,2,13,81,99,64,16.899999999999817,0.01,0.5200000000000002,0.01,17,1,3,1,36,1,3,1,3,0,15,7,H,0.4694444444444447,0.01,0.17333333333333337,0.01
4,1,1,0,9,0.2700000000000001,2,4,70,88,34,71,0.9800000000000004,4.90999999999994,0.21000000000000005,0.36000000000000015,4,7,1,4,6,12,1,5,4,0,16,7,H,0.16333333333333339,0.4091666666666669,0.21000000000000005,0.072
4,1,2,0,8,0.23000000000000007,2,3,120,56,23,53,0.9500000000000005,1.370000000000001,1.5400000000000011,1.5100000000000011,3,1,2,4,4,1,3,6,2,0,16,7,H,0.2375000000000001,1.370000000000001,0.5133333333333336,0.25166666666666676
4,2,3,0,9,0.4100000000000002,2,4,26,21,112,119,2.47,0.5600000000000003,1.5800000000000012,0.3900000000000002,5,2,1,1,11,3,1,1,4,0,15,7,H,0.2245454545454546,0.1866666666666667,1.5800000000000012,0.3900000000000002
4,2,4,0,4,0.2800000000000001,2,4,103,59,98,53,1.710000000000001,1.1900000000000008,0.36000000000000015,1.450000000000001,5,2,2,5,8,2,3,5,2,0,12,7,H,0.21375000000000008,0.5950000000000003,0.12,0.29000000000000015
4,3,5,0,6,0.25000000000000006,2,3,57,118,26,28,0.8700000000000003,1.330000000000001,1.290000000000001,1.7900000000000014,4,1,3,4,5,1,3,6,4,0,16,7,H,0.17400000000000004,1.330000000000001,0.4300000000000002,0.29833333333333345
4,3,6,0,7,0.22000000000000006,2,3,89,108,97,101,0.8700000000000004,1.6000000000000012,1.1000000000000008,1.9600000000000015,3,2,2,3,4,2,3,5,3,0.5,9,7,H,0.21750000000000008,0.8000000000000005,0.3666666666666668,0.3920000000000002
4,4,7,0,7,0.45000000000000023,2,3,92,93,72,97,2.709999999999996,0.3300000000000001,3.139999999999977,0.21000000000000005,5,1,6,2,10,1,8,2,3,0,12,7,H,0.2710000000000001,0.3300000000000001,0.3925000000000002,0.105
4,4,8,0,2,0.9100000000000006,12,13,76,73,81,55,1.510000000000001,0.5100000000000002,0.49000000000000027,0.7300000000000004,14,1,2,2,15,1,2,2,3,0.5,13,7,H,0.10066666666666668,0.5100000000000002,0.2450000000000001,0.3650000000000002
4,5,9,0,6,0.3000000000000001,2,4,53,79,58,78,3.269999999999981,0.5900000000000003,0.47000000000000025,0.3300000000000001,5,1,2,1,7,1,3,1,4,0,14,7,H,0.4671428571428574,0.5900000000000003,0.1566666666666667,0.3300000000000001
4,5,10,0,3,0.23000000000000007,2,3,43,37,44,67,0.9600000000000005,0.5800000000000003,7.24999999999989,0.6900000000000004,3,2,8,2,4,3,11,2,5,0.5,19,7,H,0.2400000000000001,0.1933333333333334,0.6590909090909095,0.3450000000000002
4,6,11,0,4,0.2900000000000001,2,3,107,103,61,104,1.0500000000000005,0.6200000000000003,1.2300000000000009,0.22000000000000006,4,1,2,1,5,1,2,1,2,0.5,10,7,H,0.21000000000000008,0.6200000000000003,0.6150000000000003,0.22000000000000006
4,6,12,0,10,0.3000000000000001,2,3,50,24,43,21,2.320000000000001,0.7500000000000004,0.7500000000000004,0.09999999999999999,5,2,1,1,10,3,1,1,6,0,21,7,H,0.23200000000000007,0.2500000000000001,0.7500000000000004,0.09999999999999999
4,7,13,1,14,0.26000000000000006,2,3,43,63,68,91,1.580000000000001,4.269999999999953,0.7800000000000005,0.8200000000000005,5,7,2,2,7,13,2,2,5,0,16,7,H,0.22571428571428578,0.3284615384615386,0.3900000000000002,0.4100000000000002
4,7,14,1,3,0.3100000000000001,2,3,30,56,14,57,1.4600000000000009,0.21000000000000005,2.249999999999996,0.04,5,1,4,1,6,1,5,1,5,0,19,7,H,0.24333333333333343,0.21000000000000005,0.45000000000000023,0.04
4,8,15,1,3,0.48000000000000026,2,3,90,35,61,63,2.4900000000000015,0.45000000000000023,0.46000000000000024,0.8700000000000006,5,2,1,2,8,2,1,2,5,0,16,7,H,0.31125000000000014,0.22500000000000003,0.46000000000000024,0.43500000000000016
4,8,16,1,14,0.34000000000000014,2,3,47,100,40,46,1.3300000000000007,2.389999999999993,1.6300000000000012,1.410000000000001,3,4,3,4,4,5,3,4,5,0.5,17,7,H,0.3325000000000002,0.47800000000000026,0.5433333333333337,0.3525000000000002
4,9,17,1,3,0.26000000000000006,2,3,34,33,67,70,2.5999999999999943,4.609999999999946,0.26000000000000006,0.26000000000000006,6,10,2,2,12,11,2,2,5,0,18,7,H,0.21666666666666673,0.41909090909090935,0.13000000000000003,0.12999999999999998
4,9,18,1,14,0.09,2,2,1,45,87,40,21.810000000000596,0.01,0.01,0.01,20,1,1,1,48,1,1,1,5,0,19,7,H,0.45437500000000003,0.01,0.01,0.01
4,10,19,1,3,0.23000000000000007,2,3,54,34,51,35,2.2300000000000013,0.22000000000000006,1.0300000000000007,0.09,5,2,2,1,7,3,3,1,5,0,18,7,H,0.3185714285714287,0.07333333333333333,0.3433333333333335,0.09
4,10,20,1,10,0.22000000000000006,2,3,7,82,69,72,0.7900000000000004,3.229999999999975,0.4100000000000002,0.7200000000000004,4,5,2,3,5,7,2,4,6,0,17,7,H,0.15800000000000006,0.4614285714285717,0.20500000000000007,0.18000000000000005
4,11,21,1,7,0.2700000000000001,2,3,77,72,83,68,0.8600000000000003,1.0200000000000007,0.2800000000000001,1.9100000000000015,4,1,1,3,5,1,1,3,3,0,14,7,H,0.17200000000000004,1.0200000000000007,0.2800000000000001,0.6366666666666672
4,11,22,1,14,0.2700000000000001,2,3,46,95,12,49,1.1900000000000006,0.8900000000000006,0.25000000000000006,0.6500000000000004,4,1,1,2,5,1,1,4,5,0,18,7,H,0.23800000000000007,0.8900000000000006,0.25000000000000006,0.16250000000000003
4,12,23,1,15,0.5600000000000003,2,5,27,64,76,72,2.0900000000000016,1.5100000000000011,2.9199999999999817,0.04,6,3,5,1,10,3,5,1,4,0,16,7,H,0.20900000000000007,0.5033333333333336,0.5840000000000004,0.04
4,12,24,1,14,0.4400000000000002,2,4,37,5,8,120,2.0100000000000016,2.06,2.159999999999998,0.7400000000000004,6,4,3,2,10,6,3,2,5,0,19,7,H,0.20100000000000007,0.34333333333333355,0.7200000000000005,0.3700000000000002
4,13,25,1,15,0.4400000000000002,2,3,63,109,112,70,1.520000000000001,1.7800000000000014,0.35000000000000014,1.0200000000000007,4,2,1,2,5,3,1,2,4,0,12,7,H,0.3040000000000001,0.5933333333333337,0.35000000000000014,0.5100000000000002
4,13,26,1,13,0.7700000000000005,2,3,13,52,84,51,14.369999999999756,0.04,0.6600000000000004,0.01,16,1,2,1,26,1,2,1,6,0,17,7,H,0.552692307692308,0.04,0.3300000000000002,0.01
4,14,27,1,15,0.2800000000000001,2,3,68,87,63,37,1.640000000000001,0.5100000000000002,0.4400000000000002,0.5700000000000003,5,1,1,2,7,1,1,2,4,0,16,7,H,0.23428571428571437,0.5100000000000002,0.4400000000000002,0.2850000000000001
4,14,28,1,4,0.7900000000000005,2,3,106,101,76,59,1.720000000000001,0.3000000000000001,2.629999999999988,0.22000000000000006,4,1,5,2,6,1,5,3,2,0,11,7,H,0.2866666666666668,0.3000000000000001,0.5260000000000004,0.07333333333333333
4,15,29,1,7,0.9400000000000006,8,10,84,24,39,41,2.7100000000000017,2.629999999999988,0.10999999999999999,0.38000000000000017,10,4,2,2,14,5,2,2,3,0,19,7,H,0.19357142857142864,0.5260000000000004,0.05500000000000001,0.19000000000000006
4,15,30,1,4,0.6300000000000003,6,6,102,2,107,88,6.859999999999912,0.7500000000000004,0.02,1.1100000000000008,11,2,1,2,21,2,1,2,2,0,13,7,H,0.3266666666666668,0.3750000000000002,0.02,0.5550000000000004
4,16,31,1,11,0.16,2,3,113,92,34,21,0.9300000000000005,3.139999999999977,0.8300000000000005,0.09,4,3,1,1,5,3,1,1,2,0,16,7,H,0.18600000000000005,1.0466666666666662,0.8300000000000005,0.09
4,16,32,1,14,1.2000000000000008,3,5,40,48,37,62,1.9600000000000013,2.8799999999999826,0.09,0.11999999999999998,6,3,1,1,11,3,1,1,5,0.5,19,7,H,0.17818181818181825,0.9599999999999975,0.09,0.11999999999999998
4,17,33,1,12,0.36000000000000015,3,4,16,21,26,32,3.3599999999999803,0.35000000000000014,0.5000000000000002,4.109999999999957,9,1,1,4,12,1,1,6,3,0,22,7,H,0.28000000000000014,0.35000000000000014,0.5000000000000002,0.6850000000000004
4,17,34,1,14,0.4400000000000002,2,3,1,10,72,11,1.690000000000001,0.7900000000000005,0.6600000000000004,0.35000000000000014,4,1,1,1,6,1,1,1,5,0.5,22,7,H,0.2816666666666668,0.7900000000000005,0.6600000000000004,0.35000000000000014
4,18,35,1,11,0.3100000000000001,3,5,120,110,117,118,1.680000000000001,0.6700000000000004,2.1699999999999977,0.04,5,3,4,1,9,3,5,1,2,1,24,7,H,0.18666666666666673,0.2233333333333334,0.4340000000000002,0.04
4,18,36,1,7,0.3900000000000002,2,3,83,74,80,39,1.4400000000000008,1.8100000000000014,0.18000000000000002,1.8600000000000014,4,5,1,3,7,6,1,4,3,0.5,14,7,H,0.20571428571428577,0.3016666666666668,0.18000000000000002,0.4650000000000003
4,19,37,1,4,0.16,2,3,33,102,31,25,1.2300000000000006,0.3300000000000001,2.579999999999989,0.10999999999999999,3,1,5,1,4,1,6,1,2,0.5,17,7,H,0.30750000000000016,0.3300000000000001,0.4300000000000002,0.10999999999999999
4,19,38,1,11,0.5300000000000002,2,5,115,82,66,77,1.600000000000001,0.8000000000000005,1.450000000000001,0.3100000000000001,4,1,3,2,9,1,4,2,2,0,12,7,H,0.1777777777777778,0.8000000000000005,0.36250000000000016,0.15500000000000003
4,20,39,1,6,0.23000000000000007,3,4,57,55,35,16,1.4900000000000009,0.9700000000000006,1.300000000000001,0.03,5,2,2,1,7,7,4,1,4,0,19,7,H,0.21285714285714294,0.1385714285714286,0.3250000000000001,0.03
4,20,40,1,10,0.13999999999999999,2,3,7,3,67,12,0.43000000000000005,27.11000000000144,0.060000000000000005,0.01,3,17,1,1,4,39,1,1,6,0.5,22,7,H,0.10750000000000003,0.6951282051282055,0.060000000000000005,0.01
4,21,41,1,3,0.3300000000000001,2,4,36,82,27,120,1.680000000000001,0.6700000000000004,0.20000000000000004,0.2700000000000001,4,2,1,2,8,2,1,3,5,0,15,7,H,0.21000000000000008,0.33500000000000013,0.20000000000000004,0.09000000000000002
4,21,42,1,15,0.2700000000000001,2,3,71,70,64,69,4.259999999999959,0.12999999999999998,0.09,1.9400000000000015,10,1,1,5,17,1,1,6,4,1,48,7,H,0.2505882352941177,0.12999999999999998,0.09,0.3233333333333335
5,1,1,0,8,1.470000000000001,2,15,114,110,24,23,9.529999999999873,0.25000000000000006,6.439999999999907,1.9400000000000015,4,1,2,2,94,1,57,18,2,0,16,6,H,0.10138297872340427,0.25000000000000006,0.11298245614035089,0.10777777777777779
5,1,2,0,4,1.1500000000000008,2,13,106,108,2,51,8.089999999999897,10.279999999999825,15.379999999999717,0.01,5,11,18,1,77,93,133,1,2,0,14,6,H,0.10506493506493508,0.11053763440860218,0.11563909774436092,0.01
5,2,3,0,8,1.7700000000000014,20,28,120,114,19,117,9.959999999999871,0.4400000000000002,1.9300000000000015,13.699999999999752,20,2,5,10,104,4,14,123,2,0.5,12,6,H,0.09576923076923079,0.11000000000000003,0.13785714285714287,0.11138211382113823
5,2,4,0,2,1.0600000000000007,2,16,79,84,51,10,9.029999999999875,0.5300000000000002,4.099999999999957,0.7700000000000005,4,2,3,2,87,5,38,9,3,0,16,6,H,0.10379310344827587,0.106,0.10789473684210528,0.08555555555555557
5,3,5,0,4,1.1600000000000008,2,14,107,106,98,103,7.51999999999991,1.5600000000000012,1.0700000000000007,0.8700000000000006,4,2,2,4,66,20,13,8,2,1,24,6,H,0.11393939393939395,0.078,0.0823076923076923,0.10875000000000001
5,3,6,0,3,1.6500000000000012,18,26,43,42,83,46,10.079999999999867,1.300000000000001,4.229999999999954,1.7100000000000013,20,8,10,8,83,17,48,17,5,0.5,18,6,H,0.12144578313253014,0.07647058823529412,0.08812500000000001,0.10058823529411766
5,4,7,0,8,1.0200000000000007,2,13,113,56,119,30,8.919999999999877,7.369999999999887,0.6500000000000004,0.9800000000000006,4,7,3,3,100,75,5,9,2,0,13,6,H,0.08920000000000002,0.09826666666666668,0.13000000000000003,0.10888888888888891
5,4,8,0,2,1.5400000000000011,20,31,82,81,73,45,8.719999999999892,0.8100000000000005,0.5700000000000003,5.279999999999932,20,3,2,12,101,5,7,45,3,0.5,14,6,H,0.08633663366336634,0.16200000000000003,0.08142857142857143,0.11733333333333336
5,5,9,0,7,0.8800000000000006,2,12,92,86,25,31,8.759999999999877,0.9600000000000006,3.3599999999999723,0.48000000000000026,7,2,3,2,75,10,31,3,3,0,16,6,H,0.11680000000000001,0.096,0.10838709677419356,0.16000000000000003
5,5,10,0,4,0.5400000000000003,2,8,98,99,97,22,5.129999999999947,3.2599999999999745,0.9700000000000006,5.779999999999921,7,3,2,11,50,35,11,40,2,0.5,12,6,H,0.10260000000000002,0.09314285714285715,0.08818181818181818,0.14450000000000002
5,6,11,1,10,1.6400000000000012,20,26,9,10,1,3,9.119999999999886,2.0300000000000007,1.270000000000001,4.599999999999946,20,3,2,6,100,22,15,36,6,1,72,6,H,0.09120000000000002,0.09227272727272728,0.08466666666666667,0.1277777777777778
5,6,12,1,7,0.5600000000000003,2,5,74,84,114,71,9.22999999999986,1.1000000000000008,1.5300000000000011,2.4199999999999924,5,2,2,4,88,11,14,21,3,0,12,6,H,0.10488636363636365,0.1,0.1092857142857143,0.11523809523809525
5,7,13,1,7,2.6399999999999877,2,28,76,113,73,64,8.709999999999903,4.519999999999948,1.0800000000000007,1.1100000000000008,4,2,2,2,86,41,11,8,3,0,12,6,H,0.10127906976744187,0.1102439024390244,0.09818181818181818,0.13875
5,7,14,1,6,0.9000000000000006,2,12,53,58,54,85,6.609999999999923,1.1000000000000008,2.5199999999999902,7.619999999999882,4,3,5,6,60,10,20,60,4,0.5,15,6,H,0.11016666666666669,0.11000000000000001,0.12600000000000003,0.12700000000000003
5,8,15,1,4,1.9400000000000015,2,24,102,98,99,92,9.529999999999884,1.450000000000001,1.320000000000001,3.3399999999999728,4,5,3,4,106,18,12,35,2,0.5,9,6,H,0.08990566037735849,0.08055555555555556,0.11000000000000001,0.09542857142857145
5,8,16,1,14,0.6200000000000003,2,8,46,42,47,115,9.119999999999864,0.9400000000000006,2.099999999999999,1.6500000000000012,4,2,4,5,76,7,19,14,5,0.5,17,6,H,0.12000000000000002,0.1342857142857143,0.1105263157894737,0.11785714285714287
5,9,17,1,12,0.8600000000000005,14,16,115,18,64,120,16.48999999999971,6.369999999999909,4.579999999999947,0.8200000000000005,18,6,10,6,159,54,45,11,3,0,14,6,H,0.10371069182389939,0.11796296296296298,0.1017777777777778,0.07454545454545454
5,9,18,1,7,1.500000000000001,2,21,84,82,53,59,10.039999999999864,0.11999999999999998,3.799999999999963,0.6600000000000004,4,1,4,2,112,1,37,8,3,0,14,6,H,0.08964285714285715,0.11999999999999998,0.10270270270270271,0.08250000000000002
5,10,19,1,3,0.9500000000000006,16,20,28,36,10,5,10.779999999999836,0.5800000000000003,12.459999999999779,6.919999999999897,18,4,10,14,131,8,109,58,5,0,22,6,H,0.08229007633587787,0.0725,0.1143119266055046,0.11931034482758623
5,10,20,1,15,0.9700000000000006,2,9,17,110,74,75,12.94999999999979,0.4100000000000002,0.6200000000000003,1.5700000000000012,6,2,2,3,111,5,5,16,4,0,14,6,H,0.11666666666666668,0.08200000000000002,0.124,0.09812500000000002
5,11,21,1,4,1.460000000000001,20,23,100,3,5,11,7.759999999999911,6.029999999999916,1.0300000000000007,0.48000000000000026,20,3,2,2,67,57,6,7,2,0.5,20,6,H,0.11582089552238808,0.10578947368421054,0.1716666666666667,0.06857142857142856
5,11,22,1,11,3.239999999999975,19,46,118,119,71,111,8.8399999999999,1.450000000000001,1.270000000000001,0.19000000000000003,20,2,5,2,91,15,11,3,2,0.5,10,6,H,0.09714285714285716,0.09666666666666668,0.11545454545454548,0.06333333333333334
5,12,23,1,3,3.659999999999966,4,33,34,30,49,90,10.849999999999858,2.429999999999992,0.3300000000000001,5.5299999999999265,6,2,2,3,87,23,3,55,5,0,17,6,H,0.12471264367816094,0.10565217391304349,0.11,0.10054545454545456
5,12,24,1,15,0.34000000000000014,2,6,1,37,39,77,27.830000000001498,0.01,0.060000000000000005,0.01,19,1,2,1,238,1,2,1,4,0,19,6,H,0.11693277310924372,0.01,0.030000000000000002,0.01
5,13,25,1,11,1.310000000000001,3,13,113,23,41,47,10.229999999999855,1.8200000000000014,0.6800000000000004,0.37000000000000016,7,2,2,2,89,12,5,5,2,0,18,6,H,0.11494382022471912,0.1516666666666667,0.13600000000000004,0.07400000000000001
5,13,26,1,4,0.7700000000000005,2,11,106,100,67,68,8.099999999999888,0.5200000000000002,0.4000000000000002,0.5900000000000003,4,2,1,2,83,3,1,3,2,0,12,6,H,0.09759036144578315,0.17333333333333337,0.4000000000000002,0.19666666666666668
5,14,27,1,4,0.4000000000000002,2,3,107,37,102,45,6.669999999999911,5.789999999999921,1.1000000000000008,0.46000000000000024,6,4,3,2,56,58,10,6,2,0,14,6,H,0.11910714285714288,0.09982758620689657,0.11000000000000001,0.07666666666666667
5,14,28,1,11,0.8900000000000006,2,13,111,22,25,33,6.599999999999923,1.9400000000000015,2.259999999999996,0.7100000000000004,4,2,3,2,69,13,26,5,2,0,18,6,H,0.0956521739130435,0.14923076923076928,0.08692307692307692,0.14200000000000002
5,15,29,1,6,0.5000000000000002,3,8,56,54,27,25,7.069999999999904,0.9300000000000006,1.2200000000000009,2.0799999999999996,5,3,5,2,75,9,17,21,4,0,18,6,H,0.09426666666666668,0.10333333333333335,0.07176470588235294,0.09904761904761906
5,15,30,1,12,1.9700000000000015,2,22,90,93,47,96,8.959999999999898,0.7100000000000004,6.4699999999999065,0.16,4,2,4,2,88,4,60,2,3,0.5,14,6,H,0.10181818181818184,0.17750000000000005,0.10783333333333335,0.07999999999999999
5,16,31,1,15,0.7000000000000004,2,11,63,67,66,69,5.12999999999995,2.2199999999999966,2.759999999999985,5.269999999999932,5,2,10,8,48,17,31,41,4,1,48,6,H,0.10687500000000001,0.13058823529411767,0.08903225806451613,0.1285365853658537
5,16,32,1,13,1.0800000000000007,4,12,19,17,90,53,8.589999999999884,1.310000000000001,5.039999999999937,1.260000000000001,6,2,2,2,69,21,48,10,6,0,19,6,H,0.12449275362318843,0.06238095238095238,0.10500000000000002,0.126
5,17,33,1,10,0.47000000000000025,4,7,66,7,4,100,7.589999999999893,0.7700000000000005,1.310000000000001,0.36000000000000015,6,2,2,2,77,5,18,4,6,0,18,6,H,0.09857142857142859,0.15400000000000003,0.07277777777777777,0.09000000000000001
5,17,34,1,6,1.1000000000000008,2,10,56,54,52,96,8.799999999999882,0.4000000000000002,0.7200000000000004,3.839999999999962,9,2,3,14,77,5,7,39,4,0.5,15,6,H,0.1142857142857143,0.08,0.10285714285714287,0.09846153846153848
5,18,35,1,14,1.5100000000000011,2,15,46,37,42,23,8.489999999999897,1.300000000000001,0.34000000000000014,21.37000000000054,4,3,2,17,71,10,3,222,5,0.5,21,6,H,0.11957746478873241,0.13000000000000003,0.11333333333333336,0.09626126126126126
5,18,36,1,3,0.5500000000000003,3,9,32,33,70,5,6.529999999999918,4.049999999999958,0.7000000000000004,1.1200000000000008,5,3,2,3,70,37,8,6,5,0,20,6,H,0.09328571428571429,0.10945945945945948,0.08750000000000001,0.18666666666666673
5,19,37,1,12,0.5300000000000002,2,10,88,91,8,1,6.709999999999913,0.5900000000000003,0.5800000000000003,0.23000000000000007,4,2,2,1,83,3,6,1,3,0,18,6,H,0.08084337349397591,0.1966666666666667,0.09666666666666666,0.23000000000000007
5,19,38,1,6,1.9400000000000015,2,21,50,51,81,45,9.199999999999891,2.1899999999999973,1.9800000000000015,0.6900000000000004,5,4,2,4,75,19,20,9,4,0,16,6,H,0.12266666666666669,0.11526315789473686,0.099,0.07666666666666666
6,1,1,0,2,0.49000000000000027,2,5,80,53,52,73,5.439999999999939,0.7100000000000004,1.7100000000000013,2.7999999999999843,4,3,7,7,39,11,12,11,3,0,14,7,H,0.1394871794871795,0.06454545454545456,0.14250000000000002,0.25454545454545463
6,1,2,0,9,0.7700000000000005,2,10,72,69,67,61,3.4899999999999864,0.9300000000000006,2.0400000000000005,0.22000000000000006,4,2,2,2,29,8,7,2,4,1,48,7,H,0.12034482758620692,0.11625000000000002,0.29142857142857154,0.10999999999999999
6,2,3,0,4,0.8000000000000005,2,8,102,101,104,51,4.039999999999975,0.8200000000000005,0.6400000000000003,1.1800000000000008,6,2,3,3,38,8,9,6,2,0.5,10,7,H,0.10631578947368422,0.10250000000000001,0.07111111111111111,0.1966666666666667
6,2,4,0,8,0.8700000000000006,2,6,114,115,116,119,4.279999999999972,0.38000000000000017,2.1799999999999975,0.5100000000000002,4,1,9,4,36,1,17,6,2,1,24,7,H,0.1188888888888889,0.38000000000000017,0.1282352941176471,0.085
6,3,5,0,7,0.6600000000000004,2,5,86,56,51,50,5.439999999999943,0.9200000000000006,0.6100000000000003,0.19000000000000003,9,5,2,1,35,8,7,1,3,0.5,15,7,H,0.15542857142857147,0.11500000000000003,0.08714285714285716,0.19000000000000003
6,3,6,0,3,0.6900000000000004,2,6,45,44,102,98,4.729999999999959,0.20000000000000004,2.149999999999998,0.34000000000000014,6,1,5,2,35,1,21,4,5,0,14,7,H,0.13514285714285718,0.20000000000000004,0.10238095238095238,0.08499999999999999
6,4,7,0,8,0.5800000000000003,2,6,115,112,60,17,4.219999999999967,1.7100000000000013,3.089999999999978,0.36000000000000015,7,5,9,1,24,11,22,1,2,0,14,7,H,0.1758333333333334,0.1554545454545455,0.1404545454545455,0.36000000000000015
6,4,8,0,7,0.5600000000000003,2,6,95,92,87,101,4.9899999999999505,1.280000000000001,1.370000000000001,0.2700000000000001,8,7,5,3,40,14,9,4,3,0.5,11,7,H,0.12475000000000003,0.09142857142857144,0.15222222222222226,0.06749999999999999
6,5,9,0,3,0.48000000000000026,2,4,47,39,102,18,4.289999999999963,1.290000000000001,1.1200000000000008,0.35000000000000014,7,2,4,2,28,10,11,4,5,0,18,7,H,0.15321428571428575,0.12900000000000003,0.10181818181818184,0.0875
6,5,10,0,5,0.4400000000000002,2,4,1,2,33,115,3.5199999999999787,9.939999999999833,0.01,0.03,5,16,1,1,19,71,1,1,6,0,19,7,H,0.1852631578947369,0.14000000000000004,0.01,0.03
6,6,11,0,8,0.6600000000000004,2,4,45,117,44,114,6.109999999999928,0.22000000000000006,0.6300000000000003,0.3900000000000002,12,2,3,2,46,2,4,5,2,0,14,7,H,0.13282608695652176,0.11,0.15750000000000006,0.07800000000000001
6,6,12,0,5,1.6100000000000012,14,20,73,57,5,108,5.499999999999963,2.0300000000000007,0.4300000000000002,1.1900000000000008,18,3,2,2,41,17,5,5,6,0,15,7,H,0.13414634146341467,0.11941176470588236,0.08600000000000001,0.2380000000000001
6,7,13,1,6,1.0900000000000007,2,9,57,102,56,98,2.7100000000000017,2.7899999999999845,0.2700000000000001,0.7200000000000004,5,5,1,2,19,14,3,5,4,0,12,7,H,0.14263157894736844,0.19928571428571434,0.09,0.14400000000000002
6,7,14,1,7,1.0200000000000007,12,15,32,25,74,34,8.089999999999895,3.649999999999966,0.01,0.05,20,4,1,2,67,33,1,2,3,0.5,18,7,H,0.12074626865671644,0.11060606060606062,0.01,0.025
6,8,15,1,11,0.7000000000000004,2,13,118,114,37,40,4.509999999999963,0.7800000000000005,2.2799999999999954,0.8600000000000005,8,3,4,3,38,9,21,6,2,0,14,7,H,0.11868421052631581,0.08666666666666667,0.10857142857142858,0.14333333333333334
6,8,16,1,6,1.5500000000000012,18,26,81,77,105,103,7.109999999999927,1.350000000000001,0.38000000000000017,0.6400000000000003,20,3,2,3,65,8,4,3,4,0,10,7,H,0.1093846153846154,0.16875000000000004,0.09500000000000001,0.2133333333333334
6,9,17,1,14,0.5300000000000002,2,4,49,119,38,54,5.629999999999936,0.5500000000000003,0.8400000000000005,1.2200000000000009,10,2,2,5,33,4,10,12,5,0,15,7,H,0.17060606060606065,0.13750000000000004,0.084,0.10166666666666667
6,9,18,1,3,0.7600000000000005,2,10,26,100,105,36,3.959999999999976,1.5400000000000011,0.15,0.35000000000000014,4,2,1,3,32,17,1,4,5,0,14,7,H,0.12375000000000003,0.09058823529411765,0.15,0.08750000000000001
6,10,19,1,7,1.0900000000000007,3,12,79,117,53,59,4.519999999999971,0.6900000000000004,1.2200000000000009,0.5200000000000002,5,3,2,2,36,4,10,3,3,0,13,7,H,0.12555555555555556,0.17250000000000004,0.12200000000000001,0.17333333333333337
6,10,20,1,10,0.4300000000000002,2,4,6,26,1,99,4.989999999999948,0.36000000000000015,5.84999999999992,0.34000000000000014,6,1,9,3,30,1,39,3,6,0,19,7,H,0.1663333333333334,0.36000000000000015,0.15000000000000002,0.11333333333333334
6,11,21,1,4,0.9200000000000006,2,7,81,100,34,12,4.41999999999997,1.300000000000001,0.20000000000000004,1.1400000000000008,4,2,1,2,32,9,1,8,2,0,16,7,H,0.13812500000000003,0.14444444444444446,0.20000000000000004,0.14250000000000002
6,11,22,1,12,0.21000000000000005,4,4,13,44,113,87,13.11999999999977,0.07,0.01,0.01,17,2,1,1,94,2,1,1,3,0,16,7,H,0.1395744680851064,0.035,0.01,0.01
6,12,23,1,6,1.1700000000000008,3,12,59,56,52,117,4.6799999999999695,1.0300000000000007,0.3000000000000001,0.38000000000000017,5,3,2,2,51,11,3,3,4,0.5,14,7,H,0.09176470588235294,0.09363636363636363,0.09999999999999999,0.12666666666666665
6,12,24,1,14,0.8000000000000005,2,10,37,92,98,99,4.369999999999968,2.759999999999985,0.9200000000000006,1.0500000000000007,5,9,2,2,30,19,5,2,5,0,12,7,H,0.1456666666666667,0.14526315789473687,0.18400000000000008,0.5250000000000004
6,13,25,1,6,0.4000000000000002,2,4,58,59,109,56,4.32999999999996,1.280000000000001,1.5100000000000011,0.17,6,2,7,2,32,17,10,2,4,0.5,14,7,H,0.13531250000000003,0.07529411764705882,0.15100000000000002,0.08499999999999999
6,13,26,1,3,0.8500000000000005,2,8,34,2,3,73,4.119999999999974,1.390000000000001,0.7800000000000005,0.2900000000000001,6,3,2,2,30,10,8,2,5,0,20,7,H,0.13733333333333336,0.13900000000000004,0.0975,0.14500000000000005
6,14,27,1,10,0.8100000000000005,2,7,11,6,8,5,4.619999999999964,0.4000000000000002,1.300000000000001,3.45999999999997,6,2,5,15,35,5,7,27,6,1,72,7,H,0.132,0.08,0.18571428571428575,0.12814814814814818
6,14,28,1,4,0.48000000000000026,2,4,14,107,106,66,13.509999999999767,0.01,0.01,0.04,18,1,1,2,97,1,1,2,2,0,14,7,H,0.13927835051546394,0.01,0.01,0.02
6,15,29,1,12,0.5700000000000003,2,7,96,30,27,54,4.05999999999997,4.329999999999952,0.22000000000000006,0.3200000000000001,6,11,2,2,31,29,2,2,3,0,17,7,H,0.13096774193548388,0.14931034482758623,0.10999999999999999,0.16000000000000003
6,15,30,1,13,0.8300000000000005,2,10,14,13,67,45,3.7399999999999824,10.649999999999817,0.01,0.01,4,13,1,1,37,63,1,1,6,0,21,7,H,0.1010810810810811,0.1690476190476191,0.01,0.01
6,16,31,1,15,0.6000000000000003,2,5,31,27,71,102,5.239999999999946,0.8000000000000005,0.11999999999999998,0.20000000000000004,6,3,1,1,30,6,1,1,4,0,16,7,H,0.17466666666666672,0.13333333333333336,0.11999999999999998,0.20000000000000004
6,16,32,1,13,0.16,2,3,15,21,17,47,15.529999999999717,0.01,0.01,0.01,17,1,1,1,112,1,1,1,6,0.5,23,7,H,0.1386607142857143,0.01,0.01,0.01
6,17,33,1,6,0.5400000000000003,2,7,58,41,57,21,3.039999999999991,2.1199999999999988,0.21000000000000005,0.5100000000000002,5,2,2,2,21,12,2,3,4,0,19,7,H,0.14476190476190479,0.17666666666666672,0.10500000000000001,0.17000000000000004
6,17,34,1,10,1.390000000000001,16,24,4,10,102,11,3.9999999999999893,1.5700000000000012,3.2099999999999755,1.9800000000000015,19,3,3,6,38,15,18,14,6,0.5,20,7,H,0.10526315789473686,0.10466666666666669,0.17833333333333337,0.14142857142857146
6,18,35,1,7,1.0200000000000007,8,9,83,74,79,105,4.159999999999978,0.5100000000000002,3.559999999999968,0.03,13,2,5,1,29,4,21,1,3,0.5,11,7,H,0.14344827586206899,0.12750000000000003,0.16952380952380958,0.03
6,18,36,1,11,0.6600000000000004,2,7,117,10,42,7,4.959999999999953,1.7800000000000014,0.35000000000000014,0.6900000000000004,7,3,2,3,47,15,4,6,2,0,19,7,H,0.10553191489361703,0.11866666666666667,0.0875,0.115
6,19,37,1,15,0.34000000000000014,2,4,1,112,91,111,10.42999999999983,0.02,0.07,0.11999999999999998,13,1,1,2,82,1,1,2,4,0,13,7,H,0.12719512195121954,0.02,0.07,0.06
6,19,38,1,3,0.34000000000000014,2,3,25,35,106,34,4.199999999999962,0.7900000000000005,1.0500000000000007,0.13999999999999999,5,4,2,2,29,7,5,2,5,0.5,17,7,H,0.1448275862068966,0.11285714285714288,0.21000000000000005,0.07
6,20,39,1,7,0.7200000000000004,2,6,84,73,83,106,2.8,1.8400000000000014,2.4699999999999913,1.300000000000001,4,4,9,2,22,13,19,10,3,0.5,11,7,H,0.1272727272727273,0.14153846153846156,0.13000000000000003,0.13000000000000003
6,20,40,1,10,0.8500000000000005,2,10,12,9,11,1,3.119999999999996,0.6300000000000003,1.360000000000001,13.939999999999747,5,2,6,16,31,3,10,95,6,1,72,7,H,0.1006451612903226,0.21000000000000008,0.13600000000000004,0.1467368421052632
7,1,1,0,10,0.5700000000000003,2,15,23,118,17,30,4.9899999999999505,5.809999999999921,0.10999999999999999,0.02,4,4,2,1,83,90,2,1,6,0,19,7,H,0.06012048192771084,0.06455555555555556,0.055,0.02
7,1,2,0,5,0.5500000000000003,2,11,10,8,59,3,4.889999999999953,1.290000000000001,1.470000000000001,4.379999999999951,5,2,7,4,67,17,20,70,6,0.5,22,7,H,0.07298507462686568,0.07588235294117647,0.07350000000000001,0.06257142857142857
7,2,3,0,4,0.5000000000000002,2,8,101,28,107,30,4.1099999999999675,3.429999999999971,0.07,0.4400000000000002,4,5,1,4,66,33,1,8,2,0,14,7,H,0.06227272727272728,0.10393939393939396,0.07,0.055
7,2,4,0,10,0.6700000000000004,2,11,17,16,14,23,5.389999999999944,0.47000000000000025,0.5800000000000003,0.23000000000000007,11,2,4,3,64,9,7,5,6,1,72,7,H,0.08421875000000001,0.052222222222222225,0.08285714285714287,0.046
7,3,5,0,9,0.6500000000000004,2,16,64,28,30,68,4.2299999999999685,2.3199999999999945,0.3100000000000001,2.010000000000001,5,2,2,9,54,24,3,29,4,0,18,7,H,0.07833333333333334,0.09666666666666668,0.10333333333333335,0.06931034482758622
7,3,6,0,4,1.7600000000000013,19,33,108,103,20,98,6.289999999999949,0.6000000000000003,3.8799999999999613,3.2999999999999736,20,7,14,14,94,12,60,49,2,0.5,12,7,H,0.06691489361702128,0.049999999999999996,0.06466666666666666,0.0673469387755102
7,4,7,0,6,0.9300000000000006,2,14,54,102,6,52,5.5999999999999455,1.9100000000000015,0.9600000000000006,0.08,4,2,4,2,78,18,19,2,4,0,16,7,H,0.0717948717948718,0.10611111111111113,0.05052631578947368,0.04
7,4,8,0,10,0.6000000000000003,10,10,15,24,16,71,4.939999999999952,0.4200000000000002,12.519999999999778,0.5600000000000003,12,3,16,5,85,7,140,6,6,0.5,22,7,H,0.05811764705882353,0.06,0.08942857142857144,0.09333333333333335
7,5,9,0,2,0.9700000000000006,2,15,76,12,79,78,3.259999999999996,3.379999999999972,0.7200000000000004,1.0200000000000007,5,2,4,5,39,52,10,13,3,0.5,15,7,H,0.0835897435897436,0.065,0.07200000000000001,0.07846153846153846
7,5,10,0,3,0.8700000000000006,2,13,42,44,57,53,4.089999999999976,1.1500000000000008,1.7100000000000013,0.24000000000000007,6,2,2,2,53,15,22,3,5,0,18,7,H,0.07716981132075472,0.07666666666666667,0.07772727272727273,0.08
7,6,11,0,2,0.7400000000000004,5,11,83,76,46,49,4.769999999999959,1.1600000000000008,1.1500000000000008,1.0400000000000007,7,2,3,4,62,16,15,15,3,0,15,7,H,0.07693548387096774,0.0725,0.07666666666666666,0.06933333333333333
7,6,12,0,5,0.2700000000000001,2,5,5,11,6,25,6.60999999999991,0.25000000000000006,0.16,0.5700000000000003,4,2,1,2,80,4,1,6,6,0.5,23,7,H,0.082625,0.0625,0.16,0.095
7,7,13,1,15,0.8200000000000005,14,16,61,62,71,15,6.109999999999932,0.20000000000000004,0.8900000000000006,3.099999999999978,16,2,2,2,75,6,15,30,4,0.5,18,7,H,0.08146666666666667,0.03333333333333333,0.059333333333333335,0.10333333333333335
7,7,14,1,4,0.3900000000000002,2,7,102,97,106,59,3.579999999999976,0.4300000000000002,0.4100000000000002,3.369999999999972,4,2,2,2,54,3,3,45,2,0.5,10,7,H,0.0662962962962963,0.14333333333333334,0.1366666666666667,0.0748888888888889
7,8,15,1,11,0.8100000000000005,2,11,119,15,13,109,5.149999999999952,2.07,0.6900000000000004,0.07,4,2,2,1,71,27,5,1,2,0,16,7,H,0.07253521126760563,0.07666666666666666,0.13800000000000004,0.07
7,8,16,1,10,0.47000000000000025,4,7,2,8,36,71,2.959999999999991,1.5500000000000012,1.8200000000000014,0.6000000000000003,6,2,2,2,40,21,28,6,6,0,21,7,H,0.07400000000000001,0.07380952380952381,0.065,0.1
7,9,17,1,13,1.5600000000000012,20,35,21,15,64,14,5.399999999999963,0.5300000000000002,2.849999999999983,0.35000000000000014,20,2,5,3,95,11,56,4,6,0.5,22,7,H,0.056842105263157895,0.04818181818181818,0.05089285714285714,0.08750000000000001
7,9,18,1,10,0.5000000000000002,2,9,11,7,3,2,3.1199999999999886,2.0799999999999996,2.1799999999999975,10.379999999999823,12,2,5,17,43,19,21,148,6,1,72,7,H,0.07255813953488373,0.10947368421052633,0.10380952380952381,0.07013513513513514
7,10,19,1,10,0.5100000000000002,2,9,11,3,12,38,3.389999999999983,0.9200000000000006,8.459999999999864,0.47000000000000025,5,2,6,2,42,13,101,9,6,0.5,23,7,H,0.08071428571428572,0.07076923076923076,0.08376237623762377,0.052222222222222225
7,10,20,1,12,0.6200000000000003,4,9,96,90,92,104,5.279999999999945,0.26000000000000006,0.3900000000000002,1.9900000000000015,7,3,4,12,76,7,5,29,3,0.5,11,7,H,0.06947368421052631,0.037142857142857144,0.078,0.06862068965517241
7,11,21,1,12,0.12999999999999998,3,3,1,86,2,109,18.56000000000008,0.01,0.3100000000000001,0.07,20,1,6,2,233,1,6,2,3,0,17,7,H,0.07965665236051503,0.01,0.051666666666666666,0.035
7,11,22,1,15,0.6900000000000004,2,15,63,69,71,72,5.109999999999951,0.17,1.0900000000000007,1.7600000000000013,4,1,3,6,71,1,14,30,4,1,48,7,H,0.0719718309859155,0.17,0.07785714285714285,0.058666666666666666
7,12,23,1,7,0.7500000000000004,2,15,76,81,108,104,3.6499999999999826,0.9600000000000006,1.9400000000000015,0.38000000000000017,4,4,3,2,56,13,29,7,3,0,10,7,H,0.06517857142857143,0.07384615384615385,0.06689655172413793,0.054285714285714284
7,12,24,1,12,0.5800000000000003,2,10,88,26,90,8,5.309999999999944,1.290000000000001,0.15,1.420000000000001,5,2,2,3,68,19,2,21,3,0,17,7,H,0.07808823529411765,0.06789473684210526,0.075,0.06761904761904762
7,13,25,1,11,0.49000000000000027,2,10,115,110,34,29,4.299999999999963,1.5500000000000012,0.13999999999999999,0.4200000000000002,4,2,1,3,70,23,1,5,2,0,14,7,H,0.06142857142857143,0.06739130434782609,0.13999999999999999,0.084
7,13,26,1,7,0.6800000000000004,2,13,74,84,77,103,5.1599999999999495,0.7400000000000004,0.5300000000000002,0.35000000000000014,4,5,4,2,67,15,7,3,3,0.5,11,7,H,0.07701492537313433,0.04933333333333333,0.0757142857142857,0.11666666666666668
7,14,27,1,3,0.3100000000000001,5,7,20,28,113,118,12.28999999999979,0.02,0.04,0.01,11,1,1,1,164,1,1,1,5,0,15,7,H,0.0749390243902439,0.02,0.04,0.01
7,14,28,1,14,0.7000000000000004,2,11,48,47,101,9,4.559999999999962,0.9300000000000006,1.280000000000001,0.9400000000000006,4,3,3,2,67,17,23,15,5,0,18,7,H,0.06805970149253732,0.054705882352941174,0.05565217391304348,0.06266666666666668
7,15,29,1,12,0.7700000000000005,16,18,92,95,8,90,5.159999999999951,0.26000000000000006,6.8899999999998975,0.01,18,2,12,1,59,3,92,1,3,0.5,15,7,H,0.08745762711864408,0.08666666666666666,0.0748913043478261,0.01
7,15,30,1,13,0.6700000000000004,2,11,14,13,68,29,5.359999999999944,12.199999999999784,0.01,0.01,6,17,1,1,67,138,1,1,6,0,21,7,H,0.08,0.08840579710144929,0.01,0.01
7,16,31,1,12,0.5800000000000003,2,10,18,93,96,88,3.1199999999999903,0.7200000000000004,1.5300000000000011,0.19000000000000003,4,2,3,2,42,11,13,3,3,0.5,15,7,H,0.07428571428571429,0.06545454545454546,0.11769230769230771,0.06333333333333332
7,16,32,1,10,0.4400000000000002,2,4,1,5,4,11,4.979999999999948,0.5300000000000002,0.7800000000000005,0.7900000000000005,4,3,6,6,64,5,12,9,6,1,72,7,H,0.0778125,0.10600000000000001,0.065,0.08777777777777779
7,17,33,1,13,0.16,4,7,14,17,79,15,4.739999999999947,0.3900000000000002,2.669999999999987,0.3200000000000001,10,4,5,4,62,5,32,4,6,0.5,21,7,H,0.07645161290322582,0.078,0.0834375,0.08000000000000002
7,17,34,1,11,0.45000000000000023,2,6,110,41,112,45,4.969999999999948,1.0700000000000007,0.35000000000000014,0.6200000000000003,4,2,3,2,58,6,4,12,2,0,14,7,H,0.08568965517241381,0.1783333333333334,0.0875,0.05166666666666666
7,18,35,1,15,0.6700000000000004,2,10,21,71,13,81,3.8899999999999757,0.5400000000000003,0.8000000000000005,1.450000000000001,5,2,2,4,51,9,13,15,4,0,19,7,H,0.07627450980392157,0.060000000000000005,0.061538461538461535,0.09666666666666668
7,18,36,1,12,0.2700000000000001,5,5,1,89,87,86,12.279999999999788,0.01,0.03,0.07,13,1,3,2,165,1,3,2,3,0.5,15,7,H,0.07442424242424242,0.01,0.01,0.035
7,19,37,1,7,0.6100000000000003,2,8,84,6,56,79,4.309999999999965,4.89999999999994,0.26000000000000006,0.3100000000000001,6,3,2,3,53,63,4,4,3,0,16,7,H,0.08132075471698114,0.07777777777777778,0.065,0.07750000000000001
7,19,38,1,12,0.45000000000000023,3,10,85,91,70,17,4.259999999999963,0.7000000000000004,2.8399999999999834,0.17,8,4,5,2,51,12,33,4,3,0,16,7,H,0.0835294117647059,0.058333333333333334,0.08606060606060607,0.0425
7,20,39,1,6,0.7900000000000005,2,13,59,75,80,51,6.139999999999931,0.8900000000000006,0.6700000000000004,0.34000000000000014,6,5,5,3,75,11,15,8,4,0,14,7,H,0.08186666666666667,0.0809090909090909,0.04466666666666667,0.0425
7,20,40,1,3,1.430000000000001,18,29,25,36,7,65,4.539999999999979,0.9900000000000007,1.430000000000001,0.7600000000000005,20,2,2,2,70,11,17,14,5,0,20,7,H,0.06485714285714286,0.09,0.08411764705882352,0.054285714285714284
8,1,1,0,8,0.22000000000000006,2,5,115,18,25,116,8.109999999999877,3.2199999999999753,0.2800000000000001,0.13999999999999999,17,5,2,2,40,13,3,2,2,0,15,7,H,0.20275000000000007,0.2476923076923078,0.09333333333333332,0.06999999999999999
8,1,2,0,5,0.3000000000000001,2,4,52,50,1,74,8.889999999999862,0.2800000000000001,0.09,0.6300000000000003,15,2,1,4,37,2,1,5,6,0,17,7,H,0.24027027027027034,0.14000000000000004,0.09,0.12600000000000003
8,2,3,0,6,0.5600000000000003,2,5,51,54,60,52,8.619999999999873,0.18000000000000002,0.19000000000000003,0.2800000000000001,12,1,2,2,37,1,3,4,4,1,48,7,H,0.23297297297297306,0.18000000000000002,0.06333333333333332,0.06999999999999999
8,2,4,0,4,0.24000000000000007,2,3,106,100,107,97,7.6599999999998865,0.21000000000000005,0.15,0.26000000000000006,15,2,1,2,41,2,1,3,2,1,24,7,H,0.18682926829268298,0.10500000000000001,0.15,0.08666666666666667
8,3,5,0,10,0.2800000000000001,2,3,24,33,32,18,5.099999999999942,3.149999999999977,2.909999999999982,1.8600000000000014,10,8,9,5,21,18,17,10,6,0,22,7,H,0.24285714285714294,0.17500000000000004,0.17117647058823535,0.18600000000000005
8,3,6,0,8,0.2900000000000001,2,4,118,113,12,116,6.2899999999999165,1.350000000000001,1.350000000000001,2.0899999999999994,14,4,2,7,32,7,2,7,2,0.5,12,7,H,0.19656250000000006,0.19285714285714292,0.6750000000000004,0.2985714285714287
8,4,7,0,1,0.36000000000000015,2,4,36,12,6,31,8.06999999999988,1.1100000000000008,0.4200000000000002,0.2700000000000001,17,5,2,2,40,11,3,2,5,0,22,7,H,0.20175000000000007,0.10090909090909092,0.14,0.135
8,4,8,0,6,0.45000000000000023,6,7,56,23,16,117,8.459999999999875,1.490000000000001,0.8700000000000006,0.26000000000000006,17,3,4,2,48,3,6,3,4,0,18,7,H,0.17625000000000005,0.4966666666666669,0.14500000000000002,0.08666666666666666
8,5,9,0,8,0.4000000000000002,2,4,111,31,110,27,7.019999999999904,0.6800000000000004,0.26000000000000006,1.1200000000000008,13,3,1,4,29,3,1,10,2,0,14,7,H,0.24206896551724147,0.22666666666666674,0.26000000000000006,0.112
8,5,10,0,3,0.23000000000000007,2,3,42,39,2,44,6.169999999999918,2.3699999999999934,0.22000000000000006,0.3100000000000001,11,8,1,3,28,15,1,3,5,0.5,21,7,H,0.22035714285714295,0.15800000000000003,0.22000000000000006,0.10333333333333333
8,6,11,0,3,0.2900000000000001,2,4,23,45,48,52,8.919999999999861,0.10999999999999999,1.0100000000000007,0.09,13,1,4,1,39,1,4,1,5,0,20,7,H,0.22871794871794882,0.10999999999999999,0.2525000000000001,0.09
8,6,12,0,4,0.12999999999999998,1,2,98,108,105,31,5.439999999999931,2.5199999999999902,1.8200000000000014,0.5400000000000003,13,9,5,3,28,10,9,3,2,0.5,11,7,H,0.19428571428571434,0.2520000000000001,0.2022222222222223,0.18000000000000002
8,7,13,1,4,0.36000000000000015,2,4,89,70,7,104,9.129999999999857,0.48000000000000026,0.36000000000000015,0.19000000000000003,15,2,2,2,42,2,2,2,2,0,15,7,H,0.21738095238095245,0.24000000000000005,0.18000000000000002,0.095
8,7,14,1,13,0.2700000000000001,2,3,21,23,31,27,4.309999999999959,1.2300000000000009,3.6299999999999666,0.4000000000000002,8,3,9,2,17,6,16,2,6,0,22,7,H,0.253529411764706,0.20500000000000007,0.22687500000000008,0.20000000000000007
8,8,15,1,12,0.6900000000000004,6,8,86,68,65,71,7.589999999999898,0.48000000000000026,1.290000000000001,0.2700000000000001,17,1,5,1,44,1,7,1,3,0.5,15,7,H,0.17250000000000004,0.48000000000000026,0.18428571428571433,0.2700000000000001
8,8,16,1,7,0.26000000000000006,2,3,78,58,32,6,5.929999999999923,2.439999999999992,0.7600000000000005,0.5400000000000003,13,6,2,2,29,8,5,3,3,0,18,7,H,0.2044827586206897,0.3050000000000001,0.152,0.18000000000000002
8,9,17,1,6,0.21000000000000005,2,3,52,50,87,57,6.689999999999906,0.9600000000000006,1.0100000000000007,0.15,15,4,4,2,21,5,5,2,4,0.5,15,7,H,0.3185714285714287,0.19200000000000006,0.20200000000000004,0.075
8,9,18,1,7,0.7900000000000005,4,9,62,72,4,77,8.429999999999882,0.3100000000000001,0.12999999999999998,0.17,14,1,1,2,53,1,1,2,3,0,17,7,H,0.15905660377358494,0.3100000000000001,0.12999999999999998,0.085
8,10,19,1,6,0.5000000000000002,2,7,21,54,85,32,7.939999999999886,0.22000000000000006,0.4100000000000002,0.6100000000000003,14,2,1,2,47,2,1,6,4,0,18,7,H,0.16893617021276602,0.11000000000000003,0.4100000000000002,0.10166666666666667
8,10,20,1,14,1.8000000000000014,10,15,5,47,63,79,5.6299999999999635,3.989999999999959,0.6300000000000003,0.22000000000000006,14,7,2,2,32,18,4,3,5,0,18,7,H,0.17593750000000005,0.22166666666666673,0.15750000000000006,0.07333333333333335
8,11,21,1,13,1.6500000000000012,13,17,90,21,94,13,6.309999999999946,2.4499999999999917,1.290000000000001,0.4100000000000002,20,4,4,2,34,16,5,4,6,0,18,7,H,0.18558823529411772,0.15312500000000004,0.25800000000000006,0.10250000000000001
8,11,22,1,7,0.9600000000000006,8,9,10,6,5,76,7.1399999999999135,1.380000000000001,0.10999999999999999,0.23000000000000007,20,5,1,2,31,6,1,2,3,0.5,21,7,H,0.23032258064516137,0.2300000000000001,0.10999999999999999,0.11500000000000002
8,12,23,1,12,0.6600000000000004,3,8,86,94,53,42,8.989999999999867,0.8800000000000006,0.8600000000000005,0.2700000000000001,12,3,6,1,52,4,7,1,3,0,15,7,H,0.17288461538461544,0.22000000000000006,0.12285714285714286,0.2700000000000001
8,12,24,1,11,0.15,2,3,82,35,71,69,7.7599999999998825,0.48000000000000026,0.23000000000000007,0.47000000000000025,10,2,1,2,39,3,2,4,2,0,16,7,H,0.19897435897435903,0.16000000000000003,0.11500000000000002,0.11750000000000001
8,13,25,1,14,0.3300000000000001,2,3,39,96,8,6,7.499999999999892,1.6500000000000012,0.08,0.15,14,6,1,1,39,9,1,1,5,0,20,7,H,0.19230769230769237,0.18333333333333338,0.08,0.15
8,13,26,1,11,0.4200000000000002,2,5,113,17,111,31,4.429999999999959,2.5499999999999896,0.3100000000000001,1.7800000000000014,8,2,2,6,23,14,2,8,2,0,15,7,H,0.19260869565217398,0.1821428571428572,0.15500000000000003,0.22250000000000006
8,14,27,1,15,0.5300000000000002,2,7,69,68,32,8,6.38999999999992,0.5000000000000002,1.6900000000000013,0.2800000000000001,12,2,5,2,30,2,11,2,4,0,19,7,H,0.21300000000000008,0.2500000000000001,0.15363636363636365,0.14000000000000004
8,14,28,1,6,0.18000000000000002,3,4,120,49,42,117,5.879999999999923,0.5800000000000003,1.2400000000000009,0.5900000000000003,11,3,3,3,31,4,10,4,4,0,13,7,H,0.18967741935483878,0.14500000000000005,0.12400000000000001,0.14750000000000002
8,15,29,1,7,0.47000000000000025,2,3,40,2,83,43,7.079999999999904,1.0100000000000007,0.4100000000000002,0.26000000000000006,11,3,2,1,33,4,3,1,3,0,19,7,H,0.21454545454545462,0.25250000000000006,0.1366666666666667,0.26000000000000006
8,15,30,1,12,0.5300000000000002,2,4,36,64,21,31,4.399999999999961,2.3099999999999947,1.2100000000000009,1.2100000000000009,6,7,3,3,19,13,5,10,3,0,20,7,H,0.23157894736842113,0.17769230769230773,0.24200000000000008,0.12100000000000002
8,16,31,1,7,0.25000000000000006,1,3,120,80,109,79,8.019999999999879,0.25000000000000006,0.38000000000000017,0.4000000000000002,16,1,1,2,40,1,1,3,3,0,10,7,H,0.20050000000000007,0.25000000000000006,0.38000000000000017,0.13333333333333336
8,16,32,1,4,0.37000000000000016,2,5,99,13,107,104,5.959999999999925,2.3099999999999947,0.20000000000000004,0.8400000000000005,11,5,2,3,33,9,2,3,2,0.5,12,7,H,0.18060606060606066,0.25666666666666677,0.09999999999999999,0.2800000000000001
8,17,33,1,4,1.0400000000000007,7,10,107,72,71,28,5.579999999999949,1.2200000000000009,1.360000000000001,0.2700000000000001,13,4,4,1,24,5,6,1,2,0,15,7,H,0.2325000000000001,0.24400000000000008,0.22666666666666674,0.2700000000000001
8,17,34,1,14,0.13999999999999999,2,2,3,90,94,48,17.66999999999994,0.03,0.01,0.04,20,1,1,1,88,1,1,1,5,0,17,7,H,0.2007954545454546,0.03,0.01,0.04
8,18,35,1,10,0.16,2,3,26,10,3,71,7.609999999999886,4.319999999999952,0.08,0.04,14,8,2,1,37,23,2,1,6,0,21,7,H,0.20567567567567574,0.18782608695652178,0.04,0.04
8,18,36,1,13,0.4300000000000002,2,5,17,21,22,117,6.699999999999911,0.7500000000000004,9.739999999999837,0.01,11,4,15,1,32,5,30,1,6,0.5,20,7,H,0.20937500000000006,0.15000000000000005,0.3246666666666668,0.01
8,19,37,1,3,0.7200000000000004,2,3,106,97,104,49,7.759999999999895,0.6300000000000003,0.8200000000000005,0.13999999999999999,14,3,2,1,37,3,4,1,5,0.5,10,7,H,0.20972972972972978,0.21000000000000005,0.20500000000000004,0.13999999999999999
8,19,38,1,12,0.9700000000000006,5,7,3,89,70,37,7.929999999999897,0.8100000000000005,0.15,0.9600000000000006,15,4,1,3,32,6,2,3,3,0,18,7,H,0.2478125000000001,0.13500000000000004,0.07500000000000001,0.3200000000000001
8,20,39,1,3,0.6100000000000003,4,6,29,68,106,63,5.789999999999934,2.339999999999994,1.0300000000000007,0.49000000000000027,11,5,3,3,29,9,4,3,5,0,15,7,H,0.19965517241379316,0.2600000000000001,0.2575000000000001,0.16333333333333333
8,20,40,1,7,0.4300000000000002,3,5,57,119,76,74,5.929999999999928,1.8200000000000014,0.9700000000000006,0.7700000000000005,11,3,4,3,27,10,9,4,3,0,12,7,H,0.21962962962962973,0.18200000000000005,0.10777777777777778,0.19250000000000006
9,1,1,0,7,0.22000000000000006,2,3,94,91,96,22,23.940000000000907,0.6100000000000003,6.269999999999911,1.7500000000000013,20,4,15,8,157,4,31,12,3,0.5,15,6,H,0.15248407643312106,0.15250000000000005,0.2022580645161291,0.14583333333333337
9,1,2,0,4,0.26000000000000006,2,3,97,99,102,104,20.630000000000386,1.8000000000000014,0.3100000000000001,20.130000000000347,18,3,2,17,112,13,3,109,2,1,24,6,H,0.18419642857142862,0.13846153846153847,0.10333333333333335,0.18467889908256888
9,2,3,0,4,0.5300000000000002,2,11,101,98,106,97,16.389999999999706,1.8700000000000014,4.059999999999958,1.5900000000000012,15,4,9,4,110,11,24,9,2,1,24,6,H,0.14900000000000002,0.17000000000000004,0.16916666666666672,0.17666666666666672
9,2,4,0,7,0.3300000000000001,2,4,93,90,95,94,19.740000000000236,3.0799999999999783,3.759999999999964,0.5000000000000002,20,11,10,3,129,17,21,4,3,1,36,6,H,0.1530232558139535,0.18117647058823536,0.17904761904761912,0.12500000000000003
9,3,5,0,1,0.26000000000000006,2,3,33,25,51,31,20.690000000000396,2.4999999999999907,6.31999999999991,2.149999999999998,20,7,13,7,142,20,44,17,5,0.5,19,6,H,0.14570422535211272,0.12500000000000003,0.14363636363636367,0.12647058823529414
9,3,6,0,9,0.4200000000000002,2,8,72,63,65,66,21.720000000000532,1.0100000000000007,3.619999999999967,2.479999999999991,20,5,12,9,139,7,17,14,4,1,48,6,H,0.15625899280575545,0.14428571428571432,0.2129411764705883,0.17714285714285719
9,4,7,0,5,0.3200000000000001,2,3,8,12,56,5,19.660000000000224,3.6699999999999657,4.549999999999947,1.8400000000000014,20,7,9,8,111,20,30,8,6,0.5,22,6,H,0.17711711711711717,0.18350000000000005,0.1516666666666667,0.2300000000000001
9,4,8,0,4,0.24000000000000007,2,4,104,97,105,92,17.619999999999916,3.00999999999998,6.859999999999898,14.139999999999743,20,9,16,16,115,21,42,92,2,0.5,9,6,H,0.15321739130434786,0.14333333333333337,0.16333333333333339,0.1536956521739131
9,5,9,0,2,0.4300000000000002,2,8,73,77,83,75,20.52000000000034,1.0600000000000007,5.299999999999931,2.1399999999999983,20,3,12,8,125,8,26,16,3,1,36,6,H,0.16416000000000003,0.13250000000000003,0.20384615384615393,0.13375000000000004
9,5,10,0,9,0.25000000000000006,2,3,69,62,70,64,17.12999999999984,3.379999999999972,8.64999999999986,2.759999999999985,20,11,12,9,130,25,50,20,4,1,48,6,H,0.1317692307692308,0.13520000000000001,0.17300000000000004,0.138
9,6,11,1,11,0.34000000000000014,2,7,111,110,120,113,19.430000000000184,0.8400000000000005,1.290000000000001,1.9200000000000015,20,3,6,6,145,6,10,11,2,1,24,6,H,0.13400000000000004,0.14,0.129,0.1745454545454546
9,6,12,1,13,0.34000000000000014,2,6,23,17,14,16,20.600000000000367,7.279999999999889,1.5900000000000012,0.9100000000000006,20,14,3,5,135,46,16,6,6,1,72,6,H,0.15259259259259264,0.15826086956521743,0.09937500000000002,0.15166666666666667
9,7,13,1,6,0.4400000000000002,2,9,49,58,56,51,15.089999999999732,5.129999999999935,1.0800000000000007,7.169999999999892,18,14,5,17,94,36,10,37,4,1,48,6,H,0.16053191489361707,0.14250000000000002,0.10800000000000001,0.19378378378378383
9,7,14,1,15,0.22000000000000006,2,3,68,70,62,40,21.620000000000545,3.229999999999975,0.5900000000000003,3.419999999999971,20,9,2,8,139,17,4,22,4,0.5,17,6,H,0.1555395683453238,0.19000000000000006,0.14750000000000002,0.15545454545454548
9,8,15,1,14,0.35000000000000014,2,3,46,42,38,44,20.790000000000397,0.6200000000000003,5.089999999999936,2.4499999999999917,20,2,15,9,162,5,41,15,5,1,60,6,H,0.12833333333333335,0.12400000000000003,0.12414634146341465,0.16333333333333336
9,8,16,1,6,0.17,2,3,55,58,52,57,18.290000000000035,3.559999999999968,2.4999999999999907,9.639999999999839,20,7,8,17,119,32,11,61,4,1,48,6,H,0.1536974789915967,0.11125000000000002,0.22727272727272735,0.15803278688524594
9,9,17,1,4,0.17,2,2,1,108,32,105,51.49999999999836,1.0100000000000007,0.18000000000000002,0.5800000000000003,20,6,1,2,327,7,1,2,2,0,15,6,H,0.1574923547400612,0.14428571428571432,0.18000000000000002,0.29000000000000015
9,9,18,1,14,0.3000000000000001,2,4,37,47,39,48,18.920000000000112,1.0100000000000007,1.9700000000000015,4.049999999999958,20,3,6,11,104,7,22,34,5,1,60,6,H,0.18192307692307697,0.14428571428571432,0.08954545454545457,0.11911764705882355
9,10,19,1,10,0.47000000000000025,8,8,2,6,4,8,32.52000000000219,0.08,0.3200000000000001,3.7699999999999636,20,2,5,13,235,3,5,33,6,1,72,6,H,0.1383829787234043,0.026666666666666665,0.064,0.11424242424242427
9,10,20,1,3,0.3200000000000001,2,3,35,25,34,27,18.73000000000008,10.109999999999829,1.2000000000000008,3.699999999999965,19,16,4,10,131,65,9,26,5,1,60,6,H,0.14297709923664126,0.15553846153846157,0.13333333333333336,0.14230769230769233
9,11,21,1,11,0.4200000000000002,2,8,114,118,109,111,17.09999999999981,9.10999999999985,0.22000000000000006,0.7600000000000005,18,13,2,7,102,52,2,8,2,1,24,6,H,0.16764705882352945,0.17519230769230776,0.11,0.095
9,11,22,1,6,0.13999999999999999,1,2,51,53,55,108,14.92999999999973,3.0599999999999787,7.419999999999886,12.019999999999788,19,8,13,15,87,15,41,62,4,0.5,14,6,H,0.17160919540229888,0.20400000000000004,0.1809756097560976,0.19387096774193555
9,12,23,1,10,0.24000000000000007,2,3,7,5,1,56,20.360000000000344,1.0500000000000007,4.249999999999954,5.929999999999918,20,5,12,13,128,8,26,39,6,0.5,22,6,H,0.15906250000000005,0.13125,0.1634615384615385,0.1520512820512821
9,12,24,1,13,0.26000000000000006,2,3,14,16,19,106,15.749999999999714,22.64000000000074,0.02,3.089999999999978,20,19,1,11,96,143,1,20,6,0.5,20,6,H,0.16406250000000006,0.15832167832167837,0.02,0.15450000000000005
9,13,25,1,14,0.3000000000000001,2,8,40,39,44,105,20.410000000000345,2.399999999999993,0.6600000000000004,4.179999999999955,19,6,2,11,108,18,3,15,5,0.5,17,6,H,0.18898148148148156,0.13333333333333336,0.22000000000000006,0.2786666666666668
9,13,26,1,7,0.4200000000000002,2,5,77,53,81,60,22.760000000000694,6.239999999999911,0.18000000000000002,0.4000000000000002,20,11,2,2,151,46,2,3,3,0,14,6,H,0.1507284768211921,0.13565217391304352,0.09,0.13333333333333336
9,14,27,1,7,0.6600000000000004,2,8,75,80,58,110,23.570000000000782,3.5399999999999685,0.5600000000000003,1.5200000000000011,19,10,2,6,147,23,4,9,3,0,12,6,H,0.16034013605442182,0.1539130434782609,0.14,0.16888888888888895
9,14,28,1,3,0.3100000000000001,2,8,34,27,31,36,12.489999999999785,10.619999999999818,0.6800000000000004,1.2200000000000009,19,13,3,4,67,63,3,7,5,1,60,6,H,0.18641791044776126,0.16857142857142862,0.2266666666666667,0.17428571428571435
9,15,29,1,12,0.37000000000000016,2,7,86,91,60,90,16.889999999999784,3.4399999999999706,3.789999999999963,0.21000000000000005,20,6,9,1,129,33,30,1,3,0.5,13,6,H,0.13093023255813957,0.10424242424242425,0.12633333333333335,0.21000000000000005
9,15,30,1,3,0.4000000000000002,2,5,25,27,32,76,20.49000000000034,2.959999999999981,2.809999999999984,3.8199999999999625,18,6,10,9,120,20,12,25,5,0.5,18,6,H,0.17075000000000004,0.14800000000000005,0.23416666666666675,0.15280000000000002
9,16,31,1,14,0.4400000000000002,2,5,41,45,60,39,20.730000000000373,2.0400000000000005,0.4100000000000002,1.0900000000000007,20,8,1,4,127,19,1,9,5,0.5,19,6,H,0.16322834645669296,0.1073684210526316,0.4100000000000002,0.12111111111111111
9,16,32,1,11,0.49000000000000027,2,7,119,116,109,28,27.040000000001353,0.8200000000000005,1.480000000000001,9.659999999999838,20,4,5,16,158,6,8,68,2,0.5,11,6,H,0.17113924050632917,0.1366666666666667,0.18500000000000005,0.1420588235294118
9,17,33,1,14,0.7800000000000005,3,13,80,48,37,98,23.820000000000803,1.2400000000000009,1.0800000000000007,0.9500000000000006,20,4,3,4,166,7,13,11,5,0,15,6,H,0.14349397590361448,0.17714285714285719,0.08307692307692308,0.08636363636363636
9,17,34,1,10,0.21000000000000005,2,3,1,10,9,8,15.48999999999972,2.7399999999999856,5.749999999999922,7.3599999999998875,19,8,11,14,102,18,40,46,6,1,72,6,H,0.15186274509803926,0.15222222222222226,0.14375000000000004,0.16000000000000003
10,1,1,0,4,0.3100000000000001,2,4,100,52,105,101,1.2500000000000007,0.3900000000000002,0.23000000000000007,0.19000000000000003,5,1,2,2,8,1,3,2,2,0.5,10,7,H,0.15625000000000003,0.3900000000000002,0.07666666666666667,0.09500000000000001
10,1,2,0,1,0.5200000000000002,2,5,27,70,22,26,1.1100000000000005,4.509999999999948,0.01,0.24000000000000007,4,8,1,2,7,16,1,2,5,0,20,7,H,0.1585714285714286,0.2818750000000001,0.01,0.12000000000000004
10,2,3,0,2,0.7000000000000004,14,15,77,75,79,84,1.7800000000000011,0.09,0.21000000000000005,0.13999999999999999,16,1,1,1,22,1,1,1,3,1,36,7,H,0.08090909090909092,0.09,0.21000000000000005,0.13999999999999999
10,2,4,0,4,0.36000000000000015,2,6,99,52,103,27,1.0400000000000005,0.7500000000000004,0.46000000000000024,0.20000000000000004,3,2,2,1,7,2,3,1,2,0,13,7,H,0.14857142857142863,0.37500000000000017,0.15333333333333338,0.20000000000000004
10,3,5,0,4,0.46000000000000024,5,6,98,51,27,108,1.710000000000001,1.260000000000001,1.2200000000000009,0.46000000000000024,7,2,3,2,12,5,4,2,2,0,13,7,H,0.14250000000000004,0.2520000000000001,0.30500000000000016,0.23000000000000012
10,3,6,0,2,0.36000000000000015,2,6,83,21,73,71,1.550000000000001,0.8000000000000005,1.9500000000000015,0.5200000000000002,5,2,6,2,10,2,10,4,3,0,16,7,H,0.15500000000000005,0.4000000000000002,0.19500000000000006,0.13000000000000003
10,4,7,0,1,0.17,2,2,1,105,101,98,8.239999999999872,0.01,0.01,0.01,7,1,1,1,22,1,1,1,5,0.5,12,7,H,0.37454545454545474,0.01,0.01,0.01
10,4,8,0,2,0.34000000000000014,6,6,80,16,111,81,1.590000000000001,6.819999999999899,1.5700000000000012,0.3000000000000001,8,4,8,2,15,16,9,2,3,0,14,7,H,0.10600000000000001,0.42625000000000024,0.1744444444444445,0.15000000000000005
10,5,9,0,10,0.5500000000000003,2,5,17,16,65,61,1.610000000000001,0.2900000000000001,1.5400000000000011,0.05,4,1,4,1,7,1,4,1,6,0,20,7,H,0.23000000000000007,0.2900000000000001,0.3850000000000002,0.05
10,5,10,0,5,0.2700000000000001,2,3,6,8,5,30,1.1400000000000006,0.13999999999999999,15.589999999999712,0.01,4,1,17,1,8,1,51,1,6,0.5,23,7,H,0.14250000000000002,0.13999999999999999,0.30568627450980407,0.01
10,6,11,0,9,0.36000000000000015,2,3,66,9,25,67,1.3700000000000008,1.410000000000001,0.09,0.09,4,2,1,2,7,5,1,2,4,0,19,7,H,0.19571428571428576,0.28200000000000014,0.09,0.045
10,6,12,0,6,0.35000000000000014,2,3,22,52,58,23,2.0000000000000013,0.09,0.2900000000000001,0.24000000000000007,6,1,2,1,8,1,2,2,4,0,20,7,H,0.2500000000000001,0.09,0.14500000000000002,0.12000000000000001
10,7,13,1,3,0.3100000000000001,2,4,30,29,25,108,1.4300000000000008,0.25000000000000006,6.449999999999907,0.01,5,1,8,1,8,1,31,1,5,0.5,17,7,H,0.17875000000000005,0.25000000000000006,0.20806451612903232,0.01
10,7,14,1,14,0.37000000000000016,2,3,44,47,9,87,1.0600000000000005,0.5700000000000003,0.8100000000000005,0.22000000000000006,4,2,2,1,5,3,2,1,5,0,19,7,H,0.21200000000000008,0.19000000000000006,0.4050000000000002,0.22000000000000006
10,8,15,1,4,0.3100000000000001,2,3,102,12,4,34,0.8300000000000003,0.7600000000000005,0.19000000000000003,2.07,4,3,1,2,7,5,1,9,2,0,19,7,H,0.11857142857142859,0.15200000000000002,0.19000000000000003,0.23000000000000007
10,8,16,1,15,0.23000000000000007,3,4,18,17,71,112,9.419999999999849,1.1900000000000008,0.01,0.01,13,6,1,1,28,8,1,1,4,0,18,7,H,0.33642857142857113,0.14875000000000005,0.01,0.01
10,9,17,1,3,0.5500000000000003,5,7,35,15,85,97,1.650000000000001,6.209999999999912,0.04,0.08,7,4,1,2,15,17,1,2,5,0,16,7,H,0.11000000000000001,0.365294117647059,0.04,0.04
10,9,18,1,7,0.3200000000000001,2,3,76,78,41,111,0.9100000000000004,0.9700000000000006,0.12999999999999998,2.07,5,2,1,2,7,4,1,6,3,0,13,7,H,0.13,0.24250000000000008,0.12999999999999998,0.34500000000000014
10,10,19,1,4,0.24000000000000007,2,3,97,106,55,39,0.8100000000000004,0.7700000000000005,1.2100000000000009,0.13999999999999999,3,2,2,2,4,4,4,2,2,0,13,7,H,0.20250000000000007,0.19250000000000006,0.30250000000000016,0.06999999999999999
10,10,20,1,12,0.2900000000000001,1,2,87,61,30,111,1.700000000000001,0.08,0.5600000000000003,0.2700000000000001,3,1,1,1,10,2,1,1,3,0,14,7,H,0.17000000000000004,0.04,0.5600000000000003,0.2700000000000001
10,11,21,1,10,0.5600000000000003,2,4,1,115,4,3,1.9200000000000013,0.5000000000000002,0.12999999999999998,4.699999999999944,4,2,1,5,12,2,1,14,6,0.5,20,7,H,0.16000000000000003,0.25000000000000006,0.12999999999999998,0.3357142857142859
10,11,22,1,13,0.9500000000000006,17,20,22,15,13,24,1.9800000000000013,0.11999999999999998,0.4000000000000002,0.07,19,1,2,1,24,1,2,1,6,1,72,7,H,0.08250000000000002,0.11999999999999998,0.2,0.07
10,12,23,1,12,0.3900000000000002,2,3,92,112,5,61,1.0700000000000005,0.7400000000000004,0.3300000000000001,0.3300000000000001,4,2,1,1,5,5,1,1,3,0,15,7,H,0.21400000000000008,0.14800000000000002,0.3300000000000001,0.3300000000000001
10,12,24,1,4,0.4300000000000002,2,5,104,21,101,107,1.2900000000000007,1.1300000000000008,0.4300000000000002,0.26000000000000006,5,2,2,2,9,3,2,2,2,0.5,12,7,H,0.14333333333333337,0.3766666666666668,0.21500000000000002,0.13
10,13,25,1,11,1.0600000000000007,17,18,119,120,26,55,2.3900000000000015,0.2700000000000001,0.45000000000000023,1.490000000000001,19,2,2,4,23,2,2,9,2,0,13,7,H,0.1039130434782609,0.13500000000000004,0.22500000000000003,0.1655555555555556
10,13,26,1,15,0.9000000000000006,14,15,71,70,68,105,1.590000000000001,0.5600000000000003,0.16,2.159999999999998,15,2,1,2,16,3,1,9,4,0.5,14,7,H,0.09937500000000002,0.1866666666666667,0.16,0.24000000000000007
10,14,27,1,6,0.5200000000000002,7,8,57,109,54,88,2.3500000000000014,0.4000000000000002,0.25000000000000006,0.38000000000000017,9,2,1,2,12,2,2,2,4,0,13,7,H,0.19583333333333341,0.20000000000000004,0.125,0.19000000000000003
10,14,28,1,15,0.5500000000000003,4,5,65,63,35,4,1.7900000000000011,0.35000000000000014,0.4400000000000002,0.060000000000000005,6,2,3,1,12,3,5,1,4,0,19,7,H,0.1491666666666667,0.11666666666666668,0.08800000000000001,0.060000000000000005
10,15,29,1,15,0.5600000000000003,2,5,106,66,80,68,1.7600000000000011,0.2800000000000001,1.450000000000001,0.060000000000000005,4,1,2,1,8,1,4,1,4,0,13,7,H,0.22000000000000008,0.2800000000000001,0.36250000000000016,0.060000000000000005
10,15,30,1,14,0.47000000000000025,2,4,43,113,57,86,1.1800000000000006,0.7700000000000005,0.24000000000000007,0.47000000000000025,4,2,1,2,10,9,1,3,5,0,14,7,H,0.11800000000000002,0.08555555555555555,0.24000000000000007,0.15666666666666668
10,16,31,1,4,0.15,2,2,13,66,19,80,11.829999999999796,0.01,0.02,0.01,17,1,1,1,53,1,1,1,2,0,19,7,H,0.2232075471698114,0.01,0.02,0.01
10,16,32,1,12,0.46000000000000024,2,5,50,91,93,10,1.4100000000000008,0.5200000000000002,0.2800000000000001,0.18000000000000002,3,2,2,1,6,5,3,1,3,0,16,7,H,0.2350000000000001,0.104,0.09333333333333332,0.18000000000000002
10,17,33,1,15,0.4000000000000002,2,5,64,45,100,91,1.650000000000001,0.23000000000000007,0.46000000000000024,0.08,4,1,2,1,11,2,6,1,4,0,14,7,H,0.15000000000000002,0.11499999999999999,0.07666666666666667,0.08
10,17,34,1,3,0.4000000000000002,2,4,117,75,30,17,1.4600000000000009,0.7600000000000005,0.13999999999999999,0.5000000000000002,3,2,1,2,5,4,1,3,5,0,16,7,H,0.29200000000000015,0.19000000000000006,0.13999999999999999,0.1666666666666667
10,18,35,1,14,0.47000000000000025,2,4,61,68,47,73,1.4700000000000009,0.7300000000000004,0.21000000000000005,0.5300000000000002,3,3,1,2,5,6,1,2,5,0,16,7,H,0.29400000000000015,0.12166666666666669,0.21000000000000005,0.26500000000000007
10,18,36,1,4,0.4300000000000002,2,7,105,36,13,100,1.4100000000000008,0.7300000000000004,0.35000000000000014,0.12999999999999998,4,2,1,1,11,3,1,1,2,0,15,7,H,0.1281818181818182,0.2433333333333334,0.35000000000000014,0.12999999999999998
10,19,37,1,15,0.45000000000000023,2,3,62,65,91,104,0.9700000000000004,0.9700000000000006,0.3200000000000001,0.24000000000000007,3,3,2,2,4,6,3,2,4,0,13,7,H,0.24250000000000008,0.1616666666666667,0.10666666666666666,0.12000000000000001
10,19,38,1,11,0.6700000000000004,2,4,114,37,47,42,1.730000000000001,0.45000000000000023,0.15,0.3000000000000001,4,2,1,1,8,2,1,1,2,0.5,17,7,H,0.21625000000000005,0.2250000000000001,0.15,0.3000000000000001
10,20,39,1,12,0.5700000000000003,2,4,56,95,27,24,1.9800000000000013,0.060000000000000005,0.8500000000000005,0.22000000000000006,4,1,1,1,11,1,1,1,3,0,18,7,H,0.18000000000000005,0.060000000000000005,0.8500000000000005,0.22000000000000006
10,20,40,1,14,0.4000000000000002,2,3,41,37,82,73,1.530000000000001,0.4100000000000002,0.3000000000000001,0.22000000000000006,4,1,2,1,12,1,2,1,5,0,16,7,H,0.12750000000000003,0.4100000000000002,0.15000000000000005,0.22000000000000006
10,21,41,1,6,0.3900000000000002,1,2,54,46,120,56,1.1000000000000005,0.5800000000000003,0.46000000000000024,0.23000000000000007,3,2,1,1,4,2,1,1,4,0,15,7,H,0.2750000000000001,0.2900000000000001,0.46000000000000024,0.23000000000000007
10,21,42,1,13,0.5900000000000003,2,6,13,23,28,103,1.3700000000000008,0.9400000000000006,0.15,0.2800000000000001,4,2,1,2,12,7,1,2,6,0,19,7,H,0.11416666666666668,0.1342857142857143,0.15,0.14
11,1,1,0,1,0.8600000000000005,2,7,36,54,17,13,2.1200000000000014,3.4099999999999713,2.0899999999999994,2.1699999999999977,4,4,2,2,9,12,11,9,5,0,21,7,H,0.23555555555555566,0.2841666666666668,0.19000000000000006,0.24111111111111122
11,1,2,0,7,0.4000000000000002,2,3,86,89,90,88,1.8300000000000012,3.519999999999969,2.3199999999999945,2.9699999999999807,4,7,4,8,5,10,7,10,3,1,36,7,H,0.36600000000000016,0.35200000000000015,0.33142857142857157,0.2970000000000001
11,2,3,0,2,0.4000000000000002,2,3,77,83,17,20,2.4000000000000017,0.17,4.88999999999994,3.00999999999998,4,1,4,3,8,1,19,9,3,0,18,7,H,0.3000000000000001,0.17,0.2573684210526317,0.3344444444444446
11,2,4,0,5,0.4200000000000002,2,3,1,2,59,60,2.0100000000000016,0.7500000000000004,2.579999999999989,0.25000000000000006,4,2,2,2,5,3,11,3,6,0,20,7,H,0.4020000000000002,0.2500000000000001,0.23454545454545464,0.08333333333333333
11,3,5,0,9,0.5200000000000002,2,4,68,5,7,65,2.5500000000000007,7.899999999999876,0.21000000000000005,5.159999999999934,6,3,1,3,12,23,1,18,4,0,20,7,H,0.21250000000000008,0.3434782608695654,0.21000000000000005,0.2866666666666668
11,3,6,0,6,0.6600000000000004,2,3,51,25,18,55,5.009999999999952,2.6099999999999883,2.9399999999999813,0.8500000000000005,4,2,3,2,11,7,12,6,4,0,19,7,H,0.45545454545454567,0.37285714285714305,0.24500000000000008,0.1416666666666667
11,4,7,0,1,1.2400000000000009,13,14,25,36,12,10,2.860000000000002,0.7700000000000005,52.6199999999981,0.07,15,2,5,2,20,5,138,2,5,0,22,7,H,0.14300000000000004,0.15400000000000005,0.38130434782608713,0.035
11,4,8,0,4,0.46000000000000024,2,4,108,80,100,82,2.8899999999999926,6.169999999999913,2.719999999999986,1.8100000000000014,4,2,3,2,12,21,8,8,2,0,10,7,H,0.24083333333333345,0.2938095238095239,0.34000000000000014,0.2262500000000001
11,5,9,0,9,0.4200000000000002,2,3,61,66,16,22,1.9000000000000012,0.9000000000000006,3.9699999999999593,2.7399999999999856,4,2,2,2,8,3,10,8,4,0,20,7,H,0.2375000000000001,0.3000000000000001,0.3970000000000002,0.34250000000000014
11,5,10,0,6,0.5700000000000003,2,3,60,8,59,2,2.7199999999999984,3.92999999999996,1.390000000000001,2.8799999999999826,4,5,2,2,9,17,6,11,4,0,20,7,H,0.30222222222222234,0.23117647058823537,0.23166666666666674,0.26181818181818195
11,6,11,0,5,0.5800000000000003,2,6,4,104,1,11,3.649999999999979,12.669999999999774,23.10000000000081,0.01,4,3,4,1,20,45,68,1,6,0.5,20,7,H,0.18250000000000005,0.28155555555555567,0.33970588235294136,0.01
11,6,12,0,6,0.6400000000000003,2,3,57,74,84,56,3.359999999999986,2.1899999999999973,2.9799999999999804,1.6300000000000012,5,4,2,2,13,7,5,6,4,0,14,7,H,0.2584615384615386,0.312857142857143,0.5960000000000004,0.2716666666666668
11,7,13,1,4,0.7900000000000005,7,8,98,102,65,104,2.1500000000000012,1.480000000000001,5.409999999999929,0.03,9,2,3,1,14,3,13,1,2,0.5,10,7,H,0.1535714285714286,0.49333333333333357,0.4161538461538464,0.03
11,7,14,1,12,0.5100000000000002,2,5,92,90,91,55,1.8400000000000012,1.5500000000000012,0.4100000000000002,3.1099999999999777,5,2,1,5,13,3,1,16,3,0.5,13,7,H,0.14153846153846156,0.5166666666666669,0.4100000000000002,0.19437500000000008
11,8,15,1,7,1.1300000000000008,15,17,83,80,78,75,2.880000000000002,0.6000000000000003,0.47000000000000025,1.2100000000000009,17,2,1,3,20,3,1,7,3,1,36,7,H,0.14400000000000004,0.20000000000000004,0.47000000000000025,0.1728571428571429
11,8,16,1,12,0.7500000000000004,2,4,92,85,52,4,2.8000000000000007,0.34000000000000014,3.8799999999999613,0.10999999999999999,4,2,2,1,12,3,6,1,3,0,16,7,H,0.23333333333333342,0.11333333333333334,0.6466666666666671,0.10999999999999999
11,9,17,1,14,0.6200000000000003,2,6,42,38,66,62,3.0099999999999936,1.300000000000001,3.46999999999997,0.4300000000000002,7,2,2,1,18,5,6,1,5,0,18,7,H,0.16722222222222227,0.26000000000000006,0.5783333333333337,0.4300000000000002
11,9,18,1,13,0.49000000000000027,7,7,13,20,22,89,3.2399999999999856,0.01,2.0799999999999996,4.119999999999957,9,1,2,2,18,1,9,10,6,0.5,21,7,H,0.18000000000000005,0.01,0.23111111111111118,0.4120000000000002
11,10,19,1,12,0.5000000000000002,2,3,87,42,58,43,3.8199999999999736,3.4899999999999696,1.320000000000001,0.13999999999999999,4,2,2,1,15,10,2,1,3,0,17,7,H,0.25466666666666676,0.3490000000000002,0.6600000000000005,0.13999999999999999
11,10,20,1,7,0.34000000000000014,2,3,75,81,63,4,1.8400000000000012,1.380000000000001,3.289999999999974,0.36000000000000015,4,2,3,2,8,3,18,3,3,0,16,7,H,0.2300000000000001,0.46000000000000024,0.18277777777777784,0.12000000000000004
11,11,21,1,12,0.5500000000000003,2,3,88,99,105,45,2.9199999999999937,9.299999999999846,0.7600000000000005,0.6800000000000004,4,2,1,2,15,29,1,4,3,0,12,7,H,0.19466666666666674,0.32068965517241393,0.7600000000000005,0.17000000000000004
11,11,22,1,11,0.6000000000000003,3,5,116,119,69,71,3.6799999999999784,0.01,2.669999999999987,0.48000000000000026,5,1,2,2,11,1,5,7,2,0,12,7,H,0.3345454545454547,0.01,0.5340000000000004,0.06857142857142857
11,12,23,1,12,0.6900000000000004,2,5,89,59,10,12,2.5900000000000016,2.7899999999999845,1.270000000000001,2.199999999999997,4,2,2,2,13,8,3,10,3,0,19,7,H,0.1992307692307693,0.34875000000000017,0.42333333333333356,0.22000000000000008
11,12,24,1,3,0.45000000000000023,2,3,32,23,74,36,1.670000000000001,7.9699999999998745,0.4100000000000002,0.4400000000000002,4,2,1,2,7,27,1,3,5,0,19,7,H,0.23857142857142866,0.29518518518518533,0.4100000000000002,0.14666666666666667
11,13,25,1,12,0.8200000000000005,2,7,88,98,27,85,5.289999999999949,53.749999999997875,2.629999999999988,0.01,4,6,4,1,21,156,7,1,3,0,13,7,H,0.251904761904762,0.3445512820512822,0.3757142857142859,0.01
11,13,26,1,14,0.6100000000000003,3,4,40,48,56,60,2.5100000000000016,0.8900000000000006,5.879999999999919,0.20000000000000004,5,2,2,2,9,3,15,3,5,0,18,7,H,0.278888888888889,0.2966666666666668,0.3920000000000002,0.06666666666666667
11,14,27,1,7,0.49000000000000027,2,4,75,68,9,45,3.4299999999999815,0.8100000000000005,2.0500000000000003,0.6300000000000003,4,2,2,2,12,3,9,3,3,0,18,7,H,0.28583333333333344,0.2700000000000001,0.22777777777777786,0.21000000000000008
11,14,28,1,11,0.5700000000000003,2,4,116,59,55,18,2.3500000000000014,5.419999999999929,1.6400000000000012,1.350000000000001,4,2,2,2,8,15,6,5,2,0,16,7,H,0.2937500000000001,0.3613333333333335,0.27333333333333343,0.2700000000000001
11,15,29,1,12,0.7600000000000005,2,4,91,13,20,94,2.3900000000000015,3.369999999999972,1.6600000000000013,0.16,5,2,2,1,8,15,5,1,3,0,18,7,H,0.2987500000000002,0.22466666666666676,0.33200000000000013,0.16
11,15,30,1,6,0.7500000000000004,2,4,53,77,79,58,5.539999999999942,19.25000000000021,0.6400000000000003,3.1999999999999758,4,2,2,2,20,60,2,14,4,0,14,7,H,0.27700000000000014,0.32083333333333347,0.3200000000000001,0.22857142857142865
11,16,31,1,13,0.6600000000000004,2,5,14,16,42,50,3.029999999999994,2.0899999999999994,3.1599999999999766,1.360000000000001,4,2,2,3,13,8,8,5,6,0,21,7,H,0.23307692307692318,0.2612500000000001,0.3950000000000002,0.27200000000000013
11,16,32,1,15,0.7200000000000004,5,7,61,62,7,74,3.019999999999995,1.5300000000000011,1.420000000000001,1.9200000000000015,7,2,2,2,18,7,2,7,4,0,17,7,H,0.1677777777777778,0.21857142857142864,0.7100000000000004,0.2742857142857144
11,17,33,1,6,0.4400000000000002,3,4,93,58,31,102,3.5399999999999783,0.08,11.379999999999802,0.13999999999999999,5,1,2,1,15,1,30,1,4,0,14,7,H,0.2360000000000001,0.08,0.3793333333333335,0.13999999999999999
11,17,34,1,10,1.0300000000000007,2,3,3,2,83,79,5.249999999999956,0.5900000000000003,2.759999999999985,0.5000000000000002,4,2,2,2,19,3,8,5,6,0,18,7,H,0.27631578947368435,0.1966666666666667,0.34500000000000014,0.1
11,18,35,1,4,0.4400000000000002,2,4,107,9,72,96,2.370000000000002,1.470000000000001,3.3099999999999734,0.04,4,2,2,1,11,4,10,1,2,0,15,7,H,0.2154545454545455,0.3675000000000002,0.3310000000000001,0.04
11,18,36,1,11,0.5000000000000002,2,3,120,111,47,39,1.7600000000000011,1.6000000000000012,1.9500000000000015,1.1700000000000008,4,2,2,2,7,5,7,6,2,0,14,7,H,0.2514285714285715,0.3200000000000001,0.27857142857142875,0.19500000000000006
11,19,37,1,10,0.3000000000000001,2,2,2,8,10,98,5.239999999999939,0.03,1.5900000000000012,0.9500000000000006,4,1,2,2,15,1,6,5,6,0.5,20,7,H,0.3493333333333335,0.03,0.2650000000000001,0.19000000000000006
11,19,38,1,12,0.7400000000000004,2,7,94,14,23,56,2.580000000000002,1.7500000000000013,0.7200000000000004,2.149999999999998,5,2,2,2,13,7,3,7,3,0,19,7,H,0.19846153846153852,0.2500000000000001,0.24000000000000007,0.3071428571428573
11,20,39,1,3,1.0400000000000007,13,13,27,35,25,90,2.1900000000000013,2.3599999999999937,5.399999999999929,2.3299999999999943,15,2,2,2,16,6,15,8,5,0.5,18,7,H,0.13687500000000002,0.39333333333333353,0.36000000000000015,0.2912500000000001
11,20,40,1,14,0.3100000000000001,2,2,70,107,97,84,9.279999999999854,32.62000000000208,2.5999999999999885,3.7299999999999645,4,4,9,4,23,102,14,8,5,0,11,7,H,0.4034782608695654,0.3198039215686276,0.1857142857142858,0.4662500000000003
12,1,1,0,10,0.4100000000000002,2,6,24,82,17,40,1.0200000000000005,2.010000000000001,0.8800000000000006,0.08,5,2,3,1,10,12,4,1,6,0,20,7,H,0.10200000000000001,0.16750000000000004,0.22000000000000008,0.08
12,1,2,0,4,0.35000000000000014,2,5,102,100,107,27,1.0700000000000005,0.17,0.23000000000000007,0.9600000000000006,4,2,1,2,10,3,1,5,2,0.5,11,7,H,0.10700000000000001,0.05666666666666667,0.23000000000000007,0.19200000000000003
12,2,3,0,6,0.4300000000000002,2,5,59,52,46,39,0.9700000000000004,0.5500000000000003,0.8000000000000005,0.6200000000000003,3,2,2,2,6,3,3,4,4,0,18,7,H,0.1616666666666667,0.18333333333333338,0.2666666666666668,0.15500000000000003
12,2,4,0,2,0.23000000000000007,2,4,14,62,36,20,7.4699999999998905,0.01,0.01,0.01,8,1,1,1,34,1,1,1,3,0,21,7,H,0.21970588235294125,0.01,0.01,0.01
12,3,5,0,6,0.4400000000000002,2,5,21,53,16,102,1.670000000000001,0.10999999999999999,1.0100000000000007,0.12999999999999998,4,1,2,1,10,1,6,1,4,0,18,7,H,0.16700000000000004,0.10999999999999999,0.16833333333333336,0.12999999999999998
12,3,6,0,5,0.2800000000000001,2,4,4,1,80,11,0.6600000000000003,7.899999999999876,0.01,0.8200000000000005,3,8,1,3,5,34,1,3,6,0.5,21,7,H,0.13200000000000003,0.23235294117647068,0.01,0.27333333333333343
12,4,7,0,9,0.17,2,3,13,69,26,74,1.4000000000000008,0.12999999999999998,0.5400000000000003,0.6000000000000003,4,2,2,2,8,3,5,4,4,0,18,7,H,0.17500000000000004,0.043333333333333335,0.108,0.15000000000000002
12,4,8,0,6,0.3900000000000002,2,5,50,54,4,8,1.3000000000000007,0.11999999999999998,2.0500000000000003,0.13999999999999999,4,1,3,1,9,1,12,1,4,0,20,7,H,0.1444444444444445,0.11999999999999998,0.1708333333333334,0.13999999999999999
12,5,9,0,2,0.5100000000000002,5,6,77,78,15,53,0.9600000000000004,0.8400000000000005,0.09,4.87999999999994,7,2,1,3,10,6,1,26,3,0,16,7,H,0.09600000000000002,0.14,0.09,0.18769230769230774
12,5,10,0,9,0.5100000000000002,2,5,71,3,40,6,0.9300000000000004,1.370000000000001,0.46000000000000024,0.35000000000000014,4,2,2,2,7,8,5,3,4,0,21,7,H,0.13285714285714287,0.17125000000000004,0.092,0.11666666666666668
12,6,11,0,6,0.5000000000000002,2,3,50,26,16,32,1.2800000000000007,0.8300000000000005,0.5200000000000002,0.35000000000000014,4,4,2,2,7,9,2,3,4,0,20,7,H,0.18285714285714288,0.09222222222222223,0.26000000000000006,0.11666666666666667
12,6,12,0,5,0.5500000000000003,2,6,5,68,61,42,1.3700000000000008,0.7400000000000004,0.13999999999999999,0.4200000000000002,4,2,1,2,12,8,1,5,6,0,19,7,H,0.11416666666666668,0.09250000000000001,0.13999999999999999,0.084
12,7,13,1,4,0.5400000000000003,6,7,101,98,102,13,1.1400000000000006,0.7000000000000004,0.4400000000000002,0.19000000000000003,8,2,2,1,9,3,4,1,2,0.5,12,7,H,0.1266666666666667,0.23333333333333342,0.11000000000000001,0.19000000000000003
12,7,14,1,6,0.5600000000000003,2,8,53,8,60,25,1.3300000000000007,0.7000000000000004,0.12999999999999998,0.6000000000000003,4,2,1,2,12,2,1,4,4,0,19,7,H,0.11083333333333335,0.35000000000000014,0.12999999999999998,0.15000000000000005
12,8,15,1,10,0.5000000000000002,2,8,8,40,39,3,1.8500000000000012,0.16,0.8300000000000005,0.10999999999999999,4,1,3,2,16,1,7,2,6,0,22,7,H,0.11562500000000003,0.16,0.11857142857142858,0.055
12,8,16,1,4,0.4100000000000002,2,6,101,107,13,26,0.9400000000000004,7.909999999999876,0.2900000000000001,0.01,4,10,2,1,10,40,2,1,2,0,15,7,H,0.09400000000000001,0.19775000000000006,0.14500000000000005,0.01
12,9,17,1,14,0.4100000000000002,2,3,53,48,16,92,1.2500000000000007,0.17,0.8400000000000005,2.399999999999993,4,1,2,2,6,1,6,8,5,0,18,7,H,0.2083333333333334,0.17,0.14,0.30000000000000016
12,9,18,1,7,0.3100000000000001,2,3,78,61,69,26,0.9100000000000004,1.330000000000001,0.45000000000000023,0.16,5,2,2,2,9,13,2,2,3,0,16,7,H,0.10111111111111112,0.10230769230769232,0.2250000000000001,0.07999999999999999
12,10,19,1,12,0.4200000000000002,2,6,93,90,66,42,1.1800000000000006,0.15,1.5200000000000011,0.7700000000000005,4,2,2,2,9,3,9,4,3,0,15,7,H,0.13111111111111115,0.05,0.16888888888888892,0.19250000000000006
12,10,20,1,7,0.5000000000000002,2,7,84,23,26,16,1.620000000000001,0.3900000000000002,0.7700000000000005,4.339999999999952,4,2,2,4,13,2,5,15,3,0,20,7,H,0.12461538461538464,0.19500000000000006,0.15400000000000003,0.28933333333333344
12,11,21,1,11,0.34000000000000014,2,4,116,109,7,31,0.8300000000000004,0.9300000000000006,0.4300000000000002,0.19000000000000003,4,2,2,2,8,7,3,3,2,0,15,7,H,0.10375000000000001,0.1328571428571429,0.14333333333333337,0.06333333333333332
12,11,22,1,12,0.45000000000000023,3,5,95,71,38,21,1.2300000000000006,0.5000000000000002,0.45000000000000023,0.18000000000000002,5,2,2,1,9,3,2,1,3,0,18,7,H,0.1366666666666667,0.1666666666666667,0.22500000000000006,0.18000000000000002
