Subject,Round,Phase,afterbreak,Schema,Schema_RT,Schema_OB,Schema_AS,Cho_1,Cho_2,Cho_3,Cho_4,RT_1,RT_2,RT_3,RT_4,OB_1,OB_2,OB_3,OB_4,AS_1,AS_2,AS_3,AS_4,schema_payoff,AC,performance,breakR,type,dwellmean_1,dwellmean_2,dwellmean_3,dwellmean_4
1,1,1,0,7,0.7600000000000005,2,3,84,39,49,24,7.369999999999904,0.20000000000000004,1.0000000000000007,1.1200000000000008,11,1,4,2,24,1,5,2,6,0,18,7,LH,0.3070833333333335,0.20000000000000004,0.20000000000000007,0.5600000000000004
1,1,2,0,6,1.2500000000000009,2,8,112,9,6,12,6.389999999999936,0.24000000000000007,0.18000000000000002,3.9499999999999598,8,2,1,6,21,2,2,13,6,0.5,38,7,LH,0.30428571428571444,0.12000000000000002,0.09,0.303846153846154
1,2,3,0,10,1.350000000000001,2,9,94,66,95,6,5.999999999999947,0.9800000000000006,0.3300000000000001,2.6499999999999875,7,1,2,8,16,1,2,13,3,0,16,7,LH,0.3750000000000002,0.9800000000000006,0.16500000000000004,0.20384615384615393
1,2,4,0,2,0.7300000000000004,2,4,82,50,19,24,6.729999999999917,0.11999999999999998,0.23000000000000007,1.8700000000000014,10,1,1,4,24,1,1,5,4,0,19,7,LH,0.28041666666666676,0.11999999999999998,0.23000000000000007,0.37400000000000017
1,3,5,0,2,0.46000000000000024,3,5,13,51,106,99,37.42000000000122,0.01,0.15,0.23000000000000007,20,1,1,1,103,1,1,1,4,0,14,7,LH,0.3633009708737865,0.01,0.15,0.23000000000000007
1,3,6,0,10,1.460000000000001,2,8,91,1,6,10,3.949999999999992,1.380000000000001,0.6500000000000004,0.26000000000000006,5,2,3,1,20,2,4,1,3,0.5,39,7,LH,0.19750000000000006,0.6900000000000004,0.16250000000000003,0.26000000000000006
1,4,7,0,5,0.5200000000000002,2,3,43,3,83,80,1.9400000000000013,2.1899999999999973,1.6800000000000013,0.9200000000000006,4,4,3,5,7,7,4,6,5,0,17,7,LH,0.2771428571428573,0.31285714285714294,0.42000000000000026,0.15333333333333338
1,4,8,0,2,1.1000000000000008,2,6,19,53,105,93,4.009999999999983,1.310000000000001,1.0600000000000007,0.13999999999999999,5,4,4,1,13,6,5,1,4,0,15,7,LH,0.3084615384615386,0.2183333333333334,0.21200000000000008,0.13999999999999999
1,5,9,0,9,1.6400000000000012,10,14,2,8,70,93,7.279999999999926,0.09,0.07,0.20000000000000004,17,1,1,1,28,1,1,1,4,0,19,7,LH,0.2600000000000001,0.09,0.07,0.20000000000000004
1,5,10,0,8,0.17,2,3,14,77,52,84,11.6399999999998,0.02,0.01,0.03,12,1,1,1,35,1,1,1,2,0,16,7,LH,0.33257142857142874,0.02,0.01,0.03
1,6,11,0,7,1.7200000000000013,9,13,89,15,105,102,4.259999999999991,3.179999999999976,1.300000000000001,0.7800000000000005,13,4,1,2,22,7,1,2,6,0,13,7,LH,0.1936363636363637,0.4542857142857145,1.300000000000001,0.3900000000000002
1,6,12,0,6,1.420000000000001,2,5,5,8,82,9,5.4899999999999585,1.7400000000000013,1.0400000000000007,1.370000000000001,7,5,3,4,11,5,5,4,6,0.5,39,7,LH,0.49909090909090936,0.34800000000000014,0.20800000000000005,0.34250000000000014
1,7,13,1,5,0.38000000000000017,2,3,103,1,74,42,3.85999999999997,0.4400000000000002,0.6500000000000004,0.3000000000000001,5,1,2,2,20,2,2,3,5,0,16,7,LH,0.19300000000000006,0.22000000000000003,0.3250000000000001,0.09999999999999999
1,7,14,1,9,0.6300000000000003,3,5,68,92,22,94,4.449999999999963,0.9700000000000006,0.7500000000000004,0.20000000000000004,7,2,4,1,23,5,4,1,4,0,16,7,LH,0.1934782608695653,0.19400000000000003,0.18750000000000006,0.20000000000000004
1,8,15,1,8,1.6400000000000012,12,16,115,91,40,20,2.880000000000002,2.3199999999999945,0.2800000000000001,1.0200000000000007,15,3,1,3,21,6,1,4,2,0,16,7,LH,0.13714285714285718,0.3866666666666669,0.2800000000000001,0.2550000000000001
1,8,16,1,4,1.0200000000000007,2,7,98,102,75,10,2.9700000000000024,0.7700000000000005,1.310000000000001,0.36000000000000015,5,1,2,2,15,1,2,2,2,0,13,7,LH,0.19800000000000006,0.7700000000000005,0.6550000000000004,0.18000000000000002
1,9,17,1,2,0.49000000000000027,2,3,108,60,16,107,4.189999999999966,0.46000000000000024,0.9700000000000006,1.1800000000000008,8,2,3,3,12,2,6,3,4,0,14,7,LH,0.34916666666666685,0.23000000000000004,0.1616666666666667,0.39333333333333353
1,9,18,1,8,0.5900000000000003,2,5,8,80,72,39,4.809999999999954,0.5500000000000003,0.3900000000000002,0.34000000000000014,5,2,1,2,15,3,1,2,2,0,18,7,LH,0.3206666666666668,0.18333333333333338,0.3900000000000002,0.17
1,10,19,1,2,0.8000000000000005,5,8,55,82,8,111,2.4600000000000017,2.99999999999998,0.8600000000000005,0.8200000000000005,7,4,2,2,16,11,2,4,4,0,15,7,LH,0.15375000000000005,0.2727272727272728,0.4300000000000002,0.20500000000000007
1,10,20,1,10,0.6600000000000004,3,7,104,91,92,21,3.4699999999999847,1.270000000000001,0.22000000000000006,1.2200000000000009,7,3,1,3,16,4,1,4,3,0,14,7,LH,0.21687500000000007,0.3175000000000001,0.22000000000000006,0.3050000000000001
1,11,21,1,7,1.490000000000001,9,11,83,55,48,14,3.979999999999992,0.5400000000000003,1.310000000000001,2.819999999999984,12,1,2,5,17,1,2,9,6,0,18,7,LH,0.23411764705882362,0.5400000000000003,0.6550000000000005,0.31333333333333346
1,11,22,1,10,0.9100000000000006,2,6,90,12,109,94,5.569999999999945,1.0600000000000007,0.7900000000000005,0.5200000000000002,10,4,1,2,19,5,1,2,3,0,14,7,LH,0.29315789473684223,0.21200000000000008,0.7900000000000005,0.2600000000000001
1,12,23,1,3,0.5000000000000002,2,3,32,93,68,91,3.229999999999986,3.5399999999999685,0.22000000000000006,0.3900000000000002,5,5,1,2,11,11,1,2,5,0,15,7,LH,0.2936363636363638,0.32181818181818195,0.22000000000000006,0.19500000000000006
1,12,24,1,2,1.2400000000000009,3,5,84,49,77,108,5.849999999999947,0.38000000000000017,0.45000000000000023,0.38000000000000017,9,1,1,2,19,1,1,3,4,0,12,7,LH,0.3078947368421054,0.38000000000000017,0.45000000000000023,0.12666666666666668
1,13,25,1,9,0.6700000000000004,2,4,71,12,11,63,2.7300000000000004,0.8400000000000005,0.8100000000000005,0.6300000000000003,5,2,3,2,10,4,4,3,4,0,20,7,LH,0.27300000000000013,0.21000000000000005,0.20250000000000007,0.21000000000000005
1,13,26,1,2,1.2300000000000009,6,9,39,94,57,85,5.529999999999953,0.3900000000000002,0.7600000000000005,0.6900000000000004,10,1,2,2,23,1,5,4,4,0,15,7,LH,0.24043478260869575,0.3900000000000002,0.15200000000000002,0.17250000000000004
1,14,27,1,9,0.6900000000000004,2,4,89,47,46,90,4.699999999999959,0.35000000000000014,0.2700000000000001,0.48000000000000026,6,1,1,2,12,1,1,2,4,0,16,7,LH,0.3916666666666669,0.35000000000000014,0.2700000000000001,0.24000000000000005
1,14,28,1,7,1.0100000000000007,11,12,18,20,78,22,7.959999999999897,0.04,1.310000000000001,0.03,20,1,1,1,32,1,1,1,6,0.5,21,7,LH,0.2487500000000001,0.04,1.310000000000001,0.03
1,15,29,1,1,0.8800000000000006,2,8,76,75,73,81,3.939999999999979,0.47000000000000025,1.1800000000000008,0.36000000000000015,6,1,3,2,22,1,6,3,3,1,36,7,LH,0.17909090909090913,0.47000000000000025,0.19666666666666674,0.12000000000000001
1,15,30,1,8,0.7600000000000005,4,5,120,94,112,85,3.76999999999998,3.00999999999998,0.7900000000000005,0.8800000000000006,7,7,2,3,11,10,2,3,2,0,10,7,LH,0.3427272727272729,0.3010000000000001,0.39500000000000024,0.29333333333333345
1,16,31,1,9,0.5900000000000003,2,5,70,69,91,67,2.709999999999999,0.6400000000000003,2.3599999999999937,0.9100000000000006,5,1,4,2,11,1,6,2,4,0.5,15,7,LH,0.24636363636363645,0.6400000000000003,0.39333333333333353,0.45500000000000024
1,16,32,1,4,0.46000000000000024,5,5,6,25,36,82,7.659999999999891,2.3699999999999934,0.26000000000000006,0.02,11,6,1,1,27,12,1,1,2,0,19,7,LH,0.2837037037037036,0.19750000000000006,0.26000000000000006,0.02
1,17,33,1,3,0.19000000000000003,3,3,88,95,96,1,25.780000000001202,3.099999999999978,1.7400000000000013,4.609999999999946,20,5,5,7,83,5,5,12,5,0.5,15,7,LH,0.31060240963855434,0.6200000000000004,0.3480000000000002,0.3841666666666669
1,17,34,1,5,0.8800000000000006,2,8,44,46,79,51,4.129999999999975,4.079999999999957,0.7500000000000004,0.060000000000000005,6,12,2,1,20,15,4,1,5,0,17,7,LH,0.20650000000000007,0.27200000000000013,0.18750000000000006,0.060000000000000005
1,18,35,1,9,0.5900000000000003,2,4,63,42,3,65,3.5899999999999803,2.439999999999992,2.0899999999999994,0.19000000000000003,5,3,3,1,15,6,5,1,4,0,19,7,LH,0.23933333333333343,0.40666666666666684,0.4180000000000002,0.19000000000000003
1,18,36,1,7,1.490000000000001,17,22,24,18,13,20,2.790000000000002,4.0299999999999585,1.350000000000001,2.9799999999999804,19,4,3,7,27,8,3,9,6,1,72,7,LH,0.10333333333333336,0.5037499999999989,0.45000000000000023,0.33111111111111124
1,19,37,1,3,1.0100000000000007,9,10,36,90,1,10,2.570000000000002,3.0799999999999783,0.21000000000000005,1.500000000000001,11,3,1,3,18,6,1,7,5,0,20,7,LH,0.1427777777777778,0.5133333333333336,0.21000000000000005,0.21428571428571436
1,19,38,1,5,1.7700000000000014,16,20,40,77,24,22,3.4600000000000026,2.7799999999999847,3.8199999999999625,3.049999999999979,18,4,7,6,24,8,16,11,5,0,20,7,LH,0.1441666666666667,0.3475000000000002,0.23875000000000007,0.2772727272727274
1,20,39,1,4,1.0700000000000007,2,6,97,73,62,14,3.5199999999999925,1.5900000000000012,0.5500000000000003,0.5800000000000003,6,3,3,2,14,5,3,3,2,0,15,7,LH,0.2514285714285715,0.31800000000000017,0.18333333333333338,0.19333333333333336
1,20,40,1,10,0.8000000000000005,2,6,7,9,89,2,2.8899999999999997,1.6700000000000013,0.3300000000000001,0.24000000000000007,6,5,1,3,14,6,1,3,3,0.5,21,7,LH,0.20642857142857152,0.2783333333333335,0.3300000000000001,0.07999999999999999
2,1,1,0,10,0.49000000000000027,2,3,95,85,52,117,2.4000000000000017,1.8300000000000014,0.37000000000000016,0.17,5,4,1,2,9,4,1,3,3,0,12,7,LH,0.2666666666666668,0.45750000000000024,0.37000000000000016,0.05666666666666667
2,1,2,0,6,0.5700000000000003,2,3,5,61,44,105,3.2699999999999867,0.7000000000000004,0.5600000000000003,0.49000000000000027,8,1,2,2,10,1,3,2,6,0,17,7,LH,0.3270000000000001,0.7000000000000004,0.1866666666666667,0.24500000000000008
2,2,3,0,8,0.6300000000000003,2,3,117,67,17,118,4.019999999999972,0.6300000000000003,0.49000000000000027,0.07,8,2,2,1,16,2,2,1,2,0,14,7,LH,0.2512500000000001,0.3150000000000001,0.24500000000000008,0.07
2,2,4,0,4,0.5400000000000003,2,5,105,8,26,93,2.7499999999999973,0.6200000000000003,1.5300000000000011,0.10999999999999999,6,2,1,1,10,2,1,1,2,0,16,7,LH,0.27500000000000013,0.3100000000000001,1.5300000000000011,0.10999999999999999
2,3,5,0,7,0.5400000000000003,2,5,101,53,49,17,3.049999999999991,1.0100000000000007,0.5600000000000003,0.19000000000000003,6,3,2,3,11,4,4,3,6,0,16,7,LH,0.2772727272727274,0.2525000000000001,0.14000000000000004,0.06333333333333332
2,3,6,0,8,0.7100000000000004,2,3,114,109,111,110,2.5000000000000018,0.6800000000000004,0.7500000000000004,0.2700000000000001,5,1,2,2,7,1,4,2,2,1,24,7,LH,0.3571428571428573,0.6800000000000004,0.18750000000000006,0.13500000000000004
2,4,7,0,6,0.5800000000000003,2,3,6,5,28,117,2.3600000000000017,8.929999999999854,0.24000000000000007,0.01,6,18,2,1,9,36,2,1,6,0,19,7,LH,0.2622222222222223,0.24805555555555564,0.12000000000000004,0.01
2,4,8,0,5,0.18000000000000002,2,2,14,15,98,21,2.5499999999999936,1.400000000000001,0.5600000000000003,0.35000000000000014,7,5,2,2,9,6,2,2,5,0.5,38,7,LH,0.28333333333333344,0.23333333333333342,0.28000000000000014,0.17500000000000004
2,5,9,0,7,0.8400000000000005,2,6,18,31,25,27,3.629999999999985,0.6800000000000004,1.1900000000000008,0.9000000000000006,6,2,4,2,15,3,4,2,6,0.5,36,7,LH,0.24200000000000008,0.22666666666666674,0.2975000000000001,0.4500000000000003
2,5,10,0,5,0.18000000000000002,2,2,4,37,12,43,8.899999999999858,0.8800000000000006,0.01,0.9800000000000006,17,2,1,3,27,2,1,4,5,0,22,7,LH,0.3296296296296298,0.4400000000000003,0.01,0.2450000000000001
2,6,11,0,7,0.6000000000000003,2,5,20,110,84,76,2.3100000000000014,3.1099999999999777,0.4000000000000002,1.6100000000000012,5,5,1,2,13,7,1,2,6,0,14,7,LH,0.17769230769230776,0.4442857142857145,0.4000000000000002,0.8050000000000005
2,6,12,0,4,1.0000000000000007,2,9,103,10,41,8,3.55999999999999,0.34000000000000014,0.22000000000000006,0.3100000000000001,7,2,1,3,17,2,1,5,2,0,19,7,LH,0.20941176470588244,0.17,0.22000000000000006,0.062
2,7,13,1,10,0.38000000000000017,2,5,86,88,4,118,1.3200000000000007,0.5900000000000003,1.6300000000000012,1.1400000000000008,4,2,5,3,7,2,5,3,3,0,14,7,LH,0.18857142857142867,0.2950000000000001,0.3260000000000001,0.38000000000000017
2,7,14,1,9,0.5100000000000002,3,4,15,37,79,108,9.939999999999843,0.01,0.01,0.01,16,1,1,1,28,1,1,1,4,0,16,7,LH,0.3550000000000002,0.01,0.01,0.01
2,8,15,1,3,0.7400000000000004,3,4,27,14,67,61,2.6700000000000017,0.5900000000000003,0.5300000000000002,0.37000000000000016,6,1,1,1,12,1,1,1,5,0,19,7,LH,0.22250000000000006,0.5900000000000003,0.5300000000000002,0.37000000000000016
2,8,16,1,6,0.6900000000000004,2,4,11,46,58,54,8.80999999999987,0.10999999999999999,0.01,0.5600000000000003,15,2,1,2,30,2,1,2,6,0,19,7,LH,0.2936666666666667,0.05499999999999999,0.01,0.28000000000000014
2,9,17,1,4,0.6100000000000003,3,5,97,67,70,40,3.5499999999999816,0.8700000000000006,0.12999999999999998,0.10999999999999999,9,2,1,1,11,3,1,1,2,0,15,7,LH,0.32272727272727286,0.29000000000000015,0.12999999999999998,0.10999999999999999
2,9,18,1,3,2.8299999999999836,7,10,35,24,36,25,3.1599999999999837,1.6600000000000013,0.3000000000000001,0.11999999999999998,9,6,1,1,12,10,1,1,5,0.5,21,7,LH,0.2633333333333335,0.16600000000000004,0.3000000000000001,0.11999999999999998
2,10,19,1,9,1.0800000000000007,13,16,67,70,69,61,2.3400000000000016,0.8000000000000005,0.9100000000000006,0.12999999999999998,15,4,3,2,18,4,3,2,4,1,48,7,LH,0.13000000000000003,0.20000000000000004,0.30333333333333345,0.065
2,10,20,1,6,1.1200000000000008,4,7,4,2,5,33,2.070000000000001,4.3099999999999525,0.01,0.05,6,7,1,1,11,9,1,1,6,0.5,23,7,LH,0.18818181818181823,0.47888888888888914,0.01,0.05
2,11,21,1,10,0.7900000000000005,2,7,15,94,24,95,2.8100000000000014,0.8900000000000006,0.22000000000000006,0.07,7,3,2,1,12,5,2,1,3,0,18,7,LH,0.23416666666666677,0.17800000000000002,0.11,0.07
2,11,22,1,8,0.8500000000000005,4,5,75,115,79,117,7.689999999999899,1.7600000000000013,1.490000000000001,0.6200000000000003,17,4,4,2,33,4,4,2,2,0,10,7,LH,0.23303030303030312,0.4400000000000002,0.37250000000000016,0.31000000000000016
2,12,23,1,1,0.7200000000000004,2,4,18,80,19,118,2.1000000000000014,0.6100000000000003,0.25000000000000006,0.4100000000000002,5,1,1,1,8,1,1,1,3,0,17,7,LH,0.2625000000000001,0.6100000000000003,0.25000000000000006,0.4100000000000002
2,12,24,1,5,0.8900000000000006,3,7,6,45,11,8,11.979999999999809,0.01,0.01,0.01,17,1,1,1,36,1,1,1,5,0.5,23,7,LH,0.33277777777777795,0.01,0.01,0.01
2,13,25,1,10,0.47000000000000025,2,4,95,93,10,116,1.690000000000001,1.1100000000000008,1.2200000000000009,0.4300000000000002,4,2,2,2,8,4,2,2,3,0,14,7,LH,0.21125000000000008,0.2775000000000001,0.6100000000000003,0.21500000000000008
2,13,26,1,4,1.7500000000000013,2,4,81,22,104,34,4.609999999999984,0.11999999999999998,0.11999999999999998,0.37000000000000016,7,1,1,2,14,1,1,2,2,0,16,7,LH,0.32928571428571446,0.11999999999999998,0.11999999999999998,0.18500000000000003
2,14,27,1,8,1.300000000000001,6,8,90,1,29,71,4.35999999999998,1.8700000000000014,0.01,0.10999999999999999,11,5,1,1,16,6,1,1,2,0,18,7,LH,0.27250000000000013,0.3116666666666668,0.01,0.10999999999999999
2,14,28,1,1,0.3300000000000001,2,3,82,16,99,101,1.580000000000001,1.450000000000001,0.22000000000000006,0.8700000000000006,5,3,1,3,6,6,1,3,3,0,13,7,LH,0.2633333333333334,0.24166666666666675,0.22000000000000006,0.29000000000000015
2,15,29,1,5,0.7200000000000004,2,6,39,42,40,120,2.6300000000000017,1.2100000000000009,0.3900000000000002,0.25000000000000006,7,4,3,1,13,10,4,1,5,0.5,17,7,LH,0.20230769230769238,0.12100000000000001,0.09749999999999999,0.25000000000000006
2,15,30,1,2,0.9900000000000007,3,7,52,30,28,102,2.570000000000002,0.9500000000000006,0.34000000000000014,0.17,6,3,2,1,11,5,5,1,4,0,16,7,LH,0.23363636363636373,0.19000000000000003,0.068,0.17
2,16,31,1,8,0.36000000000000015,2,3,114,65,1,9,2.4200000000000004,0.9600000000000006,0.22000000000000006,0.16,7,3,2,1,11,3,2,1,2,0,18,7,LH,0.22000000000000008,0.3200000000000001,0.11,0.16
2,16,32,1,2,0.6500000000000004,4,5,100,83,57,34,2.6300000000000017,0.36000000000000015,0.34000000000000014,0.17,7,2,2,1,11,2,2,1,4,0,14,7,LH,0.2390909090909092,0.18000000000000002,0.17000000000000004,0.17
2,17,33,1,5,0.9800000000000006,6,9,37,43,88,98,1.4500000000000008,0.7100000000000004,0.8200000000000005,1.6100000000000012,7,1,3,5,10,1,6,7,5,0,15,7,LH,0.14500000000000005,0.7100000000000004,0.13666666666666671,0.2300000000000001
2,17,34,1,9,0.35000000000000014,2,3,66,112,109,30,1.4700000000000009,2.7799999999999847,0.11999999999999998,1.450000000000001,4,4,2,4,5,4,2,4,4,0,13,7,LH,0.29400000000000015,0.6950000000000005,0.06,0.36250000000000016
2,18,35,1,5,0.26000000000000006,3,4,13,46,98,48,6.509999999999911,0.01,0.02,0.01,10,1,1,1,19,1,1,1,5,0,18,7,LH,0.34263157894736856,0.01,0.02,0.01
2,18,36,1,1,0.2900000000000001,3,5,76,58,53,25,0.9700000000000004,1.5500000000000012,1.6700000000000013,0.08,5,5,3,1,7,7,3,1,3,0,16,7,LH,0.13857142857142862,0.2214285714285715,0.5566666666666671,0.08
2,19,37,1,1,0.8500000000000005,4,5,77,63,61,83,2.780000000000002,0.48000000000000026,0.7500000000000004,0.22000000000000006,8,1,4,1,9,1,4,1,3,0,14,7,LH,0.30888888888888905,0.48000000000000026,0.18750000000000006,0.22000000000000006
2,19,38,1,8,4.199999999999955,10,18,112,28,85,11,6.089999999999956,0.5100000000000002,0.4300000000000002,1.390000000000001,15,1,3,3,23,1,3,3,2,0,16,7,LH,0.2647826086956523,0.5100000000000002,0.1433333333333334,0.46333333333333365
2,20,39,1,10,0.6700000000000004,4,7,49,101,34,103,1.580000000000001,0.9600000000000006,0.6800000000000004,0.16,6,2,1,1,10,2,1,1,3,0,13,7,LH,0.15800000000000006,0.48000000000000026,0.6800000000000004,0.16
2,20,40,1,7,1.370000000000001,3,7,45,24,40,19,5.549999999999956,0.46000000000000024,0.01,4.369999999999951,10,4,1,8,16,4,1,10,6,0,22,7,LH,0.34687500000000016,0.11500000000000002,0.01,0.4370000000000002
2,21,41,1,3,0.8600000000000005,2,6,31,80,72,64,2.910000000000001,2.4699999999999913,1.5700000000000012,2.3599999999999937,5,6,4,4,14,7,4,6,5,0,16,7,LH,0.20785714285714293,0.35285714285714304,0.39250000000000024,0.39333333333333353
2,21,42,1,8,7.739999999999879,11,27,16,86,22,87,9.53999999999988,0.09,0.20000000000000004,0.4100000000000002,14,2,1,1,35,2,1,1,2,0,18,7,LH,0.2725714285714281,0.045,0.20000000000000004,0.4100000000000002
3,1,1,0,4,0.7500000000000004,2,5,108,106,17,101,1.540000000000001,0.8000000000000005,0.7900000000000005,0.2800000000000001,4,2,3,2,8,2,5,2,2,0.5,18,7,LH,0.19250000000000006,0.40000000000000024,0.15800000000000003,0.14000000000000004
3,1,2,0,8,0.5600000000000003,2,4,58,84,7,51,3.9699999999999713,0.8700000000000006,0.05,0.18000000000000002,6,3,1,1,17,3,1,1,2,0,17,7,LH,0.23352941176470596,0.2900000000000001,0.05,0.18000000000000002
3,2,3,0,4,0.4100000000000002,2,3,22,46,102,19,3.4999999999999782,0.7500000000000004,0.23000000000000007,0.38000000000000017,6,2,2,2,15,3,2,2,2,0,19,7,LH,0.23333333333333342,0.25000000000000006,0.11500000000000002,0.19000000000000003
3,2,4,0,3,0.5600000000000003,2,4,36,6,57,27,2.7799999999999967,1.2100000000000009,0.2700000000000001,0.12999999999999998,6,3,1,3,13,4,1,3,5,0,20,7,LH,0.21384615384615394,0.30250000000000016,0.2700000000000001,0.043333333333333335
3,3,5,0,9,0.5600000000000003,3,5,72,37,9,79,1.4400000000000008,1.5800000000000012,0.5700000000000003,0.21000000000000005,5,3,2,1,7,3,5,1,4,0,18,7,LH,0.2057142857142858,0.526666666666667,0.114,0.21000000000000005
3,3,6,0,3,0.48000000000000026,2,3,33,85,53,13,2.1500000000000017,2.07,0.13999999999999999,0.36000000000000015,5,3,1,1,8,6,1,1,5,0,18,7,LH,0.2687500000000001,0.34500000000000014,0.13999999999999999,0.36000000000000015
3,4,7,0,8,0.46000000000000024,2,3,119,62,88,9,3.4099999999999815,0.6800000000000004,0.09999999999999999,0.05,5,3,1,1,15,4,1,1,2,0,15,7,LH,0.22733333333333341,0.17000000000000004,0.09999999999999999,0.05
3,4,8,0,4,0.7500000000000004,5,8,106,97,18,20,2.1600000000000015,0.4400000000000002,0.9300000000000006,3.519999999999969,7,2,2,5,13,2,5,11,2,0,16,7,LH,0.1661538461538462,0.22000000000000006,0.18600000000000003,0.3200000000000001
3,5,9,0,7,0.6100000000000003,2,7,21,18,45,14,3.4199999999999844,6.529999999999905,0.7400000000000004,0.01,6,10,3,1,17,20,3,1,6,0.5,41,7,LH,0.20117647058823537,0.3265000000000002,0.24666666666666676,0.01
3,5,10,0,3,0.9600000000000006,2,5,93,59,31,111,3.97999999999998,0.38000000000000017,0.11999999999999998,0.34000000000000014,6,1,1,1,15,1,1,1,5,0,14,7,LH,0.2653333333333334,0.38000000000000017,0.11999999999999998,0.34000000000000014
3,6,11,0,1,1.7000000000000013,6,9,76,74,108,28,3.889999999999999,0.5400000000000003,0.20000000000000004,0.20000000000000004,9,2,2,1,14,4,2,1,3,0,13,7,LH,0.27785714285714297,0.135,0.10000000000000002,0.20000000000000004
3,6,12,0,8,0.7300000000000004,2,4,49,87,17,111,2.1600000000000015,1.8000000000000014,0.6700000000000004,0.25000000000000006,4,3,2,2,7,7,2,3,2,0,15,7,LH,0.3085714285714287,0.25714285714285723,0.33500000000000013,0.08333333333333333
3,7,13,1,1,1.270000000000001,3,8,78,50,97,12,3.509999999999997,0.8800000000000006,0.13999999999999999,0.18000000000000002,8,2,1,1,18,5,1,1,3,0,15,7,LH,0.19500000000000006,0.17600000000000005,0.13999999999999999,0.18000000000000002
3,7,14,1,3,0.48000000000000026,2,2,18,32,92,63,13.35999999999977,0.02,0.01,0.01,18,1,1,1,47,1,1,1,5,0,18,7,LH,0.2842553191489363,0.02,0.01,0.01
3,8,15,1,5,0.4200000000000002,2,3,40,20,47,63,1.4400000000000008,1.9400000000000015,0.24000000000000007,0.20000000000000004,4,3,2,1,5,4,2,2,5,0,20,7,LH,0.2880000000000001,0.48500000000000026,0.11999999999999998,0.1
3,8,16,1,4,1.5600000000000012,5,12,100,8,26,5,3.2800000000000025,0.4400000000000002,0.9800000000000006,1.7900000000000014,8,2,2,4,18,2,5,4,2,0,19,7,LH,0.18222222222222226,0.22000000000000008,0.19600000000000004,0.44750000000000023
3,9,17,1,10,0.7900000000000005,2,4,46,48,1,85,3.6999999999999824,1.0700000000000007,0.02,0.7600000000000005,8,1,1,2,12,3,1,2,3,0,19,7,LH,0.30833333333333346,0.3566666666666668,0.02,0.3800000000000002
3,9,18,1,2,0.5800000000000003,3,4,55,98,80,14,1.9800000000000013,1.5600000000000012,0.5300000000000002,0.5100000000000002,5,2,1,2,10,4,1,3,4,0,15,7,LH,0.19800000000000006,0.3900000000000002,0.5300000000000002,0.17
3,10,19,1,3,0.7900000000000005,3,5,34,30,49,3,1.730000000000001,0.7300000000000004,1.9300000000000015,0.18000000000000002,4,1,4,2,6,1,9,2,5,0,20,7,LH,0.28833333333333344,0.7300000000000004,0.2144444444444445,0.09
3,10,20,1,9,1.0100000000000007,6,9,69,84,21,106,1.9900000000000013,0.6600000000000004,0.37000000000000016,0.8100000000000005,8,2,2,2,11,2,3,3,4,0,15,7,LH,0.18090909090909096,0.3300000000000002,0.12333333333333335,0.2700000000000001
3,11,21,1,4,0.6300000000000003,3,6,107,21,105,37,1.9600000000000013,0.7300000000000004,0.21000000000000005,0.2700000000000001,5,2,1,1,15,2,1,1,2,0,15,7,LH,0.13066666666666668,0.36500000000000016,0.21000000000000005,0.2700000000000001
3,11,22,1,8,0.4000000000000002,3,3,3,82,77,114,24.730000000001002,0.01,0.01,0.01,20,1,1,1,73,1,1,1,2,0,14,7,LH,0.33876712328767133,0.01,0.01,0.01
3,12,23,1,10,1.420000000000001,2,4,89,59,100,52,4.249999999999985,0.19000000000000003,0.07,0.34000000000000014,6,1,1,1,11,1,1,1,3,0,13,7,LH,0.3863636363636366,0.19000000000000003,0.07,0.34000000000000014
3,12,24,1,9,0.6200000000000003,4,7,72,67,65,34,2.530000000000002,0.35000000000000014,0.4200000000000002,1.1000000000000008,8,1,2,3,15,1,2,4,4,0.5,17,7,LH,0.16866666666666671,0.35000000000000014,0.21000000000000005,0.27500000000000013
3,13,25,1,6,0.16,2,3,5,100,47,108,1.4300000000000008,0.47000000000000025,0.47000000000000025,2.099999999999999,6,1,2,4,9,1,3,4,6,0,15,7,LH,0.15888888888888894,0.47000000000000025,0.15666666666666668,0.5250000000000004
3,13,26,1,7,0.3300000000000001,2,3,14,24,76,74,1.7800000000000011,0.7200000000000004,0.2900000000000001,0.5500000000000003,5,2,1,3,9,4,1,3,6,0,18,7,LH,0.19777777777777783,0.18000000000000005,0.2900000000000001,0.18333333333333338
3,14,27,1,10,0.5500000000000003,2,6,90,93,102,101,2.520000000000002,0.10999999999999999,1.5100000000000011,0.9100000000000006,6,1,2,2,15,1,2,2,3,0,10,7,LH,0.16800000000000004,0.10999999999999999,0.7550000000000004,0.4550000000000003
3,14,28,1,8,1.6500000000000012,3,10,76,43,82,113,5.059999999999972,0.07,0.25000000000000006,0.36000000000000015,10,1,2,1,26,1,2,1,2,0,13,7,LH,0.1946153846153847,0.07,0.12500000000000003,0.36000000000000015
3,15,29,1,8,1.0300000000000007,11,14,63,70,43,72,3.449999999999993,0.2800000000000001,0.6200000000000003,0.060000000000000005,14,2,2,1,25,2,2,1,2,0.5,17,7,LH,0.13800000000000004,0.14,0.3100000000000001,0.060000000000000005
3,15,30,1,2,0.47000000000000025,2,5,60,19,74,78,1.3100000000000007,0.9600000000000006,0.6100000000000003,0.24000000000000007,4,2,2,1,8,3,3,1,4,0,16,7,LH,0.16375000000000006,0.3200000000000001,0.2033333333333334,0.24000000000000007
3,16,31,1,10,0.7300000000000004,3,6,57,117,51,94,3.8199999999999785,0.3200000000000001,0.45000000000000023,0.8900000000000006,11,2,3,3,15,3,3,3,3,0,13,7,LH,0.25466666666666676,0.10666666666666666,0.15000000000000002,0.2966666666666668
3,16,32,1,9,0.7200000000000004,2,5,63,71,72,73,1.7900000000000011,1.330000000000001,0.2900000000000001,0.7400000000000004,3,3,2,2,6,5,2,2,4,0.5,15,7,LH,0.29833333333333345,0.26600000000000007,0.14500000000000005,0.37000000000000016
3,17,33,1,2,0.6900000000000004,2,4,50,15,58,20,3.4599999999999853,0.7600000000000005,0.19000000000000003,0.02,9,4,2,1,11,4,3,1,4,0,20,7,LH,0.3145454545454547,0.19000000000000006,0.06333333333333334,0.02
3,17,34,1,10,0.5300000000000002,2,5,88,94,119,109,1.720000000000001,0.46000000000000024,0.8200000000000005,0.5500000000000003,4,1,2,2,11,1,2,3,3,0,10,7,LH,0.1563636363636364,0.46000000000000024,0.4100000000000002,0.18333333333333335
3,18,35,1,1,0.5500000000000003,3,5,79,68,66,29,2.0200000000000014,0.6000000000000003,1.1800000000000008,1.1900000000000008,5,3,2,2,9,3,2,2,3,0,16,7,LH,0.22444444444444453,0.20000000000000004,0.5900000000000003,0.5950000000000004
3,18,36,1,6,0.6200000000000003,2,3,112,120,58,7,2.2200000000000015,0.8400000000000005,0.26000000000000006,0.7700000000000005,5,2,1,3,6,5,1,4,6,0,14,7,LH,0.37000000000000016,0.16800000000000004,0.26000000000000006,0.19250000000000006
3,19,37,1,7,0.5400000000000003,2,6,53,23,21,60,3.149999999999989,0.22000000000000006,7.949999999999875,0.47000000000000025,8,1,12,5,16,1,30,5,6,0,20,7,LH,0.19687500000000005,0.22000000000000006,0.2650000000000001,0.09400000000000001
3,19,38,1,6,0.4000000000000002,2,3,7,71,5,109,1.9800000000000013,2.9899999999999802,0.05,3.899999999999961,6,6,1,8,9,10,1,11,6,0,18,7,LH,0.22000000000000008,0.29900000000000015,0.05,0.3545454545454548
3,20,39,1,4,0.37000000000000016,2,3,105,100,107,22,1.8300000000000012,0.4000000000000002,0.5600000000000003,0.6100000000000003,5,1,3,4,8,1,3,4,2,0.5,12,7,LH,0.2287500000000001,0.4000000000000002,0.1866666666666667,0.15250000000000002
3,20,40,1,1,0.5500000000000003,2,8,78,58,76,75,1.740000000000001,1.320000000000001,0.10999999999999999,0.22000000000000006,4,2,1,3,12,2,1,4,3,0.5,13,7,LH,0.14500000000000005,0.6600000000000005,0.10999999999999999,0.05499999999999999
3,21,41,1,5,0.3100000000000001,2,3,45,114,5,7,1.580000000000001,2.020000000000001,1.6200000000000012,0.04,5,6,2,1,7,8,4,1,5,0,19,7,LH,0.2257142857142858,0.2525000000000001,0.40500000000000025,0.04
3,21,42,1,1,1.0300000000000007,2,8,79,57,77,15,3.2999999999999963,0.7500000000000004,0.20000000000000004,0.17,5,2,1,1,16,4,1,1,3,0,16,7,LH,0.20625000000000007,0.18750000000000006,0.20000000000000004,0.17
4,1,1,0,7,1.1500000000000008,2,7,52,17,13,85,7.889999999999901,0.05,1.0000000000000007,0.13999999999999999,7,1,3,1,19,1,6,1,6,0,19,7,LH,0.41526315789473656,0.05,0.1666666666666667,0.13999999999999999
4,1,2,0,8,0.6400000000000003,2,5,119,74,62,82,2.3400000000000016,4.849999999999941,0.26000000000000006,0.6200000000000003,4,5,1,1,7,10,1,1,2,0,12,7,LH,0.33428571428571446,0.48500000000000026,0.26000000000000006,0.6200000000000003
4,2,3,0,7,0.5600000000000003,2,3,24,17,19,18,2.490000000000002,1.7600000000000013,0.4400000000000002,12.689999999999774,4,4,1,11,5,5,1,20,6,1,72,7,LH,0.4980000000000003,0.35200000000000015,0.4400000000000002,0.6345000000000004
4,2,4,0,5,1.380000000000001,2,6,38,7,8,9,2.4300000000000015,4.289999999999953,1.0700000000000007,0.3200000000000001,4,4,2,1,8,11,2,1,5,0.5,41,7,LH,0.30375000000000013,0.3900000000000002,0.5350000000000003,0.3200000000000001
4,3,5,0,10,0.15,2,2,13,47,16,118,14.399999999999741,0.05,0.01,0.02,12,1,1,1,31,1,1,1,3,0,19,7,LH,0.4645161290322582,0.05,0.01,0.02
4,3,6,0,3,0.8100000000000005,3,5,35,76,84,32,4.839999999999959,0.37000000000000016,0.2700000000000001,0.22000000000000006,5,1,1,2,18,1,1,2,5,0,16,7,LH,0.268888888888889,0.37000000000000016,0.2700000000000001,0.11
4,4,7,0,5,0.5500000000000003,2,3,48,16,90,112,2.849999999999995,3.509999999999969,0.26000000000000006,3.2199999999999753,5,5,1,4,7,7,1,5,5,0,16,7,LH,0.40714285714285736,0.5014285714285717,0.26000000000000006,0.6439999999999981
4,4,8,0,9,0.5600000000000003,2,3,72,27,26,9,2.570000000000001,3.329999999999973,1.7100000000000013,0.7500000000000004,5,2,1,3,7,6,1,3,4,0,20,7,LH,0.3671428571428573,0.5550000000000004,1.7100000000000013,0.2500000000000001
4,5,9,0,6,1.0100000000000007,2,10,7,65,37,5,2.6300000000000017,1.6900000000000013,3.419999999999971,1.410000000000001,4,3,4,3,12,5,5,3,6,0,21,7,LH,0.21916666666666676,0.33800000000000013,0.6840000000000004,0.47000000000000025
4,5,10,0,4,0.7000000000000004,3,6,100,108,106,19,2.3900000000000015,0.9600000000000006,1.0900000000000007,0.37000000000000016,6,2,3,1,10,2,4,2,2,0.5,18,7,LH,0.2390000000000001,0.48000000000000026,0.27250000000000013,0.18500000000000003
4,6,11,0,8,0.4300000000000002,2,3,113,111,44,116,4.5799999999999566,4.609999999999946,0.6000000000000003,4.139999999999956,10,6,4,7,11,7,4,7,2,0.5,17,7,LH,0.4163636363636366,0.658571428571429,0.15000000000000005,0.5914285714285717
4,6,12,0,6,0.7300000000000004,2,3,98,66,31,12,6.149999999999929,1.6100000000000012,0.5400000000000003,0.7600000000000005,7,2,2,2,11,2,2,2,6,0,17,7,LH,0.5590909090909094,0.8050000000000006,0.27000000000000013,0.3800000000000002
4,7,13,1,4,0.5200000000000002,2,4,107,104,105,84,2.490000000000002,1.2100000000000009,1.460000000000001,1.490000000000001,5,2,3,2,11,2,5,3,2,0.5,9,7,LH,0.22636363636363646,0.6050000000000003,0.2920000000000001,0.4966666666666669
4,7,14,1,7,0.46000000000000024,2,3,114,30,33,20,4.859999999999951,0.6300000000000003,0.3000000000000001,1.350000000000001,6,2,1,2,8,2,1,2,6,0,18,7,LH,0.6075000000000004,0.3150000000000001,0.3000000000000001,0.6750000000000005
4,8,15,1,5,0.8600000000000005,2,4,40,15,75,79,2.0800000000000014,3.4399999999999706,0.5200000000000002,0.38000000000000017,4,4,2,1,6,7,2,1,5,0,17,7,LH,0.34666666666666685,0.49142857142857177,0.26000000000000006,0.38000000000000017
4,8,16,1,10,0.48000000000000026,2,3,103,11,88,35,5.579999999999936,0.7500000000000004,0.09999999999999999,0.08,7,1,1,1,13,1,1,1,3,0,16,7,LH,0.42923076923076947,0.7500000000000004,0.09999999999999999,0.08
4,9,17,1,5,0.2700000000000001,2,3,40,45,15,18,1.540000000000001,1.8300000000000014,2.759999999999985,1.1000000000000008,5,2,3,3,7,8,3,3,5,0,22,7,LH,0.22000000000000008,0.22875000000000006,0.9200000000000006,0.36666666666666686
4,9,18,1,4,0.5600000000000003,2,3,12,93,69,3,6.619999999999916,0.07,0.3000000000000001,1.260000000000001,7,1,2,2,10,1,2,3,2,0,19,7,LH,0.6619999999999999,0.07,0.15000000000000002,0.42000000000000026
4,10,19,1,7,1.300000000000001,2,4,22,19,63,96,3.0400000000000023,2.159999999999998,7.769999999999879,0.7500000000000004,4,3,8,2,6,6,13,2,6,0,19,7,LH,0.5066666666666669,0.36000000000000015,0.5976923076923081,0.3750000000000002
4,10,20,1,8,0.6100000000000003,2,5,115,57,109,25,2.650000000000001,4.42999999999995,0.12999999999999998,2.099999999999999,4,5,1,6,7,6,1,6,2,0,13,7,LH,0.3785714285714288,0.7383333333333322,0.12999999999999998,0.35000000000000014
4,11,21,1,7,0.6900000000000004,2,3,18,108,62,37,2.600000000000002,3.2999999999999736,2.7899999999999845,0.6800000000000004,4,6,4,2,5,9,6,2,6,0,17,7,LH,0.5200000000000004,0.3666666666666668,0.4650000000000003,0.3400000000000002
4,11,22,1,3,0.45000000000000023,2,5,33,86,31,90,1.690000000000001,3.0299999999999794,0.47000000000000025,1.7700000000000014,4,3,3,2,7,5,4,2,5,0,16,7,LH,0.24142857142857155,0.6060000000000003,0.1175,0.8850000000000006
4,12,23,1,2,0.3200000000000001,2,3,115,118,52,87,2.3000000000000016,0.5400000000000003,1.350000000000001,1.470000000000001,4,1,2,2,9,2,2,3,4,0,11,7,LH,0.25555555555555565,0.2700000000000001,0.6750000000000004,0.49000000000000027
4,12,24,1,6,6.729999999999901,4,11,8,62,63,47,18.889999999999688,0.01,0.02,0.01,14,1,1,1,37,1,1,1,6,0,19,7,LH,0.5105405405405405,0.01,0.02,0.01
4,13,25,1,1,0.3200000000000001,2,3,54,36,57,21,4.5499999999999545,1.8900000000000015,0.23000000000000007,0.16,5,3,2,1,12,4,2,1,3,0,19,7,LH,0.3791666666666669,0.47250000000000025,0.11500000000000002,0.16
4,13,26,1,10,0.18000000000000002,2,2,1,90,114,113,12.149999999999789,0.01,0.01,0.01,12,1,1,1,23,1,1,1,3,0,13,7,LH,0.5282608695652171,0.01,0.01,0.01
4,14,27,1,9,0.4400000000000002,2,4,65,12,66,114,1.9100000000000013,2.53999999999999,0.26000000000000006,0.19000000000000003,4,4,1,1,6,6,1,1,4,0,16,7,LH,0.3183333333333335,0.4233333333333335,0.26000000000000006,0.19000000000000003
4,14,28,1,2,1.0500000000000007,5,7,36,21,104,19,3.5899999999999905,2.479999999999991,0.7800000000000005,0.4300000000000002,7,3,2,2,9,4,6,2,4,0,19,7,LH,0.3988888888888891,0.6200000000000003,0.13,0.21500000000000008
4,15,29,1,9,0.49000000000000027,2,4,67,63,93,91,2.3200000000000016,9.509999999999842,0.16,0.08,4,8,1,2,8,19,1,3,4,0,14,7,LH,0.29000000000000015,0.5005263157894739,0.16,0.02666666666666667
4,15,30,1,4,1.0100000000000007,2,5,102,57,100,52,2.6300000000000017,1.5600000000000012,0.5800000000000003,0.3200000000000001,4,2,1,1,8,3,1,1,2,0,12,7,LH,0.32875000000000015,0.5200000000000002,0.5800000000000003,0.3200000000000001
4,16,31,1,7,0.3300000000000001,2,3,20,91,18,105,2.9799999999999875,2.9299999999999815,1.2300000000000009,0.2900000000000001,5,4,3,1,9,5,3,1,6,0,17,7,LH,0.33111111111111124,0.5860000000000003,0.41000000000000025,0.2900000000000001
4,16,32,1,3,0.10999999999999999,2,3,1,31,116,35,12.97999999999977,0.01,1.440000000000001,0.01,13,1,2,1,20,1,2,1,5,0,18,7,LH,0.6490000000000002,0.01,0.7200000000000005,0.01
4,17,33,1,3,0.5100000000000002,6,7,6,105,36,31,8.929999999999865,0.10999999999999999,0.07,1.1300000000000008,14,1,2,4,22,1,2,6,5,0,18,7,LH,0.40590909090909116,0.10999999999999999,0.035,0.1883333333333334
4,17,34,1,7,5.2499999999999325,4,11,14,75,16,19,7.409999999999931,0.7000000000000004,0.5800000000000003,0.7200000000000004,6,2,1,2,15,4,1,3,6,0.5,21,7,LH,0.4940000000000002,0.17500000000000004,0.5800000000000003,0.24000000000000005
4,18,35,1,5,1.1200000000000008,2,5,71,102,87,7,5.009999999999962,0.6700000000000004,1.2300000000000009,0.060000000000000005,6,2,2,1,9,2,5,1,5,0,15,7,LH,0.556666666666667,0.33500000000000013,0.24600000000000005,0.060000000000000005
4,18,36,1,2,0.6300000000000003,2,5,78,51,77,114,3.449999999999984,0.37000000000000016,0.22000000000000006,0.4100000000000002,6,2,1,1,12,3,1,1,4,0,12,7,LH,0.28750000000000014,0.12333333333333334,0.22000000000000006,0.4100000000000002
4,19,37,1,2,0.4100000000000002,2,3,10,5,49,104,4.279999999999962,1.310000000000001,0.09999999999999999,0.18000000000000002,7,2,1,1,9,6,1,1,4,0,18,7,LH,0.47555555555555584,0.21833333333333343,0.09999999999999999,0.18000000000000002
4,19,38,1,3,2.1199999999999988,5,7,71,117,62,28,4.0600000000000005,3.419999999999971,6.4699999999999065,0.5700000000000003,9,6,8,2,13,6,15,2,5,0,15,7,LH,0.31230769230769245,0.5700000000000003,0.43133333333333357,0.28500000000000014
4,20,39,1,6,0.4300000000000002,2,5,8,10,6,65,2.350000000000002,0.4200000000000002,1.380000000000001,0.9000000000000006,4,1,3,2,10,1,4,3,6,0.5,22,7,LH,0.23500000000000007,0.4200000000000002,0.34500000000000014,0.30000000000000016
4,20,40,1,8,0.5700000000000003,2,4,76,110,74,83,4.039999999999971,0.9500000000000006,0.47000000000000025,1.2200000000000009,6,2,2,4,8,3,3,4,2,0.5,11,7,LH,0.5050000000000003,0.3166666666666668,0.1566666666666667,0.3050000000000001
4,21,41,1,9,1.1100000000000008,3,11,71,63,6,27,3.2899999999999983,0.7200000000000004,0.25000000000000006,2.4699999999999913,5,2,1,4,14,2,1,7,4,0,19,7,LH,0.2350000000000001,0.36000000000000015,0.25000000000000006,0.352857142857143
4,21,42,1,10,2.6999999999999864,4,6,46,45,41,93,4.689999999999988,0.7100000000000004,0.6500000000000004,5.83999999999992,6,2,2,6,8,2,2,6,3,0.5,18,7,LH,0.5862500000000004,0.35500000000000015,0.3250000000000001,0.9733333333333295
5,1,1,0,10,0.25000000000000006,2,3,93,18,19,95,2.9499999999999864,1.2400000000000009,0.8200000000000005,0.9400000000000006,4,3,2,2,11,6,3,2,3,0,18,7,LH,0.2681818181818183,0.20666666666666675,0.27333333333333343,0.47000000000000025
5,1,2,0,5,0.26000000000000006,2,4,46,113,57,56,2.4099999999999984,2.109999999999999,1.8600000000000014,1.9900000000000015,5,3,2,2,8,6,3,2,5,0,15,7,LH,0.30125000000000013,0.3516666666666668,0.6200000000000003,0.9950000000000008
5,2,3,0,8,0.15,1,2,120,2,115,9,3.9799999999999622,0.16,0.4200000000000002,3.4999999999999694,3,1,2,3,14,1,3,5,2,0,16,7,LH,0.2842857142857144,0.16,0.14,0.7000000000000004
5,2,4,0,5,0.24000000000000007,2,3,46,19,44,13,2.5699999999999945,1.500000000000001,1.1600000000000008,0.18000000000000002,5,3,7,2,7,5,7,2,5,0,22,7,LH,0.3671428571428573,0.3000000000000001,0.16571428571428576,0.09
5,3,5,0,8,0.36000000000000015,2,3,109,2,47,44,2.1900000000000017,0.9700000000000006,1.0700000000000007,0.8000000000000005,4,2,1,1,7,2,1,2,2,0,18,7,LH,0.312857142857143,0.48500000000000026,1.0700000000000007,0.40000000000000024
5,3,6,0,7,0.6000000000000003,10,10,15,23,34,19,2.7899999999999974,0.3300000000000001,3.509999999999969,5.909999999999918,12,1,3,4,14,1,6,10,6,0.5,41,7,LH,0.19928571428571437,0.3300000000000001,0.5850000000000003,0.5910000000000003
5,4,7,0,3,0.2900000000000001,2,3,27,26,111,25,2.4699999999999975,0.5000000000000002,0.5400000000000003,2.1399999999999983,4,1,1,3,8,1,1,3,5,0.5,32,7,LH,0.30875000000000014,0.5000000000000002,0.5400000000000003,0.7133333333333338
5,4,8,0,4,0.23000000000000007,2,4,108,101,14,38,1.650000000000001,0.8200000000000005,0.6000000000000003,2.859999999999983,4,1,1,4,6,1,1,4,2,0,15,7,LH,0.27500000000000013,0.8200000000000005,0.6000000000000003,0.7150000000000004
5,5,9,0,2,0.37000000000000016,2,3,51,49,34,93,2.43,0.6200000000000003,1.5800000000000012,0.8500000000000005,4,2,2,2,8,3,4,3,4,0,16,7,LH,0.30375000000000013,0.20666666666666672,0.39500000000000024,0.28333333333333344
5,5,10,0,6,0.37000000000000016,3,4,7,12,10,11,3.089999999999986,0.4000000000000002,3.559999999999968,3.709999999999965,5,1,4,5,10,1,4,8,6,1,72,7,LH,0.30900000000000016,0.4000000000000002,0.8899999999999989,0.4637500000000003
5,6,11,0,9,0.20000000000000004,2,3,68,116,120,119,1.9400000000000013,3.429999999999971,0.5000000000000002,0.9200000000000006,5,2,1,2,9,10,1,9,4,0.5,16,7,LH,0.21555555555555564,0.34300000000000014,0.5000000000000002,0.10222222222222223
5,6,12,0,4,0.23000000000000007,2,3,102,105,28,17,2.0000000000000013,0.7900000000000005,0.8100000000000005,1.0400000000000007,4,1,2,1,6,1,3,1,2,0,15,7,LH,0.3333333333333335,0.7900000000000005,0.27000000000000013,1.0400000000000007
5,7,13,1,3,0.3100000000000001,2,3,31,71,29,68,3.739999999999971,2.0799999999999996,0.10999999999999999,0.9600000000000006,5,4,1,2,7,5,1,2,5,0,18,7,LH,0.5342857142857146,0.4160000000000002,0.10999999999999999,0.48000000000000026
5,7,14,1,5,0.17,2,3,38,48,50,54,2.7699999999999885,1.5500000000000012,1.8500000000000014,0.7800000000000005,4,6,3,2,5,8,5,3,5,0,18,7,LH,0.5539999999999995,0.19375000000000006,0.3700000000000002,0.26000000000000006
5,8,15,1,2,0.3300000000000001,2,4,58,17,108,34,4.169999999999963,0.35000000000000014,1.2400000000000009,1.0500000000000007,4,2,2,2,10,2,5,4,4,0,17,7,LH,0.41700000000000026,0.17500000000000004,0.24800000000000008,0.2625000000000001
5,8,16,1,8,0.3000000000000001,4,5,116,93,89,62,3.2299999999999818,3.089999999999978,1.300000000000001,0.03,7,2,3,1,12,6,4,1,2,0,12,7,LH,0.2691666666666668,0.5150000000000003,0.3250000000000001,0.03
5,9,17,1,8,0.5000000000000002,5,6,109,51,79,110,2.8399999999999945,4.129999999999956,0.7100000000000004,0.24000000000000007,7,2,2,1,11,4,2,1,2,0,11,7,LH,0.2581818181818183,1.0324999999999969,0.35500000000000015,0.24000000000000007
5,9,18,1,6,0.22000000000000006,3,4,11,8,2,67,2.1400000000000015,0.9000000000000006,13.739999999999752,0.09,5,2,14,2,7,3,21,2,6,0.5,22,7,LH,0.3057142857142859,0.3000000000000001,0.6542857142857147,0.045
5,10,19,1,4,0.12999999999999998,2,3,106,101,102,104,1.540000000000001,1.1100000000000008,0.25000000000000006,0.5200000000000002,4,3,1,3,5,4,1,3,2,1,24,7,LH,0.30800000000000016,0.2775000000000001,0.25000000000000006,0.1733333333333334
5,10,20,1,8,0.25000000000000006,1,2,115,61,113,12,2.729999999999991,1.6600000000000013,0.25000000000000006,0.9600000000000006,3,3,2,2,8,6,2,4,2,0,14,7,LH,0.34125000000000016,0.2766666666666668,0.12500000000000003,0.2400000000000001
5,11,21,1,1,0.19000000000000003,2,3,84,74,24,16,2.389999999999997,2.7299999999999858,0.12999999999999998,1.9000000000000015,4,3,1,3,9,6,1,3,3,0,18,7,LH,0.26555555555555566,0.4550000000000003,0.12999999999999998,0.6333333333333337
5,11,22,1,5,0.24000000000000007,2,3,38,2,12,39,2.3699999999999988,1.6900000000000013,1.490000000000001,0.26000000000000006,5,4,2,2,7,7,3,2,5,0,22,7,LH,0.33857142857142875,0.2414285714285715,0.4966666666666669,0.13
5,12,23,1,4,0.38000000000000017,4,5,99,108,77,32,2.3000000000000016,1.1700000000000008,0.15,1.9400000000000015,6,2,1,3,9,6,1,3,2,0,12,7,LH,0.25555555555555565,0.19500000000000003,0.15,0.6466666666666671
5,12,24,1,6,2.0500000000000003,2,6,56,4,3,93,3.990000000000002,0.37000000000000016,0.5300000000000002,0.3200000000000001,4,2,1,2,11,3,1,2,6,0,19,7,LH,0.36272727272727295,0.12333333333333334,0.5300000000000002,0.16000000000000003
5,13,25,1,8,0.16,2,3,109,110,114,92,2.549999999999993,0.2700000000000001,2.109999999999999,0.19000000000000003,4,1,3,1,10,1,4,1,2,0.5,9,7,LH,0.2550000000000001,0.2700000000000001,0.5275000000000003,0.19000000000000003
5,13,26,1,5,0.17,2,3,73,43,78,38,3.0099999999999834,0.24000000000000007,2.349999999999994,1.390000000000001,5,2,4,4,10,3,4,4,5,0,16,7,LH,0.30100000000000016,0.07999999999999999,0.5875000000000004,0.34750000000000014
5,14,27,1,5,0.23000000000000007,4,4,16,61,37,102,14.819999999999734,0.12999999999999998,0.01,0.18000000000000002,11,2,1,2,30,2,1,2,5,0,17,7,LH,0.4939999999999991,0.065,0.01,0.09
5,14,28,1,2,0.5100000000000002,4,5,60,58,10,80,1.690000000000001,0.45000000000000023,1.6600000000000013,0.7400000000000004,6,1,2,2,9,2,3,2,4,0,17,7,LH,0.18777777777777785,0.22500000000000003,0.5533333333333337,0.37000000000000016
5,15,29,1,8,0.3000000000000001,6,6,116,118,112,113,1.580000000000001,1.1400000000000008,0.11999999999999998,0.37000000000000016,8,2,1,1,12,3,1,1,2,1,24,7,LH,0.1316666666666667,0.3800000000000002,0.11999999999999998,0.37000000000000016
5,15,30,1,10,0.21000000000000005,2,4,94,88,25,92,2.3999999999999972,0.34000000000000014,2.199999999999997,0.8100000000000005,4,1,3,2,9,1,9,2,3,0.5,14,7,LH,0.2666666666666668,0.34000000000000014,0.24444444444444455,0.40500000000000025
5,16,31,1,4,0.7400000000000004,3,4,102,10,7,27,2.2600000000000016,2.1699999999999977,1.1300000000000008,0.2700000000000001,5,2,5,2,6,2,9,2,2,0,19,7,LH,0.37666666666666687,1.0850000000000009,0.1255555555555556,0.135
5,16,32,1,5,0.20000000000000004,2,3,37,114,61,48,1.530000000000001,1.5300000000000011,0.5700000000000003,0.6900000000000004,5,2,1,3,9,6,1,3,5,0,16,7,LH,0.17000000000000004,0.2550000000000001,0.5700000000000003,0.2300000000000001
5,17,33,1,1,0.060000000000000005,2,3,21,82,34,78,2.5699999999999905,0.09999999999999999,1.300000000000001,0.07,4,1,1,1,12,1,1,1,3,0,17,7,LH,0.21416666666666676,0.09999999999999999,1.300000000000001,0.07
5,17,34,1,9,0.3200000000000001,2,5,69,110,119,62,2.499999999999998,1.8300000000000014,1.340000000000001,0.9600000000000006,4,5,4,3,7,8,4,4,4,0,12,7,LH,0.3571428571428574,0.2287500000000001,0.3350000000000002,0.24000000000000013
5,18,35,1,8,0.35000000000000014,5,5,120,113,46,109,1.9900000000000013,0.6100000000000003,2.6599999999999873,0.4100000000000002,7,1,3,2,8,1,4,2,2,0.5,11,7,LH,0.24875000000000014,0.6100000000000003,0.664999999999999,0.20500000000000007
5,18,36,1,7,0.11999999999999998,2,3,22,21,13,17,1.2500000000000007,0.7000000000000004,9.919999999999833,0.7900000000000005,4,1,10,2,7,1,18,2,6,1,72,7,LH,0.17857142857142866,0.7000000000000004,0.5511111111111114,0.39500000000000024
5,19,37,1,4,0.26000000000000006,2,3,106,28,30,32,3.8699999999999672,1.1100000000000008,0.6400000000000003,0.17,6,2,3,2,10,2,6,3,2,0.5,17,7,LH,0.3870000000000002,0.5550000000000003,0.10666666666666669,0.05666666666666667
5,19,38,1,6,0.09,2,3,4,3,1,78,1.1500000000000008,0.6900000000000004,18.150000000000038,0.01,3,1,13,1,4,1,37,1,6,0.5,21,7,LH,0.2875000000000002,0.6900000000000004,0.49054054054054075,0.01
5,20,39,1,3,0.3300000000000001,2,3,32,69,85,34,2.86999999999999,0.6000000000000003,2.7999999999999843,0.08,4,1,5,1,13,1,8,1,5,0,17,7,LH,0.22076923076923083,0.6000000000000003,0.35000000000000014,0.08
5,20,40,1,7,0.18000000000000002,2,3,19,17,14,82,1.8000000000000012,0.7700000000000005,2.3799999999999932,0.01,4,2,2,1,5,3,3,1,6,0.5,21,7,LH,0.3600000000000002,0.2566666666666667,0.7933333333333339,0.01
5,21,41,1,4,0.09,2,3,106,97,55,53,1.7500000000000013,0.4400000000000002,2.579999999999989,0.7400000000000004,4,2,3,3,11,3,5,4,2,0,12,7,LH,0.15909090909090914,0.1466666666666667,0.5160000000000003,0.18500000000000005
5,21,42,1,6,0.12999999999999998,2,3,5,2,8,76,2.509999999999993,6.949999999999896,0.01,0.01,6,7,1,1,11,19,1,1,6,0.5,21,7,LH,0.22818181818181826,0.3657894736842107,0.01,0.01
6,1,1,0,2,0.19000000000000003,2,3,50,37,81,54,3.8699999999999655,1.7100000000000013,1.7900000000000014,0.7600000000000005,7,2,2,3,14,4,6,4,4,0,16,7,LH,0.2764285714285715,0.4275000000000002,0.29833333333333345,0.19000000000000006
6,1,2,0,3,0.22000000000000006,2,5,36,30,13,117,2.1100000000000017,1.0100000000000007,2.1899999999999973,0.9100000000000006,4,2,2,2,8,5,8,4,5,0,18,7,LH,0.26375000000000015,0.20200000000000007,0.2737500000000001,0.22750000000000006
6,2,3,0,7,0.26000000000000006,2,3,23,67,70,13,3.4299999999999766,3.369999999999972,1.2100000000000009,4.849999999999941,4,3,3,5,11,5,3,14,6,0,20,7,LH,0.31181818181818194,0.6739999999999992,0.40333333333333354,0.3464285714285716
6,2,4,0,6,0.22000000000000006,2,3,48,7,45,8,3.9499999999999647,0.3300000000000001,7.509999999999884,0.7300000000000004,4,2,4,2,10,3,21,2,6,0,22,7,LH,0.39500000000000024,0.11000000000000003,0.3576190476190478,0.3650000000000002
6,3,5,0,2,0.2700000000000001,2,3,51,53,57,88,3.219999999999981,9.279999999999847,0.01,1.5900000000000012,4,5,1,4,13,20,1,5,4,0.5,27,7,LH,0.2476923076923078,0.46400000000000025,0.01,0.31800000000000017
6,3,6,0,7,0.3200000000000001,2,3,20,70,39,19,3.839999999999969,1.5500000000000012,1.0000000000000007,0.5500000000000003,4,2,2,2,13,3,3,2,6,0,21,7,LH,0.2953846153846155,0.5166666666666669,0.3333333333333335,0.2750000000000001
6,4,7,0,5,0.17,1,2,38,88,111,42,4.319999999999956,1.280000000000001,1.8700000000000014,0.19000000000000003,4,2,2,2,10,2,3,2,5,0,15,7,LH,0.4320000000000003,0.6400000000000005,0.6233333333333337,0.095
6,4,8,0,1,0.17,2,3,82,13,62,81,2.979999999999984,1.2200000000000009,0.6600000000000004,0.3000000000000001,5,2,1,3,11,4,1,4,3,0,16,7,LH,0.270909090909091,0.30500000000000016,0.6600000000000004,0.07500000000000001
6,5,9,0,1,0.13999999999999999,2,2,5,77,56,7,13.779999999999754,0.04,0.01,0.08,13,1,1,1,42,1,1,1,3,0,19,7,LH,0.3280952380952383,0.04,0.01,0.08
6,5,10,0,9,0.2700000000000001,2,3,61,62,63,23,3.1899999999999817,0.8600000000000005,0.35000000000000014,1.0000000000000007,6,3,1,4,13,4,1,5,4,0.5,30,7,LH,0.24538461538461548,0.21500000000000005,0.35000000000000014,0.20000000000000007
6,6,11,0,7,0.3000000000000001,2,3,21,41,16,14,2.599999999999995,2.429999999999992,0.26000000000000006,7.739999999999879,4,4,1,6,10,8,1,16,6,0.5,41,7,LH,0.2600000000000001,0.30375000000000013,0.26000000000000006,0.4837500000000003
6,6,12,0,4,0.17,2,3,106,83,5,2,2.889999999999986,2.010000000000001,0.7100000000000004,0.16,4,2,2,1,10,3,2,1,2,0,17,7,LH,0.28900000000000015,0.6700000000000005,0.35500000000000015,0.16
6,7,13,1,9,0.12999999999999998,2,3,2,101,103,7,25.120000000001106,0.02,0.8300000000000005,0.01,20,1,2,1,66,1,3,1,4,0,16,7,LH,0.3806060606060608,0.02,0.2766666666666668,0.01
6,7,14,1,1,0.15,2,2,15,47,39,42,15.229999999999723,0.01,0.01,0.01,10,1,1,1,47,1,1,1,3,0.5,21,7,LH,0.3240425531914895,0.01,0.01,0.01
6,8,15,1,2,0.20000000000000004,2,3,50,56,24,51,2.7199999999999904,0.15,2.3099999999999947,0.8800000000000006,5,1,4,3,8,1,4,4,4,0.5,18,7,LH,0.34000000000000014,0.15,0.5775000000000003,0.22000000000000006
6,8,16,1,8,0.11999999999999998,2,3,119,31,67,116,1.690000000000001,2.4599999999999915,0.9600000000000006,0.21000000000000005,4,2,2,2,7,3,2,2,2,0,13,7,LH,0.24142857142857152,0.8200000000000006,0.48000000000000026,0.105
6,9,17,1,5,0.09999999999999999,2,3,42,38,71,62,1.1300000000000008,0.7400000000000004,2.679999999999987,0.25000000000000006,4,3,3,1,5,3,4,1,5,0,18,7,LH,0.22600000000000012,0.24666666666666676,0.6700000000000004,0.25000000000000006
6,9,18,1,6,0.09999999999999999,2,2,2,10,33,12,3.4999999999999716,0.17,0.9000000000000006,0.3100000000000001,4,1,1,2,17,1,2,2,6,0.5,23,7,LH,0.20588235294117654,0.17,0.45000000000000023,0.15500000000000003
6,10,19,1,3,0.13999999999999999,2,4,30,51,35,29,2.2,0.5700000000000003,0.8300000000000005,0.7900000000000005,4,1,3,3,11,1,3,6,5,0.5,19,7,LH,0.20000000000000007,0.5700000000000003,0.2766666666666668,0.1316666666666667
6,10,20,1,9,0.16,3,4,70,62,13,17,2.2899999999999987,2.0500000000000003,3.0599999999999787,0.21000000000000005,5,3,4,1,9,5,7,1,4,0,20,7,LH,0.25444444444444453,0.4100000000000002,0.4371428571428574,0.21000000000000005
6,11,21,1,10,0.11999999999999998,2,2,95,91,88,22,2.9699999999999833,0.6400000000000003,1.1600000000000008,1.2000000000000008,4,2,2,1,8,2,5,1,3,0.5,15,7,LH,0.3712500000000002,0.3200000000000002,0.23200000000000007,1.2000000000000008
6,11,22,1,8,0.20000000000000004,2,3,115,119,60,112,3.8299999999999668,0.8200000000000005,0.3200000000000001,1.6100000000000012,4,2,1,4,12,3,2,7,2,0.5,10,7,LH,0.3191666666666668,0.27333333333333343,0.16000000000000003,0.23000000000000007
6,12,23,1,4,0.34000000000000014,2,4,103,102,33,36,2.6799999999999944,0.9600000000000006,2.3599999999999937,0.49000000000000027,6,2,3,2,10,3,6,3,2,0,14,7,LH,0.2680000000000001,0.3200000000000001,0.39333333333333353,0.16333333333333336
6,12,24,1,9,0.08,2,2,69,63,92,72,2.199999999999999,1.380000000000001,3.9699999999999593,1.440000000000001,4,3,5,6,9,7,5,6,4,0.5,15,7,LH,0.24444444444444455,0.1971428571428572,0.7939999999999992,0.2400000000000001
6,13,25,1,4,0.16,2,4,102,103,19,51,1.730000000000001,1.310000000000001,1.500000000000001,0.21000000000000005,4,2,2,1,12,2,4,1,2,0,14,7,LH,0.14416666666666672,0.6550000000000004,0.37500000000000017,0.21000000000000005
6,13,26,1,10,0.21000000000000005,2,3,90,91,12,2,3.119999999999982,2.4599999999999915,2.239999999999996,1.270000000000001,6,4,5,3,9,9,9,4,3,0,18,7,LH,0.34666666666666685,0.27333333333333343,0.24888888888888897,0.3175000000000001
6,14,27,1,7,0.10999999999999999,2,3,17,13,21,22,1.5900000000000012,1.8500000000000014,0.09,2.759999999999985,4,2,1,8,9,6,1,9,6,1,72,7,LH,0.17666666666666675,0.30833333333333346,0.09,0.3066666666666668
6,14,28,1,8,0.8100000000000005,2,3,36,89,33,87,5.859999999999937,1.0400000000000007,0.8000000000000005,1.8200000000000014,6,2,3,3,10,4,3,5,2,0,16,7,LH,0.5860000000000003,0.2600000000000001,0.2666666666666668,0.3640000000000002
6,15,29,1,4,0.16,2,3,97,105,90,93,3.1799999999999797,0.49000000000000027,0.4400000000000002,0.48000000000000026,4,2,1,1,9,2,1,2,2,0,10,7,LH,0.35333333333333355,0.24500000000000013,0.4400000000000002,0.24000000000000005
6,15,30,1,9,0.15,2,3,66,62,32,120,1.9400000000000013,0.15,3.099999999999978,0.7700000000000005,4,1,3,2,8,1,7,2,4,0,15,7,LH,0.2425000000000001,0.15,0.4428571428571431,0.3850000000000002
6,16,31,1,6,0.16,2,3,8,7,6,61,3.0899999999999817,0.37000000000000016,16.009999999999703,0.04,4,1,12,1,9,1,37,1,6,0.5,22,7,LH,0.3433333333333335,0.37000000000000016,0.43270270270270295,0.04
6,16,32,1,3,0.15,2,3,27,36,85,95,2.309999999999998,1.0300000000000007,1.1100000000000008,0.26000000000000006,4,3,3,2,5,4,5,3,5,0,16,7,LH,0.4620000000000003,0.2575000000000001,0.2220000000000001,0.08666666666666667
6,17,33,1,9,0.21000000000000005,2,3,72,6,110,87,3.3299999999999774,2.1399999999999983,0.20000000000000004,0.34000000000000014,4,2,2,2,11,4,2,2,4,0,15,7,LH,0.30272727272727284,0.5350000000000003,0.09999999999999999,0.17000000000000004
6,17,34,1,2,0.26000000000000006,3,4,108,59,103,50,3.7999999999999687,0.5000000000000002,0.2900000000000001,0.7300000000000004,5,2,1,2,18,3,1,3,4,0,12,7,LH,0.2111111111111112,0.16666666666666669,0.2900000000000001,0.2433333333333334
6,18,35,1,8,0.21000000000000005,2,3,90,110,71,86,3.4799999999999742,0.2800000000000001,0.11999999999999998,0.6100000000000003,4,1,1,1,16,1,1,1,2,0,12,7,LH,0.21750000000000008,0.2800000000000001,0.11999999999999998,0.6100000000000003
6,18,36,1,3,0.11999999999999998,2,3,29,35,57,26,2.150000000000001,2.1299999999999986,0.26000000000000006,0.21000000000000005,4,2,1,1,8,4,1,1,5,0.5,19,7,LH,0.26875000000000016,0.5325000000000003,0.26000000000000006,0.21000000000000005
6,19,37,1,1,0.25000000000000006,3,4,52,84,46,51,2.260000000000001,0.6700000000000004,2.2799999999999954,1.2000000000000008,5,1,2,4,13,1,2,4,3,0,16,7,LH,0.1738461538461539,0.6700000000000004,1.1400000000000008,0.3000000000000001
6,19,38,1,4,0.20000000000000004,2,3,97,108,101,94,2.359999999999998,1.0100000000000007,0.11999999999999998,0.9000000000000006,5,3,1,2,6,6,1,2,2,0.5,9,7,LH,0.39333333333333353,0.16833333333333336,0.11999999999999998,0.45000000000000023
6,20,39,1,4,0.37000000000000016,2,3,105,97,102,72,2.0800000000000014,1.0200000000000007,0.38000000000000017,0.6900000000000004,4,2,2,3,7,3,3,4,2,0.5,10,7,LH,0.29714285714285726,0.34000000000000014,0.1266666666666667,0.17250000000000004
6,20,40,1,8,0.13999999999999999,2,3,13,25,117,28,10.499999999999824,0.22000000000000006,0.02,0.9500000000000006,6,1,1,3,26,1,1,3,2,0,18,7,LH,0.4038461538461538,0.22000000000000006,0.02,0.3166666666666668
6,21,41,1,1,0.4100000000000002,5,5,74,80,17,14,2.1100000000000017,1.6700000000000013,0.21000000000000005,8.309999999999867,7,2,1,5,9,7,1,20,3,0,18,7,LH,0.23444444444444457,0.23857142857142866,0.21000000000000005,0.41550000000000026
6,21,42,1,5,0.12999999999999998,2,2,3,40,106,10,13.629999999999757,0.02,0.01,0.04,12,1,1,1,37,1,1,1,5,0,19,7,LH,0.36837837837837856,0.02,0.01,0.04
7,1,1,0,6,0.18000000000000002,1,2,44,104,54,37,8.899999999999858,1.8100000000000014,0.7800000000000005,1.320000000000001,5,3,1,4,19,4,1,7,6,0,16,7,LH,0.4684210526315792,0.45250000000000024,0.7800000000000005,0.18857142857142864
7,1,2,0,9,0.2800000000000001,2,3,35,65,18,25,9.099999999999856,0.12999999999999998,0.7000000000000004,0.7500000000000004,9,1,2,3,23,1,2,6,4,0,20,7,LH,0.3956521739130434,0.12999999999999998,0.35000000000000014,0.12500000000000003
7,2,3,0,2,0.25000000000000006,2,3,53,17,52,21,5.529999999999932,0.7800000000000005,0.5700000000000003,1.2200000000000009,4,2,3,2,16,6,5,3,4,0,20,7,LH,0.3456250000000001,0.13000000000000003,0.114,0.40666666666666684
7,2,4,0,4,0.35000000000000014,2,3,97,3,104,98,6.67999999999991,1.5400000000000011,3.5899999999999674,3.1099999999999777,7,4,4,5,23,7,5,7,2,0.5,18,7,LH,0.29043478260869576,0.22000000000000008,0.7179999999999996,0.4442857142857145
7,3,5,0,3,0.4300000000000002,2,5,18,104,19,34,5.36999999999994,2.3299999999999943,0.21000000000000005,6.429999999999907,6,3,1,10,16,7,1,14,5,0,19,7,LH,0.3356250000000002,0.332857142857143,0.21000000000000005,0.4592857142857145
7,3,6,0,8,0.13999999999999999,2,3,60,120,119,51,4.639999999999948,0.8500000000000005,0.26000000000000006,2.629999999999988,8,2,1,7,13,5,1,8,2,0,12,7,LH,0.3569230769230771,0.17000000000000004,0.26000000000000006,0.32875000000000015
7,4,7,0,2,0.6300000000000003,2,3,115,20,19,110,2.9199999999999955,2.0899999999999994,0.5800000000000003,0.9800000000000006,4,2,2,3,8,4,4,3,4,0,16,7,LH,0.3650000000000001,0.5225000000000003,0.14500000000000002,0.32666666666666677
7,4,8,0,9,0.2900000000000001,2,5,33,63,61,103,5.269999999999938,1.0100000000000007,0.9600000000000006,1.320000000000001,7,2,3,3,12,2,3,8,4,0,15,7,LH,0.43916666666666626,0.5050000000000002,0.3200000000000001,0.16500000000000004
7,5,9,0,4,0.20000000000000004,2,3,105,99,106,39,5.989999999999921,5.36999999999993,1.6200000000000012,1.6600000000000013,12,9,7,3,19,11,8,3,2,0.5,17,7,LH,0.31526315789473697,0.4881818181818185,0.20250000000000007,0.5533333333333337
7,5,10,0,8,0.22000000000000006,2,3,114,120,30,26,4.199999999999959,0.7900000000000005,4.209999999999955,1.400000000000001,4,2,4,5,15,3,12,6,2,0,14,7,LH,0.28000000000000014,0.2633333333333334,0.3508333333333335,0.23333333333333342
7,6,11,0,1,0.22000000000000006,2,3,78,83,74,80,4.9899999999999425,0.7100000000000004,0.8500000000000005,1.1300000000000008,6,2,2,2,18,3,2,6,3,1,36,7,LH,0.2772222222222223,0.23666666666666672,0.42500000000000016,0.18833333333333335
7,6,12,0,10,0.13999999999999999,1,2,17,93,44,15,4.319999999999955,0.6000000000000003,1.0800000000000007,1.5500000000000012,3,2,2,3,11,3,3,7,3,0,20,7,LH,0.3927272727272729,0.20000000000000007,0.36000000000000015,0.2214285714285715
7,7,13,1,2,0.25000000000000006,2,3,22,54,109,58,4.4199999999999555,4.90999999999994,0.13999999999999999,0.9100000000000006,6,6,1,2,13,9,1,2,4,0,16,7,LH,0.34000000000000014,0.5455555555555537,0.13999999999999999,0.4550000000000003
7,7,14,1,10,0.5700000000000003,2,3,41,87,86,10,4.209999999999967,2.0899999999999994,4.479999999999949,0.4100000000000002,5,3,7,1,10,4,11,1,3,0,17,7,LH,0.4210000000000002,0.5225000000000003,0.4072727272727275,0.4100000000000002
7,8,15,1,6,0.18000000000000002,2,2,5,108,61,8,13.859999999999753,0.04,0.05,0.02,10,1,1,1,42,1,1,1,6,0,18,7,LH,0.3300000000000002,0.04,0.05,0.02
7,8,16,1,7,0.5500000000000003,2,3,13,114,113,38,5.559999999999938,0.6700000000000004,0.2700000000000001,0.7300000000000004,4,2,1,2,19,4,1,3,6,0,15,7,LH,0.2926315789473685,0.1675,0.2700000000000001,0.2433333333333334
7,9,17,1,7,0.2700000000000001,2,4,42,14,24,15,4.429999999999956,0.5600000000000003,0.5500000000000003,0.3000000000000001,5,2,2,1,17,2,3,1,6,0.5,23,7,LH,0.26058823529411773,0.28000000000000014,0.18333333333333335,0.3000000000000001
7,9,18,1,6,0.35000000000000014,2,4,10,12,9,113,3.919999999999968,0.6900000000000004,8.599999999999861,0.25000000000000006,5,1,7,2,16,1,17,2,6,0.5,20,7,LH,0.24500000000000008,0.6900000000000004,0.5058823529411768,0.125
7,10,19,1,7,0.09999999999999999,2,2,15,22,16,91,5.089999999999938,1.0900000000000007,0.6200000000000003,0.15,4,2,2,1,19,5,4,1,6,0.5,21,7,LH,0.26789473684210535,0.21800000000000005,0.15500000000000003,0.15
7,10,20,1,1,1.2500000000000009,5,7,107,83,71,12,6.769999999999928,0.5800000000000003,0.6700000000000004,1.5700000000000012,7,2,1,2,22,3,1,3,3,0,15,7,LH,0.30772727272727285,0.19333333333333336,0.6700000000000004,0.5233333333333337
7,11,21,1,9,1.0900000000000007,4,6,16,97,68,13,4.6899999999999675,1.7700000000000014,0.46000000000000024,6.499999999999906,7,3,1,7,14,8,2,14,4,0,18,7,LH,0.33500000000000013,0.22125000000000006,0.23000000000000004,0.4642857142857145
7,11,22,1,10,0.6400000000000003,5,6,90,43,96,8,6.179999999999927,0.9700000000000006,0.5800000000000003,1.7800000000000014,7,3,2,4,20,4,4,7,3,0,17,7,LH,0.30900000000000016,0.24250000000000008,0.14500000000000005,0.2542857142857144
7,12,23,1,9,0.35000000000000014,2,3,2,46,48,63,6.369999999999917,0.2900000000000001,0.37000000000000016,1.0800000000000007,5,2,2,3,11,2,2,4,4,0,20,7,LH,0.579090909090909,0.14500000000000005,0.18500000000000003,0.27000000000000013
7,12,24,1,3,1.1100000000000008,2,7,28,53,107,101,4.369999999999975,2.0400000000000005,0.36000000000000015,0.6100000000000003,5,3,1,2,20,3,1,3,5,0,13,7,LH,0.21850000000000008,0.6800000000000004,0.36000000000000015,0.2033333333333334
7,13,25,1,7,0.2700000000000001,2,4,21,23,15,71,1.8100000000000012,1.8300000000000014,20.09000000000034,0.01,4,2,15,1,7,9,39,1,6,0.5,22,7,LH,0.2585714285714287,0.2033333333333334,0.5151282051282053,0.01
7,13,26,1,1,2.010000000000001,4,6,107,59,98,101,4.59999999999999,1.5100000000000011,1.1000000000000008,0.47000000000000025,7,2,2,1,11,4,4,1,3,0.5,10,7,LH,0.41818181818181843,0.37750000000000017,0.2750000000000001,0.47000000000000025
7,14,27,1,1,0.09,1,2,82,103,98,57,4.779999999999944,1.7600000000000013,0.5600000000000003,0.3100000000000001,5,2,1,2,18,6,1,2,3,0,11,7,LH,0.26555555555555566,0.29333333333333345,0.5600000000000003,0.155
7,14,28,1,8,0.22000000000000006,2,3,115,116,27,113,3.5299999999999736,1.6700000000000013,1.480000000000001,0.37000000000000016,4,3,3,2,14,5,3,3,2,0.5,11,7,LH,0.2521428571428572,0.33400000000000013,0.4933333333333336,0.12333333333333335
7,15,29,1,10,0.20000000000000004,2,3,93,87,68,71,2.6699999999999915,2.719999999999986,2.3299999999999943,1.0900000000000007,5,3,4,2,7,7,7,3,3,0,14,7,LH,0.38142857142857167,0.38857142857142873,0.332857142857143,0.3633333333333335
7,15,30,1,2,0.25000000000000006,2,3,44,79,77,59,5.069999999999942,0.9000000000000006,0.9200000000000006,0.21000000000000005,5,2,2,1,17,5,3,1,4,0,15,7,LH,0.2982352941176472,0.18000000000000008,0.30666666666666675,0.21000000000000005
7,16,31,1,9,0.3100000000000001,2,3,29,68,66,27,7.469999999999892,0.5700000000000003,4.609999999999946,2.199999999999997,9,2,11,5,22,3,13,7,4,0,18,7,LH,0.3395454545454547,0.19000000000000003,0.35461538461538483,0.3142857142857144
7,16,32,1,5,0.2700000000000001,2,3,45,15,39,51,5.929999999999924,0.3300000000000001,3.8799999999999613,1.9500000000000015,5,2,4,4,16,2,7,5,5,0,20,7,LH,0.3706250000000002,0.16500000000000006,0.5542857142857146,0.39000000000000024
7,17,33,1,8,0.18000000000000002,2,3,111,114,13,24,3.5299999999999727,2.4199999999999924,1.430000000000001,3.1599999999999766,4,4,7,6,16,7,8,7,2,0,16,7,LH,0.2206250000000001,0.34571428571428586,0.17875000000000005,0.4514285714285717
7,17,34,1,4,0.36000000000000015,2,3,108,12,39,5,5.069999999999944,1.1200000000000008,1.8500000000000014,0.3200000000000001,4,2,2,2,15,3,3,2,2,0,19,7,LH,0.33800000000000013,0.3733333333333335,0.616666666666667,0.16
7,18,35,1,4,0.20000000000000004,2,3,101,100,58,104,2.0500000000000016,2.159999999999998,0.6300000000000003,0.9600000000000006,6,3,2,2,9,5,2,5,2,0.5,10,7,LH,0.22777777777777788,0.4320000000000002,0.3150000000000001,0.19200000000000006
7,18,36,1,9,0.17,2,3,64,70,65,111,4.509999999999952,0.5300000000000002,3.3999999999999715,3.839999999999962,8,1,5,9,16,1,8,11,4,0.5,14,7,LH,0.28187500000000015,0.5300000000000002,0.4250000000000002,0.34909090909090923
7,19,37,1,9,0.13999999999999999,2,3,1,2,27,110,27.340000000001453,0.01,0.01,0.02,20,1,1,1,72,1,1,1,4,0,19,7,LH,0.3797222222222224,0.01,0.01,0.02
7,19,38,1,1,0.24000000000000007,3,4,77,48,73,14,4.489999999999954,0.9900000000000007,0.24000000000000007,0.23000000000000007,5,1,1,1,20,1,1,1,3,0,17,7,LH,0.2245000000000001,0.9900000000000007,0.24000000000000007,0.23000000000000007
7,20,39,1,9,0.2900000000000001,4,5,68,69,15,21,1.750000000000001,2.429999999999992,0.9200000000000006,0.4000000000000002,6,2,3,1,9,8,4,1,4,0,20,7,LH,0.19444444444444453,0.30375000000000013,0.23000000000000007,0.4000000000000002
7,20,40,1,10,0.45000000000000023,3,4,86,88,51,9,3.3999999999999813,0.5700000000000003,1.490000000000001,3.1099999999999777,5,2,3,5,14,2,4,9,3,0,16,7,LH,0.24285714285714294,0.28500000000000014,0.37250000000000016,0.3455555555555557
8,1,1,0,10,0.16,2,4,92,51,12,42,1.3400000000000007,2.489999999999991,0.5500000000000003,0.17,4,3,2,1,7,4,2,2,3,0,18,7,LH,0.19142857142857153,0.6225000000000004,0.2750000000000001,0.08499999999999999
8,1,2,0,1,0.22000000000000006,2,3,80,26,68,22,1.3300000000000007,1.8900000000000015,0.5500000000000003,0.18000000000000002,5,3,1,1,7,6,1,1,3,0,18,7,LH,0.19000000000000006,0.31500000000000017,0.5500000000000003,0.18000000000000002
8,2,3,0,3,0.3300000000000001,2,3,88,67,87,13,2.1500000000000017,0.6900000000000004,0.5300000000000002,0.5400000000000003,4,3,2,2,6,3,2,4,5,0,16,7,LH,0.3583333333333335,0.2300000000000001,0.26500000000000007,0.135
8,2,4,0,8,0.22000000000000006,2,3,4,114,8,38,2.0500000000000016,0.5400000000000003,0.3900000000000002,0.4000000000000002,4,2,1,1,6,2,1,1,2,0,19,7,LH,0.34166666666666684,0.2700000000000001,0.3900000000000002,0.4000000000000002
8,3,5,0,2,0.19000000000000003,2,3,56,12,60,9,2.2200000000000006,0.6500000000000004,0.15,0.3200000000000001,4,3,1,1,12,4,1,1,4,0,20,7,LH,0.18500000000000005,0.16250000000000006,0.15,0.3200000000000001
8,3,6,0,1,0.19000000000000003,2,3,73,78,34,32,1.4100000000000008,0.6600000000000004,1.7700000000000014,0.5500000000000003,4,3,3,2,6,5,3,3,3,0,16,7,LH,0.2350000000000001,0.132,0.5900000000000003,0.18333333333333335
8,4,7,0,5,0.22000000000000006,2,3,37,78,42,82,2.2800000000000002,0.21000000000000005,1.0000000000000007,0.12999999999999998,4,1,2,1,13,1,2,1,5,0,16,7,LH,0.17538461538461544,0.21000000000000005,0.5000000000000003,0.12999999999999998
8,4,8,0,6,0.5200000000000002,8,9,11,2,119,114,2.3800000000000017,0.7600000000000005,0.36000000000000015,0.3900000000000002,10,2,2,2,13,3,3,6,6,0,16,7,LH,0.18307692307692314,0.2533333333333334,0.12000000000000001,0.065
8,5,9,0,7,0.34000000000000014,2,3,21,56,19,60,1.9400000000000013,1.8900000000000015,1.5800000000000012,0.6600000000000004,5,6,4,2,9,8,4,2,6,0,20,7,LH,0.21555555555555564,0.2362500000000001,0.3950000000000002,0.3300000000000001
8,5,10,0,3,0.46000000000000024,3,4,31,25,10,73,1.8200000000000012,0.3200000000000001,0.6000000000000003,1.0100000000000007,5,1,2,3,9,1,2,3,5,0,19,7,LH,0.2022222222222223,0.3200000000000001,0.3000000000000001,0.3366666666666668
8,6,11,0,7,0.22000000000000006,3,4,16,24,22,91,1.4100000000000008,2.2799999999999954,3.2599999999999745,0.2800000000000001,5,4,5,2,8,5,7,2,6,0.5,39,7,LH,0.17625000000000007,0.45600000000000024,0.46571428571428597,0.14
8,6,12,0,6,0.21000000000000005,2,3,71,8,2,7,2.6699999999999915,0.5400000000000003,0.08,0.5500000000000003,4,3,1,2,12,5,1,3,6,0.5,40,7,LH,0.2225000000000001,0.108,0.08,0.1833333333333334
8,7,13,1,9,0.19000000000000003,2,3,61,11,66,46,1.4700000000000009,0.5000000000000002,0.7100000000000004,1.6400000000000012,4,1,2,3,5,1,3,3,4,0,19,7,LH,0.29400000000000015,0.5000000000000002,0.23666666666666672,0.546666666666667
8,7,14,1,7,0.21000000000000005,4,4,23,116,15,109,1.700000000000001,9.369999999999845,3.1299999999999772,0.3200000000000001,6,13,6,2,10,22,7,2,6,0,16,7,LH,0.17000000000000004,0.4259090909090911,0.4471428571428574,0.16
8,8,15,1,7,0.3200000000000001,2,3,40,109,16,21,1.620000000000001,0.5500000000000003,0.49000000000000027,0.48000000000000026,4,1,1,2,5,1,1,2,6,0,19,7,LH,0.3240000000000002,0.5500000000000003,0.49000000000000027,0.24000000000000005
8,8,16,1,3,0.8500000000000005,2,5,53,26,32,12,2.7500000000000018,1.0400000000000007,0.7900000000000005,0.13999999999999999,4,2,3,1,7,3,3,1,5,0,20,7,LH,0.39285714285714307,0.34666666666666685,0.2633333333333334,0.13999999999999999
8,9,17,1,7,0.2900000000000001,1,2,65,23,68,15,2.1200000000000014,1.6600000000000013,0.4400000000000002,1.1700000000000008,3,2,2,3,5,4,3,4,6,0,20,7,LH,0.4240000000000002,0.4150000000000002,0.14666666666666667,0.29250000000000015
8,9,18,1,2,0.3000000000000001,2,3,49,81,3,116,3.1899999999999826,0.12999999999999998,0.22000000000000006,0.7300000000000004,4,1,1,1,15,1,1,1,4,0,15,7,LH,0.21266666666666673,0.12999999999999998,0.22000000000000006,0.7300000000000004
8,10,19,1,4,0.12999999999999998,1,2,108,20,100,16,1.580000000000001,1.1000000000000008,0.26000000000000006,0.6700000000000004,4,2,2,2,6,5,2,4,2,0,16,7,LH,0.2633333333333334,0.22000000000000008,0.13,0.1675
8,10,20,1,9,0.35000000000000014,4,5,69,72,78,114,1.550000000000001,1.270000000000001,0.5400000000000003,0.5500000000000003,6,2,2,2,7,4,2,2,4,0,13,7,LH,0.22142857142857156,0.3175000000000001,0.2700000000000001,0.2750000000000001
8,11,21,1,10,0.16,2,3,89,114,16,42,1.1500000000000006,1.1200000000000008,0.3900000000000002,0.9200000000000006,4,2,1,3,7,3,1,4,3,0,16,7,LH,0.16428571428571434,0.3733333333333335,0.3900000000000002,0.2300000000000001
8,11,22,1,3,5.969999999999917,6,16,84,97,107,102,11.489999999999844,0.5900000000000003,0.9100000000000006,3.2099999999999755,12,3,3,8,31,3,3,10,5,0.5,9,7,LH,0.37064516129032277,0.19666666666666674,0.30333333333333345,0.3210000000000001
8,12,23,1,7,0.49000000000000027,8,9,23,20,33,105,1.9700000000000013,3.149999999999977,0.24000000000000007,0.24000000000000007,10,4,2,2,13,8,2,2,6,0,19,7,LH,0.1515384615384616,0.3937500000000002,0.12,0.12000000000000001
8,12,24,1,2,0.17,2,3,49,119,54,83,1.9100000000000013,1.2300000000000009,1.270000000000001,0.02,4,4,3,1,10,5,3,1,4,0,13,7,LH,0.19100000000000006,0.24600000000000008,0.42333333333333356,0.02
8,13,25,1,2,0.21000000000000005,2,3,49,77,18,59,1.4200000000000008,0.6900000000000004,1.8100000000000014,0.48000000000000026,4,2,3,2,9,3,5,4,4,0,17,7,LH,0.15777777777777782,0.23000000000000007,0.36200000000000015,0.12000000000000005
8,13,26,1,10,0.17,2,3,90,88,11,7,0.8100000000000004,0.7900000000000005,0.5000000000000002,0.18000000000000002,3,3,2,1,4,3,2,1,3,0,18,7,LH,0.20250000000000007,0.2633333333333334,0.25000000000000006,0.18000000000000002
8,14,27,1,7,0.34000000000000014,3,4,22,23,14,55,1.690000000000001,0.3200000000000001,0.9100000000000006,0.48000000000000026,5,1,3,1,8,1,4,1,6,0.5,22,7,LH,0.21125000000000008,0.3200000000000001,0.2275000000000001,0.48000000000000026
8,14,28,1,6,0.23000000000000007,5,5,5,12,91,3,1.2100000000000006,0.5200000000000002,0.7900000000000005,2.2299999999999964,7,2,2,4,9,3,2,7,6,0.5,21,7,LH,0.13444444444444448,0.17333333333333337,0.3950000000000002,0.3185714285714287
8,15,29,1,5,0.10999999999999999,1,2,43,56,76,38,1.3800000000000008,1.6600000000000013,1.5200000000000011,0.05,3,5,3,1,6,5,4,1,5,0,17,7,LH,0.23000000000000012,0.33200000000000013,0.38000000000000017,0.05
8,15,30,1,10,11.829999999999792,10,37,32,113,109,95,15.229999999999764,0.04,0.7800000000000005,0.060000000000000005,14,1,2,1,54,1,3,1,3,0,12,7,LH,0.28203703703703714,0.04,0.2600000000000001,0.060000000000000005
8,16,31,1,1,0.18000000000000002,2,3,75,81,37,48,1.0100000000000005,1.0300000000000007,1.8700000000000014,0.8300000000000005,3,2,5,2,4,3,5,2,3,0,16,7,LH,0.2525000000000001,0.3433333333333335,0.3740000000000002,0.41500000000000026
8,16,32,1,2,0.26000000000000006,3,5,34,32,59,100,2.699999999999992,1.5700000000000012,0.5000000000000002,0.6300000000000003,5,3,3,1,9,3,5,1,4,0,16,7,LH,0.30000000000000016,0.5233333333333337,0.10000000000000002,0.6300000000000003
8,17,33,1,5,0.17,2,3,39,21,103,72,1.3400000000000007,7.69999999999988,0.01,0.04,5,9,1,2,8,23,1,2,5,0,17,7,LH,0.16750000000000007,0.3347826086956523,0.01,0.02
8,17,34,1,8,0.20000000000000004,2,3,29,82,114,75,2.0900000000000016,0.6900000000000004,0.3900000000000002,0.22000000000000006,6,1,3,1,8,1,3,1,2,0,13,7,LH,0.2612500000000001,0.6900000000000004,0.13000000000000003,0.22000000000000006
8,18,35,1,1,0.2700000000000001,2,3,2,80,1,75,2.1000000000000014,0.13999999999999999,0.25000000000000006,1.1200000000000008,4,1,1,4,10,1,1,5,3,0,18,7,LH,0.21000000000000008,0.13999999999999999,0.25000000000000006,0.2240000000000001
8,18,36,1,10,0.24000000000000007,2,3,89,20,36,32,1.9400000000000013,0.45000000000000023,0.5300000000000002,0.4400000000000002,4,1,2,2,9,1,3,2,3,0,19,7,LH,0.21555555555555564,0.45000000000000023,0.17666666666666672,0.22000000000000008
8,19,37,1,9,0.22000000000000006,2,3,72,48,94,93,1.610000000000001,0.46000000000000024,0.5400000000000003,0.3100000000000001,4,1,2,1,11,1,3,1,4,0,15,7,LH,0.14636363636363642,0.46000000000000024,0.18000000000000005,0.3100000000000001
8,19,38,1,3,3.319999999999973,6,12,31,115,112,82,4.049999999999974,0.26000000000000006,2.629999999999988,0.16,9,1,4,1,16,1,5,1,5,0,12,7,LH,0.2531250000000001,0.26000000000000006,0.5260000000000004,0.16
8,20,39,1,1,0.20000000000000004,2,3,77,14,83,107,1.9500000000000013,1.440000000000001,0.3900000000000002,0.3000000000000001,4,2,2,1,11,4,2,1,3,0,14,7,LH,0.1772727272727273,0.36000000000000015,0.19500000000000006,0.3000000000000001
8,20,40,1,10,1.1000000000000008,2,3,93,28,114,115,2.4600000000000017,0.5400000000000003,0.21000000000000005,1.6200000000000012,5,2,1,5,7,2,1,7,3,0,12,7,LH,0.3514285714285716,0.27000000000000013,0.21000000000000005,0.2314285714285715
8,21,41,1,6,0.07,2,3,7,3,6,9,0.5400000000000003,0.2800000000000001,7.6899999999998805,0.01,4,2,12,1,5,2,21,1,6,1,72,7,LH,0.10800000000000003,0.14,0.36619047619047634,0.01
8,21,42,1,10,0.5600000000000003,3,4,95,89,97,88,3.1099999999999897,0.47000000000000025,0.07,0.23000000000000007,7,2,1,1,9,2,1,1,3,0.5,11,7,LH,0.3455555555555557,0.23500000000000004,0.07,0.23000000000000007
9,1,1,0,9,0.47000000000000025,2,6,63,22,61,23,1.8800000000000012,1.350000000000001,0.060000000000000005,0.16,7,3,1,2,17,7,1,2,4,0,20,7,LH,0.11058823529411767,0.1928571428571429,0.060000000000000005,0.07999999999999999
9,1,2,0,2,0.46000000000000024,2,8,57,49,50,56,1.510000000000001,0.6600000000000004,0.24000000000000007,0.2800000000000001,5,2,2,2,16,6,3,4,4,1,48,7,LH,0.09437500000000001,0.11,0.08,0.07
9,2,3,0,9,0.5200000000000002,2,9,68,72,40,43,1.9000000000000012,0.24000000000000007,0.8700000000000006,0.5100000000000002,4,2,4,5,20,3,6,6,4,0,18,7,LH,0.09500000000000001,0.08,0.14500000000000002,0.08499999999999999
9,2,4,0,1,0.4100000000000002,2,6,77,84,75,19,1.3900000000000008,0.2800000000000001,0.7100000000000004,0.7300000000000004,4,1,3,3,11,1,6,5,3,0.5,24,7,LH,0.1263636363636364,0.2800000000000001,0.11833333333333333,0.14600000000000002
9,3,5,0,3,0.35000000000000014,2,3,31,16,35,73,1.670000000000001,0.6000000000000003,0.13999999999999999,0.7500000000000004,4,3,1,3,13,5,2,4,5,0,19,7,LH,0.1284615384615385,0.12000000000000001,0.06999999999999999,0.18750000000000006
9,3,6,0,8,0.2700000000000001,2,3,1,117,118,119,4.159999999999961,0.01,0.02,0.02,7,1,1,1,22,1,1,1,2,0.5,18,7,LH,0.18909090909090914,0.01,0.02,0.02
9,4,7,0,10,0.4100000000000002,2,3,96,24,87,95,1.4100000000000008,0.5300000000000002,0.22000000000000006,0.18000000000000002,4,3,1,1,9,6,1,1,3,0.5,24,7,LH,0.1566666666666667,0.08833333333333335,0.22000000000000006,0.18000000000000002
9,4,8,0,3,0.3100000000000001,2,4,30,32,101,105,1.4200000000000008,1.420000000000001,0.22000000000000006,0.38000000000000017,4,4,1,1,14,6,1,1,5,0,14,7,LH,0.10142857142857144,0.23666666666666678,0.22000000000000006,0.38000000000000017
9,5,9,0,8,0.12999999999999998,2,2,13,42,39,17,7.869999999999879,0.02,0.01,0.01,18,1,1,1,46,1,1,1,2,0,22,7,LH,0.17108695652173916,0.02,0.01,0.01
9,5,10,0,6,0.4000000000000002,2,5,50,103,54,1,7.789999999999887,0.01,0.24000000000000007,0.01,18,1,3,1,52,1,3,1,6,0,16,7,LH,0.14980769230769236,0.01,0.08,0.01
9,6,11,0,8,0.34000000000000014,2,3,120,56,40,39,1.8000000000000012,1.450000000000001,0.16,0.060000000000000005,4,3,1,1,17,15,1,1,2,0,16,7,LH,0.10588235294117647,0.09666666666666668,0.16,0.060000000000000005
9,6,12,0,1,0.5700000000000003,3,6,24,82,20,21,2.560000000000002,0.08,0.5200000000000002,0.060000000000000005,8,1,2,1,20,1,3,1,3,0.5,39,7,LH,0.12800000000000003,0.08,0.17333333333333337,0.060000000000000005
9,7,13,1,2,0.47000000000000025,3,6,1,6,58,9,1.740000000000001,0.46000000000000024,0.060000000000000005,0.25000000000000006,5,2,1,2,15,6,1,2,4,0.5,22,7,LH,0.116,0.07666666666666666,0.060000000000000005,0.125
9,7,14,1,8,0.6200000000000003,2,8,113,111,64,34,1.3700000000000008,0.9300000000000006,1.320000000000001,0.49000000000000027,4,2,3,4,10,3,5,5,2,0,13,7,LH,0.13700000000000004,0.3100000000000001,0.26400000000000007,0.098
9,8,15,1,3,0.5000000000000002,2,4,6,36,5,51,1.610000000000001,0.34000000000000014,0.23000000000000007,0.5200000000000002,4,2,2,2,11,3,3,3,5,0,21,7,LH,0.1463636363636364,0.11333333333333334,0.07666666666666666,0.17333333333333342
9,8,16,1,4,0.3000000000000001,2,3,104,37,107,100,1.4500000000000008,1.0400000000000007,0.09,0.7300000000000004,4,3,2,4,11,5,2,4,2,0.5,11,7,LH,0.13181818181818183,0.20800000000000007,0.045,0.18250000000000008
9,9,17,1,7,0.2900000000000001,2,5,66,21,70,17,1.3400000000000007,0.4000000000000002,0.24000000000000007,0.7300000000000004,4,2,1,5,12,3,1,5,6,0,20,7,LH,0.11166666666666669,0.13333333333333333,0.24000000000000007,0.14600000000000005
9,9,18,1,3,1.0200000000000007,6,9,28,33,74,51,1.8200000000000012,1.0600000000000007,0.35000000000000014,0.4400000000000002,8,2,2,2,12,7,2,5,5,0,17,7,LH,0.1516666666666667,0.15142857142857147,0.17500000000000002,0.088
9,10,19,1,1,0.8700000000000006,3,10,79,77,24,19,2.030000000000001,0.5400000000000003,0.08,0.7700000000000005,6,2,1,4,18,3,1,7,3,0,18,7,LH,0.1127777777777778,0.18000000000000002,0.08,0.11000000000000001
9,10,20,1,4,0.8500000000000005,5,10,106,102,12,49,1.9900000000000013,0.21000000000000005,0.3000000000000001,0.2700000000000001,7,1,2,2,17,1,3,3,2,0,14,7,LH,0.11705882352941177,0.21000000000000005,0.09999999999999999,0.09
9,11,21,1,1,0.4300000000000002,2,5,75,53,51,55,1.720000000000001,0.8400000000000005,0.4400000000000002,0.07,8,2,4,1,16,4,6,1,3,0.5,15,7,LH,0.10750000000000001,0.21000000000000008,0.07333333333333333,0.07
9,11,22,1,10,0.7900000000000005,2,6,91,65,35,101,1.660000000000001,0.6700000000000004,0.4100000000000002,0.45000000000000023,5,2,2,2,12,5,3,3,3,0,14,7,LH,0.13833333333333336,0.134,0.1366666666666667,0.15000000000000002
9,12,23,1,5,1.0800000000000007,2,9,42,86,98,67,2.1600000000000015,0.7300000000000004,0.22000000000000006,0.2700000000000001,4,2,2,2,19,3,2,6,5,0,14,7,LH,0.1136842105263158,0.2433333333333334,0.11000000000000001,0.045
9,12,24,1,8,0.7900000000000005,2,9,118,112,109,83,1.8800000000000012,0.25000000000000006,0.9200000000000006,0.2800000000000001,4,1,3,1,19,1,4,2,2,0.5,9,7,LH,0.09894736842105263,0.25000000000000006,0.23000000000000007,0.14
9,13,25,1,2,0.4100000000000002,3,5,54,52,95,87,1.2700000000000007,0.5900000000000003,0.3200000000000001,0.2900000000000001,5,3,2,2,13,9,2,3,4,0,14,7,LH,0.0976923076923077,0.06555555555555556,0.16000000000000006,0.09666666666666666
9,13,26,1,9,0.7300000000000004,2,10,62,113,72,39,1.8100000000000012,0.8200000000000005,0.3100000000000001,0.5000000000000002,4,3,2,3,20,5,3,4,4,0,15,7,LH,0.09050000000000001,0.16400000000000003,0.10333333333333335,0.12500000000000003
9,14,27,1,7,0.2700000000000001,2,4,24,23,17,22,1.0700000000000005,0.3100000000000001,0.25000000000000006,3.229999999999975,4,2,2,9,10,4,3,28,6,1,72,7,LH,0.10700000000000001,0.0775,0.08333333333333333,0.11535714285714288
9,14,28,1,3,0.46000000000000024,3,8,33,25,75,54,0.9700000000000004,1.1400000000000008,0.3200000000000001,1.8700000000000014,5,3,2,6,10,4,3,14,5,0,17,7,LH,0.09700000000000002,0.28500000000000014,0.10666666666666666,0.1335714285714286
9,15,29,1,6,0.7500000000000004,2,11,55,6,1,5,2.2300000000000013,0.23000000000000007,0.7500000000000004,2.479999999999991,5,1,5,6,19,1,9,15,6,0.5,22,7,LH,0.11736842105263161,0.23000000000000007,0.08333333333333333,0.1653333333333334
9,15,30,1,4,0.45000000000000023,4,9,103,72,33,24,1.740000000000001,0.5700000000000003,0.47000000000000025,0.6000000000000003,6,2,3,3,23,6,3,7,2,0,17,7,LH,0.07565217391304348,0.09500000000000001,0.15666666666666668,0.08571428571428572
9,16,31,1,10,0.49000000000000027,2,8,89,51,17,26,1.8100000000000012,0.4100000000000002,0.24000000000000007,0.16,4,3,2,2,20,7,4,3,3,0,18,7,LH,0.09050000000000001,0.058571428571428566,0.06,0.05333333333333334
9,16,32,1,5,0.4100000000000002,2,4,42,41,66,112,1.4100000000000008,0.3300000000000001,0.6800000000000004,0.47000000000000025,4,2,3,2,10,3,9,5,5,0,16,7,LH,0.14100000000000004,0.11,0.07555555555555556,0.094
9,17,33,1,3,0.9300000000000006,2,9,35,17,16,63,1.680000000000001,0.5500000000000003,0.20000000000000004,0.5400000000000003,4,2,1,3,15,4,1,4,5,0,21,7,LH,0.112,0.1375,0.20000000000000004,0.13499999999999998
9,17,34,1,6,0.2700000000000001,2,4,2,8,56,48,0.9500000000000004,0.3200000000000001,1.2000000000000008,0.6400000000000003,4,2,2,4,8,3,7,6,6,0,21,7,LH,0.11875000000000002,0.10666666666666666,0.17142857142857149,0.10666666666666667
9,18,35,1,2,0.3300000000000001,2,3,13,55,92,31,5.989999999999924,0.01,0.02,0.01,17,1,1,1,43,1,1,1,4,0,18,7,LH,0.13930232558139538,0.01,0.02,0.01
9,18,36,1,1,1.1100000000000008,2,5,81,83,63,66,1.750000000000001,0.7000000000000004,0.18000000000000002,0.15,4,2,2,1,15,11,3,1,3,0,14,7,LH,0.1166666666666667,0.06363636363636363,0.06,0.15
9,19,37,1,2,0.09,2,3,16,23,103,20,30.1500000000019,0.01,0.24000000000000007,0.01,20,1,2,1,173,1,2,1,4,0.5,20,7,LH,0.17427745664739888,0.01,0.12000000000000004,0.01
9,19,38,1,10,0.4100000000000002,2,7,87,85,94,46,1.4200000000000008,0.9000000000000006,0.16,0.7700000000000005,6,5,2,4,13,6,2,5,3,0.5,14,7,LH,0.10923076923076924,0.15000000000000005,0.07999999999999999,0.15400000000000003
9,20,39,1,4,0.4400000000000002,3,6,98,23,15,106,0.9100000000000005,1.440000000000001,1.1900000000000008,0.20000000000000004,5,3,6,2,8,5,6,2,2,0,16,7,LH,0.11375000000000002,0.2880000000000001,0.1983333333333334,0.1
9,20,40,1,8,0.6400000000000003,2,6,83,112,120,110,1.4600000000000009,0.5500000000000003,1.2000000000000008,0.12999999999999998,4,2,4,2,13,5,4,3,2,0.5,9,7,LH,0.11230769230769233,0.11000000000000003,0.30000000000000016,0.043333333333333335
9,21,41,1,2,0.4000000000000002,2,6,49,6,101,60,1.0600000000000005,1.1500000000000008,0.5100000000000002,0.13999999999999999,4,2,2,2,9,6,4,2,4,0,16,7,LH,0.11777777777777781,0.19166666666666674,0.1275,0.07
9,21,42,1,8,0.6900000000000004,2,12,112,116,40,37,2.660000000000002,0.17,0.6100000000000003,0.6300000000000003,4,2,3,3,31,3,3,3,2,0,14,7,LH,0.08580645161290323,0.05666666666666667,0.20333333333333342,0.2100000000000001
9,22,43,1,3,0.3900000000000002,2,6,33,110,117,6,0.8800000000000004,1.0300000000000007,2.149999999999998,0.01,4,2,8,1,12,7,11,1,5,0,15,7,LH,0.07333333333333333,0.1471428571428572,0.19545454545454552,0.01
9,22,44,1,1,0.38000000000000017,3,4,80,46,105,81,1.3400000000000007,0.45000000000000023,0.45000000000000023,0.08,5,1,3,1,10,1,3,1,3,0,13,7,LH,0.134,0.45000000000000023,0.15000000000000002,0.08
10,1,1,0,8,0.7500000000000004,2,6,112,117,116,119,1.510000000000001,1.0200000000000007,0.5000000000000002,0.19000000000000003,4,4,2,2,8,4,4,2,2,1,24,7,LH,0.18875000000000006,0.2550000000000001,0.125,0.095
10,1,2,0,3,0.5700000000000003,2,7,49,95,58,14,3.209999999999988,0.5100000000000002,0.45000000000000023,0.04,6,1,3,1,21,1,4,1,5,0,17,7,LH,0.15285714285714289,0.5100000000000002,0.11249999999999999,0.04
10,2,3,0,8,0.45000000000000023,2,6,117,14,63,68,1.7600000000000011,0.8700000000000006,0.7100000000000004,0.9900000000000007,4,2,2,3,14,3,5,5,2,0,16,7,LH,0.12571428571428575,0.2900000000000001,0.14200000000000002,0.19800000000000004
10,2,4,0,5,0.3900000000000002,2,4,38,94,54,53,1.1800000000000006,1.500000000000001,0.2700000000000001,0.4100000000000002,4,5,1,2,6,7,1,3,5,0,16,7,LH,0.19666666666666674,0.21428571428571436,0.2700000000000001,0.1366666666666667
10,3,5,0,4,0.37000000000000016,2,3,108,106,8,12,2.1100000000000017,0.7100000000000004,0.36000000000000015,0.17,5,3,2,1,7,5,3,1,2,0,16,7,LH,0.3014285714285716,0.14200000000000002,0.12000000000000002,0.17
10,3,6,0,2,0.48000000000000026,5,7,55,57,51,37,1.590000000000001,1.6700000000000013,0.2800000000000001,0.060000000000000005,7,4,2,1,11,7,2,1,4,0.5,29,7,LH,0.1445454545454546,0.23857142857142868,0.14000000000000004,0.060000000000000005
10,4,7,0,9,0.37000000000000016,2,3,103,61,69,2,1.4400000000000008,0.6600000000000004,0.2800000000000001,1.290000000000001,3,2,2,2,4,2,4,4,4,0,16,7,LH,0.3600000000000002,0.3300000000000001,0.06999999999999999,0.3225000000000001
10,4,8,0,2,0.5000000000000002,2,3,51,50,59,56,1.9500000000000013,0.5000000000000002,0.11999999999999998,0.6100000000000003,5,2,1,4,7,4,1,4,4,1,48,7,LH,0.2785714285714287,0.125,0.11999999999999998,0.15250000000000002
10,5,9,0,7,0.3900000000000002,2,3,14,18,16,74,1.570000000000001,0.4300000000000002,5.0599999999999365,0.03,4,2,14,1,8,3,24,1,6,0.5,39,7,LH,0.19625000000000006,0.14333333333333334,0.21083333333333343,0.03
10,5,10,0,4,0.13999999999999999,2,2,5,87,99,30,14.869999999999731,0.01,0.01,0.01,18,1,1,1,45,1,1,1,2,0,16,7,LH,0.3304444444444446,0.01,0.01,0.01
10,6,11,0,5,0.16,2,2,13,73,47,48,6.879999999999901,0.01,0.01,0.01,14,1,1,1,30,1,1,1,5,0,19,7,LH,0.22933333333333342,0.01,0.01,0.01
10,6,12,0,3,0.6400000000000003,8,10,26,65,61,33,1.620000000000001,0.7100000000000004,0.9400000000000006,0.2900000000000001,10,2,4,3,15,2,4,3,5,0,18,7,LH,0.10800000000000001,0.35500000000000015,0.2350000000000001,0.09666666666666669
10,7,13,1,1,1.2400000000000009,3,11,22,73,70,37,2.3500000000000014,0.8500000000000005,0.11999999999999998,0.19000000000000003,5,2,1,1,18,5,1,1,3,0,18,7,LH,0.13055555555555556,0.17000000000000004,0.11999999999999998,0.19000000000000003
10,7,14,1,4,0.47000000000000025,2,7,108,107,93,36,1.7600000000000011,0.16,1.2100000000000009,0.17,4,1,2,2,17,1,6,2,2,0,12,7,LH,0.10352941176470588,0.16,0.20166666666666674,0.08499999999999999
10,8,15,1,9,0.5300000000000002,2,4,61,93,87,11,1.9400000000000013,0.5500000000000003,0.3200000000000001,0.37000000000000016,4,2,1,1,9,4,1,1,4,0,16,7,LH,0.21555555555555564,0.13750000000000004,0.3200000000000001,0.37000000000000016
10,8,16,1,4,0.7900000000000005,2,3,40,22,75,19,2.7100000000000017,0.15,0.36000000000000015,0.08,6,1,1,1,11,1,1,1,2,0,20,7,LH,0.24636363636363648,0.15,0.36000000000000015,0.08
10,9,17,1,5,1.0000000000000007,4,6,37,46,63,67,2.7500000000000018,0.38000000000000017,0.22000000000000006,0.13999999999999999,7,2,2,2,14,2,3,2,5,0,18,7,LH,0.19642857142857148,0.19000000000000003,0.07333333333333333,0.06999999999999999
10,9,18,1,2,0.3900000000000002,2,3,22,79,76,99,1.9100000000000013,0.6000000000000003,0.26000000000000006,0.09,4,2,2,1,8,5,2,1,4,0,14,7,LH,0.2387500000000001,0.12,0.13,0.09
10,10,19,1,3,0.46000000000000024,3,6,29,31,52,100,1.8000000000000012,0.3900000000000002,1.2300000000000009,0.2900000000000001,6,2,4,2,14,3,5,2,5,0,16,7,LH,0.1285714285714286,0.13,0.24600000000000008,0.14500000000000005
10,10,20,1,9,0.2900000000000001,2,5,64,72,110,112,1.620000000000001,0.26000000000000006,1.0500000000000007,0.17,5,2,5,3,8,3,7,3,4,0,12,7,LH,0.20250000000000007,0.08666666666666667,0.15000000000000002,0.056666666666666664
10,11,21,1,1,0.4300000000000002,2,7,82,103,18,80,1.720000000000001,0.2800000000000001,0.7000000000000004,0.08,5,1,2,1,17,1,2,1,3,0,14,7,LH,0.1011764705882353,0.2800000000000001,0.35000000000000014,0.08
10,11,22,1,10,0.48000000000000026,2,4,95,88,30,64,1.7800000000000011,0.23000000000000007,1.9100000000000015,0.3200000000000001,5,1,5,2,13,2,9,2,3,0,15,7,LH,0.13692307692307695,0.11500000000000002,0.2122222222222223,0.16000000000000003
10,12,23,1,2,0.5000000000000002,2,5,53,54,82,52,1.8000000000000012,0.3100000000000001,0.6000000000000003,0.23000000000000007,5,1,2,2,13,1,3,2,4,0.5,15,7,LH,0.13846153846153847,0.3100000000000001,0.20000000000000004,0.11499999999999999
10,12,24,1,3,0.2900000000000001,2,3,32,26,28,20,1.0800000000000005,0.5100000000000002,0.38000000000000017,0.3200000000000001,4,2,2,1,6,3,4,1,5,0.5,21,7,LH,0.18000000000000005,0.17,0.095,0.3200000000000001
10,13,25,1,1,0.3200000000000001,4,5,75,58,77,114,1.0700000000000005,0.8800000000000006,0.10999999999999999,0.22000000000000006,6,2,1,1,9,6,1,1,3,0,12,7,LH,0.11888888888888892,0.1466666666666667,0.10999999999999999,0.22000000000000006
10,13,26,1,10,0.6000000000000003,2,8,92,94,99,12,1.3300000000000007,0.37000000000000016,0.6700000000000004,0.7100000000000004,4,1,2,3,10,1,3,3,3,0,14,7,LH,0.13300000000000003,0.37000000000000016,0.2233333333333334,0.23666666666666678
10,14,27,1,9,0.7900000000000005,2,8,72,70,66,14,2.4200000000000017,0.5300000000000002,1.0800000000000007,0.25000000000000006,4,2,3,1,14,3,3,1,4,0.5,18,7,LH,0.1728571428571429,0.1766666666666667,0.36000000000000015,0.25000000000000006
10,14,28,1,10,0.6700000000000004,2,5,90,49,54,4,1.8000000000000012,0.6600000000000004,0.3100000000000001,1.270000000000001,6,2,1,5,12,3,2,7,3,0,17,7,LH,0.15000000000000002,0.22000000000000008,0.15500000000000003,0.18142857142857147
10,15,29,1,6,0.6000000000000003,2,3,6,53,54,9,2.709999999999999,0.48000000000000026,0.4400000000000002,1.1900000000000008,7,2,2,6,11,3,3,6,6,0,20,7,LH,0.24636363636363645,0.16000000000000003,0.14666666666666672,0.1983333333333334
10,15,30,1,8,0.6100000000000003,10,11,119,68,117,67,2.2200000000000015,2.3799999999999932,0.2700000000000001,0.7000000000000004,12,6,2,4,20,11,4,5,2,0,12,7,LH,0.11100000000000002,0.21636363636363645,0.06750000000000002,0.14000000000000004
10,16,31,1,8,0.6000000000000003,4,7,14,109,88,120,2.809999999999997,0.18000000000000002,0.11999999999999998,0.3100000000000001,7,1,1,2,14,1,1,2,2,0,13,7,LH,0.2007142857142858,0.18000000000000002,0.11999999999999998,0.15500000000000003
10,16,32,1,3,0.6700000000000004,3,9,27,26,7,102,1.4100000000000008,0.7000000000000004,1.450000000000001,0.15,5,2,2,1,11,3,10,1,5,0,18,7,LH,0.1281818181818182,0.23333333333333342,0.14500000000000005,0.15
10,17,33,1,5,1.2300000000000009,6,10,39,45,69,119,2.370000000000002,0.3300000000000001,0.7000000000000004,0.16,8,1,2,2,15,1,6,2,5,0,16,7,LH,0.15800000000000006,0.3300000000000001,0.11666666666666668,0.07999999999999999
10,17,34,1,2,0.9100000000000006,2,6,57,73,59,54,1.9600000000000013,0.25000000000000006,0.7900000000000005,0.20000000000000004,4,1,2,1,8,1,3,1,4,0.5,15,7,LH,0.2450000000000001,0.25000000000000006,0.2633333333333334,0.20000000000000004
10,18,35,1,6,0.6600000000000004,3,5,2,10,12,4,1.7800000000000011,0.3100000000000001,0.7200000000000004,0.9100000000000006,5,1,2,3,13,1,2,3,6,1,72,7,LH,0.13692307692307693,0.3100000000000001,0.36000000000000015,0.30333333333333345
10,18,36,1,7,0.9600000000000006,6,6,15,23,97,17,2.0800000000000014,1.0600000000000007,0.17,0.13999999999999999,8,2,1,1,13,5,1,1,6,0.5,20,7,LH,0.16000000000000003,0.21200000000000005,0.17,0.13999999999999999
10,19,37,1,2,0.7900000000000005,2,6,53,113,117,34,2.1300000000000017,0.5200000000000002,0.25000000000000006,0.3900000000000002,5,2,1,2,14,2,1,5,4,0,13,7,LH,0.15214285714285716,0.26000000000000006,0.25000000000000006,0.07799999999999999
10,19,38,1,9,0.35000000000000014,2,4,65,107,98,106,1.750000000000001,3.099999999999978,1.1100000000000008,0.01,6,11,6,1,13,11,6,1,4,0.5,10,7,LH,0.13461538461538464,0.2818181818181819,0.18500000000000008,0.01
10,20,39,1,1,1.5900000000000012,6,9,81,35,119,28,1.6600000000000013,0.6700000000000004,0.8400000000000005,0.18000000000000002,8,1,2,1,11,1,2,1,3,0,15,7,LH,0.15090909090909096,0.6700000000000004,0.4200000000000002,0.18000000000000002
10,20,40,1,10,0.3300000000000001,2,3,90,96,67,61,1.4000000000000008,0.23000000000000007,1.6500000000000012,1.5100000000000011,6,1,5,6,8,1,8,7,3,0,14,7,LH,0.17500000000000004,0.23000000000000007,0.20625000000000007,0.21571428571428578
10,21,41,1,10,0.38000000000000017,2,3,117,91,31,6,2.6799999999999953,0.17,0.23000000000000007,0.09999999999999999,4,2,2,1,13,2,2,1,3,0,16,7,LH,0.20615384615384622,0.085,0.115,0.09999999999999999
10,21,42,1,4,0.46000000000000024,3,5,101,24,17,45,1.510000000000001,1.330000000000001,0.3100000000000001,0.5100000000000002,6,3,1,2,9,8,1,2,2,0,19,7,LH,0.16777777777777783,0.16625000000000004,0.3100000000000001,0.2550000000000001
10,22,43,1,9,1.0100000000000007,3,7,71,13,107,105,1.4700000000000009,0.6300000000000003,0.5200000000000002,0.20000000000000004,4,1,2,1,8,1,4,1,4,0,14,7,LH,0.18375000000000008,0.6300000000000003,0.13,0.20000000000000004
10,22,44,1,2,0.25000000000000006,2,3,52,112,1,51,0.7600000000000002,1.0700000000000007,0.35000000000000014,0.22000000000000006,4,3,2,2,5,5,2,2,4,0,16,7,LH,0.15200000000000005,0.21400000000000008,0.17500000000000004,0.10999999999999999
11,1,1,0,2,0.4000000000000002,2,4,57,120,113,117,3.1599999999999855,0.7900000000000005,0.7800000000000005,3.319999999999973,4,3,2,3,24,5,8,28,4,0.5,16,7,LH,0.13166666666666668,0.15800000000000003,0.0975,0.11857142857142859
11,1,2,0,10,0.5200000000000002,2,9,96,11,3,102,2.5000000000000018,1.400000000000001,1.270000000000001,0.20000000000000004,6,2,2,1,21,8,14,1,3,0,17,7,LH,0.11904761904761907,0.17500000000000007,0.09071428571428572,0.20000000000000004
11,2,3,0,3,0.4200000000000002,2,6,35,112,111,64,1.9400000000000013,2.6499999999999875,0.18000000000000002,0.6300000000000003,5,3,1,2,14,13,1,4,5,0,13,7,LH,0.1385714285714286,0.2038461538461539,0.18000000000000002,0.15750000000000003
11,2,4,0,7,0.5200000000000002,2,4,17,104,49,87,1.9900000000000013,2.3199999999999945,0.5800000000000003,3.0199999999999796,5,6,2,7,8,17,3,14,6,0,15,7,LH,0.24875000000000008,0.13647058823529415,0.1933333333333334,0.21571428571428578
11,3,5,0,2,0.6700000000000004,2,6,53,52,22,112,2.6300000000000017,0.9400000000000006,0.8700000000000006,0.26000000000000006,4,2,2,2,21,13,4,3,4,0,16,7,LH,0.12523809523809526,0.07230769230769231,0.21750000000000005,0.08666666666666666
11,3,6,0,6,0.34000000000000014,2,3,10,7,6,93,1.700000000000001,0.35000000000000014,6.819999999999899,0.02,4,1,8,1,11,1,28,1,6,0.5,39,7,LH,0.15454545454545457,0.35000000000000014,0.24357142857142866,0.02
11,4,7,0,8,0.36000000000000015,2,4,117,72,65,12,2.579999999999997,2.0799999999999996,0.5700000000000003,0.21000000000000005,5,2,2,5,14,10,3,7,2,0,16,7,LH,0.18428571428571433,0.20800000000000007,0.19000000000000006,0.03
11,4,8,0,4,0.5800000000000003,2,10,91,22,49,60,3.9599999999999724,0.12999999999999998,0.3900000000000002,0.08,6,2,2,1,21,2,4,1,2,0,17,7,LH,0.18857142857142864,0.06499999999999999,0.0975,0.08
11,5,9,0,5,0.3900000000000002,2,5,37,45,110,113,1.600000000000001,0.5200000000000002,1.7800000000000014,0.3100000000000001,4,1,2,2,12,1,14,4,5,0,14,7,LH,0.13333333333333336,0.5200000000000002,0.12714285714285717,0.0775
11,5,10,0,10,0.8200000000000005,12,14,87,90,27,28,1.9400000000000013,1.1500000000000008,2.1199999999999988,0.25000000000000006,14,3,3,2,19,7,6,3,3,0,16,7,LH,0.10210526315789475,0.1642857142857143,0.3533333333333335,0.08333333333333333
11,6,11,0,4,0.2900000000000001,2,3,99,53,100,44,2.679999999999993,2.099999999999999,0.04,0.37000000000000016,5,4,1,3,13,12,1,3,2,0,13,7,LH,0.20615384615384622,0.17500000000000004,0.04,0.12333333333333336
11,6,12,0,8,1.1700000000000008,2,14,28,109,14,36,3.3799999999999977,0.45000000000000023,0.4200000000000002,0.5200000000000002,4,2,1,3,29,3,1,8,2,0,18,7,LH,0.11655172413793105,0.15000000000000002,0.4200000000000002,0.065
11,7,13,1,9,0.3300000000000001,2,4,67,62,112,72,1.750000000000001,1.6400000000000012,0.4200000000000002,0.7100000000000004,6,4,2,4,12,11,3,6,4,0.5,14,7,LH,0.14583333333333337,0.14909090909090914,0.14,0.11833333333333336
11,7,14,1,2,0.35000000000000014,2,3,58,108,53,18,2.370000000000001,1.1000000000000008,0.21000000000000005,0.24000000000000007,4,2,2,2,12,10,3,2,4,0,16,7,LH,0.19750000000000006,0.11000000000000001,0.06999999999999999,0.12000000000000001
11,8,15,1,1,0.3900000000000002,2,5,80,44,15,46,2.2300000000000018,1.2200000000000009,0.6000000000000003,0.25000000000000006,5,3,2,1,16,10,7,1,3,0,19,7,LH,0.13937500000000003,0.12200000000000004,0.08571428571428573,0.25000000000000006
11,8,16,1,4,0.3100000000000001,2,3,102,105,30,31,1.650000000000001,0.6900000000000004,1.1400000000000008,0.5700000000000003,4,2,3,2,11,5,5,2,2,0,14,7,LH,0.15000000000000005,0.13800000000000004,0.22800000000000006,0.28500000000000014
11,9,17,1,7,0.7500000000000004,2,8,15,18,49,53,3.339999999999989,0.6800000000000004,0.2900000000000001,0.6400000000000003,4,2,1,2,24,6,1,5,6,0,20,7,LH,0.1391666666666667,0.11333333333333336,0.2900000000000001,0.12800000000000003
11,9,18,1,6,0.3100000000000001,2,4,9,34,32,74,1.0900000000000005,2.239999999999996,0.4400000000000002,1.330000000000001,4,4,2,2,10,5,3,11,6,0,19,7,LH,0.10900000000000001,0.44800000000000023,0.14666666666666672,0.12090909090909094
11,10,19,1,1,0.5000000000000002,2,5,79,19,74,21,3.3099999999999845,0.3200000000000001,0.15,0.2900000000000001,4,2,1,2,25,3,1,2,3,0,18,7,LH,0.13240000000000002,0.10666666666666667,0.15,0.14500000000000002
11,10,20,1,2,0.3000000000000001,2,3,51,54,27,35,1.4300000000000008,0.5400000000000003,1.7100000000000013,1.2200000000000009,6,1,3,3,9,1,7,11,4,0,18,7,LH,0.15888888888888894,0.5400000000000003,0.24428571428571436,0.11090909090909092
11,11,21,1,5,1.440000000000001,5,7,15,13,120,40,9.549999999999873,2.3199999999999945,0.03,0.01,13,11,1,1,57,14,1,1,5,0,19,7,LH,0.16754385964912286,0.16571428571428576,0.03,0.01
11,11,22,1,6,0.5700000000000003,5,7,5,3,12,83,2.7699999999999974,4.9699999999999385,0.01,0.01,10,8,1,1,20,21,1,1,6,0.5,21,7,LH,0.1385,0.23666666666666675,0.01,0.01
11,12,23,1,4,0.8000000000000005,2,7,99,95,106,94,2.3100000000000014,0.45000000000000023,0.6600000000000004,0.6300000000000003,4,2,2,2,14,2,3,3,2,0,10,7,LH,0.16500000000000004,0.2250000000000001,0.22000000000000006,0.21000000000000008
11,12,24,1,2,0.26000000000000006,2,3,51,14,43,47,1.1800000000000006,2.0000000000000013,0.6200000000000003,0.19000000000000003,4,2,2,2,9,16,4,3,4,0,20,7,LH,0.13111111111111112,0.12500000000000003,0.15500000000000003,0.06333333333333334
11,13,25,1,4,0.47000000000000025,2,5,107,97,99,79,1.9400000000000013,0.5300000000000002,1.1000000000000008,0.20000000000000004,4,2,2,1,21,3,11,1,2,0.5,9,7,LH,0.09238095238095238,0.17666666666666672,0.1,0.20000000000000004
11,13,26,1,9,1.290000000000001,18,20,41,17,19,85,4.869999999999969,2.3799999999999932,0.9500000000000006,0.46000000000000024,20,4,3,2,39,18,9,2,4,0,20,7,LH,0.1248717948717949,0.13222222222222224,0.10555555555555558,0.2300000000000001
11,14,27,1,5,0.2900000000000001,2,3,43,42,95,10,2.3699999999999997,0.5700000000000003,1.8600000000000014,0.05,5,2,4,1,19,4,14,1,5,0,19,7,LH,0.12473684210526319,0.14250000000000004,0.1328571428571429,0.05
11,14,28,1,1,0.3200000000000001,2,4,73,50,58,53,1.4500000000000008,0.25000000000000006,0.6100000000000003,0.47000000000000025,4,2,2,2,10,3,3,6,3,0.5,15,7,LH,0.14500000000000002,0.08333333333333334,0.2033333333333334,0.07833333333333332
11,15,29,1,1,0.5400000000000003,7,12,74,75,52,51,2.2100000000000017,0.18000000000000002,1.0200000000000007,0.4100000000000002,9,1,6,2,25,1,8,5,3,0,14,7,LH,0.0884,0.18000000000000002,0.12750000000000003,0.082
11,15,30,1,10,0.2800000000000001,2,3,90,88,4,5,2.1800000000000015,0.8600000000000005,0.7000000000000004,0.6200000000000003,7,5,6,4,14,7,11,7,3,0,18,7,LH,0.15571428571428575,0.12285714285714289,0.06363636363636363,0.08857142857142858
11,16,31,1,6,0.26000000000000006,2,4,4,1,7,84,1.9500000000000013,1.0800000000000007,0.6900000000000004,1.2400000000000009,6,2,4,6,16,7,6,6,6,0.5,21,7,LH,0.12187500000000002,0.15428571428571433,0.11500000000000002,0.20666666666666672
11,16,32,1,10,0.5600000000000003,2,5,86,16,93,97,1.8200000000000012,1.400000000000001,0.37000000000000016,1.370000000000001,4,3,2,3,9,4,2,6,3,0,14,7,LH,0.2022222222222223,0.35000000000000014,0.18500000000000003,0.22833333333333342
11,17,33,1,6,0.4100000000000002,2,5,5,9,12,76,1.8300000000000012,1.2100000000000009,0.7800000000000005,1.1900000000000008,5,3,3,4,12,7,3,5,6,0.5,21,7,LH,0.15250000000000002,0.1728571428571429,0.2600000000000001,0.2380000000000001
11,17,34,1,10,0.3100000000000001,2,3,91,88,86,55,2.2800000000000016,0.22000000000000006,0.3000000000000001,1.2200000000000009,4,1,2,4,12,1,2,9,3,0.5,13,7,LH,0.19000000000000003,0.22000000000000006,0.15000000000000002,0.1355555555555556
11,18,35,1,8,0.45000000000000023,2,5,109,120,113,54,2.949999999999991,0.15,2.239999999999996,0.45000000000000023,4,1,8,4,26,1,9,4,2,0.5,10,7,LH,0.11346153846153847,0.15,0.248888888888889,0.11250000000000002
11,18,36,1,9,0.45000000000000023,3,4,64,101,69,41,2.2400000000000015,0.49000000000000027,0.2900000000000001,0.4300000000000002,5,3,2,2,18,4,3,3,4,0,15,7,LH,0.12444444444444447,0.1225,0.09666666666666665,0.14333333333333334
11,19,37,1,9,0.5000000000000002,2,6,71,69,64,82,1.8400000000000012,0.6900000000000004,0.7700000000000005,1.0400000000000007,6,2,2,3,14,3,5,7,4,0.5,15,7,LH,0.13142857142857145,0.2300000000000001,0.15400000000000003,0.1485714285714286
11,19,38,1,7,0.3000000000000001,2,3,24,22,92,31,2.429999999999999,0.6000000000000003,0.24000000000000007,0.17,5,2,1,1,17,6,1,1,6,0,20,7,LH,0.14294117647058827,0.1,0.24000000000000007,0.17
11,20,39,1,2,0.4400000000000002,2,5,57,118,92,40,3.169999999999986,1.420000000000001,1.0400000000000007,0.08,4,4,3,2,21,7,3,2,4,0,14,7,LH,0.150952380952381,0.20285714285714293,0.34666666666666685,0.04
11,20,40,1,9,0.4100000000000002,3,5,61,62,16,32,2.1400000000000015,1.430000000000001,0.9600000000000006,0.05,5,5,2,1,13,13,5,1,4,0,19,7,LH,0.16461538461538466,0.11000000000000001,0.19200000000000006,0.05
